"id";"id_subj";"time";"session";"id_grp";"grp";"round";"period";"sig";"links";"choice";"hist";"active"
"1";"23";"0";"1";"6";"1";"1";"1";"0";"[1,2,3,7]";"0";"0";"1"
"2";"12";"0";"1";"4";"1";"1";"1";"2";"[1,2,3,5]";"0";"0";"1"
"3";"38";"0";"1";"5";"3";"1";"1";"0";"[1,2,3,6]";"0";"0";"1"
"4";"29";"0";"1";"1";"3";"1";"1";"0";"[2,3]";"0";"0";"1"
"5";"5";"0";"1";"5";"2";"1";"1";"0";"[1,2,3,6]";"0";"0";"1"
"6";"27";"0";"1";"3";"2";"1";"1";"2";"[1,2,4]";"0";"0";"1"
"7";"21";"0";"1";"2";"3";"1";"1";"1";"[1,3]";"0";"0";"1"
"8";"20";"0";"1";"6";"2";"1";"1";"2";"[1,2,3,7]";"0";"0";"1"
"9";"1";"0";"1";"4";"4";"1";"1";"1";"[1,2,3,5]";"0";"0";"1"
"10";"34";"0";"1";"7";"2";"1";"1";"2";"[1,2,3,8]";"0";"0";"1"
"11";"35";"0";"1";"8";"3";"1";"1";"2";"[1,2,3,9]";"0";"0";"1"
"12";"11";"0";"1";"9";"4";"1";"1";"2";"[1,2,3,10]";"0";"0";"1"
"13";"25";"0";"1";"6";"3";"1";"1";"0";"[1,2,3,7]";"0";"0";"1"
"14";"30";"0";"1";"1";"4";"1";"1";"0";"[2,3]";"0";"0";"1"
"15";"22";"0";"1";"7";"3";"1";"1";"1";"[1,2,3,8]";"0";"0";"1"
"16";"4";"0";"1";"3";"3";"1";"1";"2";"[1,2,4]";"0";"0";"1"
"17";"15";"0";"1";"8";"1";"1";"1";"0";"[1,2,3,9]";"0";"0";"1"
"18";"33";"0";"1";"9";"1";"1";"1";"1";"[1,2,3,10]";"0";"0";"1"
"19";"10";"0";"1";"4";"3";"1";"1";"0";"[1,2,3,5]";"0";"0";"1"
"20";"8";"0";"1";"3";"4";"1";"1";"0";"[1,2,4]";"0";"0";"1"
"21";"31";"0";"1";"8";"2";"1";"1";"2";"[1,2,3,9]";"0";"0";"1"
"22";"28";"0";"1";"10";"3";"1";"1";"1";"[1,2,3]";"0";"0";"1"
"23";"39";"0";"1";"8";"4";"1";"1";"2";"[1,2,3,9]";"0";"0";"1"
"24";"16";"0";"1";"2";"2";"1";"1";"1";"[1,3]";"0";"0";"1"
"25";"3";"0";"1";"3";"1";"1";"1";"1";"[1,2,4]";"0";"0";"1"
"26";"6";"0";"1";"7";"1";"1";"1";"0";"[1,2,3,8]";"0";"0";"1"
"27";"7";"0";"1";"4";"2";"1";"1";"2";"[1,2,3,5]";"0";"0";"1"
"28";"26";"0";"1";"2";"4";"1";"1";"2";"[1,3]";"0";"0";"1"
"29";"14";"0";"1";"10";"1";"1";"1";"1";"[1,2,3]";"0";"0";"1"
"30";"13";"0";"1";"5";"4";"1";"1";"2";"[1,2,3,6]";"0";"0";"1"
"31";"36";"0";"1";"10";"2";"1";"1";"2";"[1,2,3]";"0";"0";"1"
"32";"2";"0";"1";"9";"2";"1";"1";"2";"[1,2,3,10]";"0";"0";"1"
"33";"9";"0";"1";"7";"4";"1";"1";"0";"[1,2,3,8]";"0";"0";"1"
"34";"32";"0";"1";"6";"4";"1";"1";"1";"[1,2,3,7]";"0";"0";"1"
"35";"19";"0";"1";"9";"3";"1";"1";"0";"[1,2,3,10]";"0";"0";"1"
"36";"17";"0";"1";"1";"1";"1";"1";"0";"[2,3]";"0";"0";"1"
"37";"40";"0";"1";"1";"2";"1";"1";"1";"[2,3]";"0";"0";"1"
"38";"18";"0";"1";"2";"1";"1";"1";"1";"[1,3]";"0";"0";"1"
"39";"37";"0";"1";"10";"4";"1";"1";"2";"[1,2,3]";"0";"0";"1"
"40";"24";"0";"1";"5";"1";"1";"1";"1";"[1,2,3,6]";"0";"0";"1"
"41";"20";"4";"1";"6";"2";"1";"1";"2";"[1,2,3,7]";"2";"0";"1"
"42";"34";"5";"1";"7";"2";"1";"1";"2";"[1,2,3,8]";"2";"0";"1"
"43";"22";"5";"1";"7";"3";"1";"1";"1";"[1,2,3,8]";"1";"0";"1"
"44";"20";"5";"1";"6";"2";"1";"1";"2";"[1,2,3,7]";"2";"0";"1"
"45";"34";"6";"1";"7";"2";"1";"1";"2";"[1,2,3,8]";"2";"0";"1"
"46";"22";"6";"1";"7";"3";"1";"1";"1";"[1,2,3,8]";"1";"0";"1"
"47";"11";"7";"1";"9";"4";"1";"1";"2";"[1,2,3,10]";"2";"0";"1"
"48";"32";"7";"1";"6";"4";"1";"1";"1";"[1,2,3,7]";"1";"0";"1"
"49";"21";"8";"1";"2";"3";"1";"1";"1";"[1,3]";"1";"0";"1"
"50";"11";"8";"1";"9";"4";"1";"1";"2";"[1,2,3,10]";"2";"0";"1"
"51";"16";"8";"1";"2";"2";"1";"1";"1";"[1,3]";"2";"0";"1"
"52";"36";"8";"1";"10";"2";"1";"1";"2";"[1,2,3]";"2";"0";"1"
"53";"31";"8";"1";"8";"2";"1";"1";"2";"[1,2,3,9]";"1";"0";"1"
"54";"24";"8";"1";"5";"1";"1";"1";"1";"[1,2,3,6]";"1";"0";"1"
"55";"27";"8";"1";"3";"2";"1";"1";"2";"[1,2,4]";"2";"0";"1"
"56";"32";"8";"1";"6";"4";"1";"1";"1";"[1,2,3,7]";"1";"0";"1"
"57";"21";"9";"1";"2";"3";"1";"1";"1";"[1,3]";"1";"0";"1"
"58";"30";"9";"1";"1";"4";"1";"1";"0";"[2,3]";"2";"0";"1"
"59";"16";"9";"1";"2";"2";"1";"1";"1";"[1,3]";"2";"0";"1"
"60";"14";"9";"1";"10";"1";"1";"1";"1";"[1,2,3]";"1";"0";"1"
"61";"36";"9";"1";"10";"2";"1";"1";"2";"[1,2,3]";"2";"0";"1"
"62";"31";"9";"1";"8";"2";"1";"1";"2";"[1,2,3,9]";"1";"0";"1"
"63";"37";"9";"1";"10";"4";"1";"1";"2";"[1,2,3]";"2";"0";"1"
"64";"24";"9";"1";"5";"1";"1";"1";"1";"[1,2,3,6]";"1";"0";"1"
"65";"27";"9";"1";"3";"2";"1";"1";"2";"[1,2,4]";"2";"0";"1"
"66";"6";"10";"1";"7";"1";"1";"1";"0";"[1,2,3,8]";"1";"0";"1"
"67";"30";"10";"1";"1";"4";"1";"1";"0";"[2,3]";"2";"0";"1"
"68";"14";"10";"1";"10";"1";"1";"1";"1";"[1,2,3]";"1";"0";"1"
"69";"4";"10";"1";"3";"3";"1";"1";"2";"[1,2,4]";"2";"0";"1"
"70";"37";"10";"1";"10";"4";"1";"1";"2";"[1,2,3]";"2";"0";"1"
"71";"2";"10";"1";"9";"2";"1";"1";"2";"[1,2,3,10]";"2";"0";"1"
"72";"12";"10";"1";"4";"1";"1";"1";"2";"[1,2,3,5]";"2";"0";"1"
"73";"6";"11";"1";"7";"1";"1";"1";"0";"[1,2,3,8]";"1";"0";"1"
"74";"7";"11";"1";"4";"2";"1";"1";"2";"[1,2,3,5]";"2";"0";"1"
"75";"35";"11";"1";"8";"3";"1";"1";"2";"[1,2,3,9]";"2";"0";"1"
"76";"4";"11";"1";"3";"3";"1";"1";"2";"[1,2,4]";"2";"0";"1"
"77";"2";"11";"1";"9";"2";"1";"1";"2";"[1,2,3,10]";"2";"0";"1"
"78";"28";"11";"1";"10";"3";"1";"1";"1";"[1,2,3]";"1";"0";"1"
"79";"12";"11";"1";"4";"1";"1";"1";"2";"[1,2,3,5]";"2";"0";"1"
"80";"33";"12";"1";"9";"1";"1";"1";"1";"[1,2,3,10]";"1";"0";"1"
"81";"13";"12";"1";"5";"4";"1";"1";"2";"[1,2,3,6]";"2";"0";"1"
"82";"7";"12";"1";"4";"2";"1";"1";"2";"[1,2,3,5]";"2";"0";"1"
"83";"35";"12";"1";"8";"3";"1";"1";"2";"[1,2,3,9]";"2";"0";"1"
"84";"28";"12";"1";"10";"3";"1";"1";"1";"[1,2,3]";"1";"0";"1"
"85";"33";"13";"1";"9";"1";"1";"1";"1";"[1,2,3,10]";"1";"0";"1"
"86";"26";"13";"1";"2";"4";"1";"1";"2";"[1,3]";"1";"0";"1"
"87";"13";"13";"1";"5";"4";"1";"1";"2";"[1,2,3,6]";"2";"0";"1"
"88";"26";"14";"1";"2";"4";"1";"1";"2";"[1,3]";"1";"0";"1"
"89";"5";"14";"1";"5";"2";"1";"1";"0";"[1,2,3,6]";"2";"0";"1"
"90";"3";"15";"1";"3";"1";"1";"1";"1";"[1,2,4]";"2";"0";"1"
"91";"5";"15";"1";"5";"2";"1";"1";"0";"[1,2,3,6]";"2";"0";"1"
"92";"29";"16";"1";"1";"3";"1";"1";"0";"[2,3]";"1";"0";"1"
"93";"1";"16";"1";"4";"4";"1";"1";"1";"[1,2,3,5]";"1";"0";"1"
"94";"3";"16";"1";"3";"1";"1";"1";"1";"[1,2,4]";"2";"0";"1"
"95";"29";"17";"1";"1";"3";"1";"1";"0";"[2,3]";"1";"0";"1"
"96";"1";"17";"1";"4";"4";"1";"1";"1";"[1,2,3,5]";"1";"0";"1"
"97";"38";"18";"1";"5";"3";"1";"1";"0";"[1,2,3,6]";"2";"0";"1"
"98";"18";"18";"1";"2";"1";"1";"1";"1";"[1,3]";"1";"0";"1"
"99";"38";"19";"1";"5";"3";"1";"1";"0";"[1,2,3,6]";"2";"0";"1"
"100";"18";"19";"1";"2";"1";"1";"1";"1";"[1,3]";"1";"0";"1"
"101";"40";"19";"1";"1";"2";"1";"1";"1";"[2,3]";"1";"0";"1"
"102";"17";"20";"1";"1";"1";"1";"1";"0";"[2,3]";"2";"0";"1"
"103";"39";"20";"1";"8";"4";"1";"1";"2";"[1,2,3,9]";"2";"0";"1"
"104";"8";"20";"1";"3";"4";"1";"1";"0";"[1,2,4]";"1";"0";"1"
"105";"40";"20";"1";"1";"2";"1";"1";"1";"[2,3]";"1";"0";"1"
"106";"17";"21";"1";"1";"1";"1";"1";"0";"[2,3]";"2";"0";"1"
"107";"39";"21";"1";"8";"4";"1";"1";"2";"[1,2,3,9]";"2";"0";"1"
"108";"8";"21";"1";"3";"4";"1";"1";"0";"[1,2,4]";"1";"0";"1"
"109";"15";"22";"1";"8";"1";"1";"1";"0";"[1,2,3,9]";"1";"0";"1"
"110";"15";"23";"1";"8";"1";"1";"1";"0";"[1,2,3,9]";"1";"0";"1"
"111";"10";"24";"1";"4";"3";"1";"1";"0";"[1,2,3,5]";"1";"0";"1"
"112";"25";"24";"1";"6";"3";"1";"1";"0";"[1,2,3,7]";"2";"0";"1"
"113";"10";"25";"1";"4";"3";"1";"1";"0";"[1,2,3,5]";"1";"0";"1"
"114";"19";"25";"1";"9";"3";"1";"1";"0";"[1,2,3,10]";"2";"0";"1"
"115";"25";"25";"1";"6";"3";"1";"1";"0";"[1,2,3,7]";"2";"0";"1"
"116";"19";"26";"1";"9";"3";"1";"1";"0";"[1,2,3,10]";"2";"0";"1"
"117";"23";"27";"1";"6";"1";"1";"1";"0";"[1,2,3,7]";"1";"0";"1"
"118";"23";"28";"1";"6";"1";"1";"1";"0";"[1,2,3,7]";"1";"0";"1"
"119";"9";"31";"1";"7";"4";"1";"1";"0";"[1,2,3,8]";"0";"0";"1"
"120";"0";"30";"1";"7";"4";"1";"1";"0";"[1,2,3,8]";"1";"0";"0"
"121";"22";"34";"1";"7";"3";"1";"2";"1";"[1,2,3,8]";"1";"0";"1"
"122";"1";"34";"1";"4";"4";"1";"2";"1";"[1,2,3,5]";"1";"0";"1"
"123";"22";"35";"1";"7";"3";"1";"2";"1";"[1,2,3,8]";"1";"0";"1"
"124";"16";"35";"1";"2";"2";"1";"2";"1";"[1,3]";"2";"0";"1"
"125";"1";"35";"1";"4";"4";"1";"2";"1";"[1,2,3,5]";"1";"0";"1"
"126";"16";"36";"1";"2";"2";"1";"2";"1";"[1,3]";"2";"0";"1"
"127";"30";"37";"1";"1";"4";"1";"2";"0";"[2,3]";"1";"0";"1"
"128";"2";"37";"1";"9";"2";"1";"2";"2";"[1,2,3,10]";"2";"0";"1"
"129";"32";"38";"1";"6";"4";"1";"2";"1";"[1,2,3,7]";"2";"0";"1"
"130";"20";"38";"1";"6";"2";"1";"2";"2";"[1,2,3,7]";"2";"0";"1"
"131";"30";"38";"1";"1";"4";"1";"2";"0";"[2,3]";"1";"0";"1"
"132";"2";"38";"1";"9";"2";"1";"2";"2";"[1,2,3,10]";"2";"0";"1"
"133";"38";"38";"1";"5";"3";"1";"2";"0";"[1,2,3,6]";"2";"0";"1"
"134";"27";"39";"1";"3";"2";"1";"2";"2";"[1,2,4]";"2";"0";"1"
"135";"32";"39";"1";"6";"4";"1";"2";"1";"[1,2,3,7]";"2";"0";"1"
"136";"20";"39";"1";"6";"2";"1";"2";"2";"[1,2,3,7]";"2";"0";"1"
"137";"31";"39";"1";"8";"2";"1";"2";"2";"[1,2,3,9]";"2";"0";"1"
"138";"38";"39";"1";"5";"3";"1";"2";"0";"[1,2,3,6]";"2";"0";"1"
"139";"27";"40";"1";"3";"2";"1";"2";"2";"[1,2,4]";"2";"0";"1"
"140";"28";"40";"1";"10";"3";"1";"2";"1";"[1,2,3]";"1";"0";"1"
"141";"31";"40";"1";"8";"2";"1";"2";"2";"[1,2,3,9]";"2";"0";"1"
"142";"37";"41";"1";"10";"4";"1";"2";"2";"[1,2,3]";"2";"0";"1"
"143";"28";"41";"1";"10";"3";"1";"2";"1";"[1,2,3]";"1";"0";"1"
"144";"6";"10";"1";"7";"1";"1";"2";"0";"[1,2,3,8]";"2";"0";"1"
"145";"37";"42";"1";"10";"4";"1";"2";"2";"[1,2,3]";"2";"0";"1"
"146";"4";"42";"1";"3";"3";"1";"2";"2";"[1,2,4]";"2";"0";"1"
"147";"33";"11";"1";"9";"1";"1";"2";"1";"[1,2,3,10]";"1";"0";"1"
"148";"6";"11";"1";"7";"1";"1";"2";"0";"[1,2,3,8]";"2";"0";"1"
"149";"4";"43";"1";"3";"3";"1";"2";"2";"[1,2,4]";"2";"0";"1"
"150";"5";"43";"1";"5";"2";"1";"2";"0";"[1,2,3,6]";"2";"0";"1"
"151";"7";"43";"1";"4";"2";"1";"2";"2";"[1,2,3,5]";"2";"0";"1"
"152";"33";"12";"1";"9";"1";"1";"2";"1";"[1,2,3,10]";"1";"0";"1"
"153";"11";"44";"1";"9";"4";"1";"2";"2";"[1,2,3,10]";"2";"0";"1"
"154";"19";"44";"1";"9";"3";"1";"2";"0";"[1,2,3,10]";"1";"0";"1"
"155";"5";"44";"1";"5";"2";"1";"2";"0";"[1,2,3,6]";"2";"0";"1"
"156";"34";"44";"1";"7";"2";"1";"2";"2";"[1,2,3,8]";"2";"0";"1"
"157";"13";"44";"1";"5";"4";"1";"2";"2";"[1,2,3,6]";"1";"0";"1"
"158";"7";"44";"1";"4";"2";"1";"2";"2";"[1,2,3,5]";"2";"0";"1"
"159";"11";"45";"1";"9";"4";"1";"2";"2";"[1,2,3,10]";"2";"0";"1"
"160";"3";"14";"1";"3";"1";"1";"2";"1";"[1,2,4]";"2";"0";"1"
"161";"19";"45";"1";"9";"3";"1";"2";"0";"[1,2,3,10]";"1";"0";"1"
"162";"34";"45";"1";"7";"2";"1";"2";"2";"[1,2,3,8]";"2";"0";"1"
"163";"23";"14";"1";"6";"1";"1";"2";"0";"[1,2,3,7]";"2";"0";"1"
"164";"13";"45";"1";"5";"4";"1";"2";"2";"[1,2,3,6]";"1";"0";"1"
"165";"15";"14";"1";"8";"1";"1";"2";"0";"[1,2,3,9]";"1";"0";"1"
"166";"12";"14";"1";"4";"1";"1";"2";"2";"[1,2,3,5]";"2";"0";"1"
"167";"3";"15";"1";"3";"1";"1";"2";"1";"[1,2,4]";"2";"0";"1"
"168";"9";"46";"1";"7";"4";"1";"2";"0";"[1,2,3,8]";"1";"0";"1"
"169";"23";"15";"1";"6";"1";"1";"2";"0";"[1,2,3,7]";"2";"0";"1"
"170";"15";"15";"1";"8";"1";"1";"2";"0";"[1,2,3,9]";"1";"0";"1"
"171";"12";"15";"1";"4";"1";"1";"2";"2";"[1,2,3,5]";"2";"0";"1"
"172";"9";"47";"1";"7";"4";"1";"2";"0";"[1,2,3,8]";"1";"0";"1"
"173";"26";"48";"1";"2";"4";"1";"2";"2";"[1,3]";"1";"0";"1"
"174";"17";"17";"1";"1";"1";"1";"2";"0";"[2,3]";"2";"0";"1"
"175";"29";"48";"1";"1";"3";"1";"2";"0";"[2,3]";"1";"0";"1"
"176";"24";"18";"1";"5";"1";"1";"2";"1";"[1,2,3,6]";"1";"0";"1"
"177";"26";"49";"1";"2";"4";"1";"2";"2";"[1,3]";"1";"0";"1"
"178";"17";"18";"1";"1";"1";"1";"2";"0";"[2,3]";"2";"0";"1"
"179";"21";"49";"1";"2";"3";"1";"2";"1";"[1,3]";"1";"0";"1"
"180";"29";"50";"1";"1";"3";"1";"2";"0";"[2,3]";"1";"0";"1"
"181";"24";"19";"1";"5";"1";"1";"2";"1";"[1,2,3,6]";"1";"0";"1"
"182";"21";"50";"1";"2";"3";"1";"2";"1";"[1,3]";"1";"0";"1"
"183";"39";"51";"1";"8";"4";"1";"2";"2";"[1,2,3,9]";"2";"0";"1"
"184";"35";"52";"1";"8";"3";"1";"2";"2";"[1,2,3,9]";"1";"0";"1"
"185";"39";"52";"1";"8";"4";"1";"2";"2";"[1,2,3,9]";"2";"0";"1"
"186";"35";"53";"1";"8";"3";"1";"2";"2";"[1,2,3,9]";"1";"0";"1"
"187";"14";"23";"1";"10";"1";"1";"2";"1";"[1,2,3]";"1";"0";"1"
"188";"40";"54";"1";"1";"2";"1";"2";"1";"[2,3]";"1";"0";"1"
"189";"18";"23";"1";"2";"1";"1";"2";"1";"[1,3]";"2";"0";"1"
"190";"14";"24";"1";"10";"1";"1";"2";"1";"[1,2,3]";"1";"0";"1"
"191";"40";"55";"1";"1";"2";"1";"2";"1";"[2,3]";"1";"0";"1"
"192";"18";"24";"1";"2";"1";"1";"2";"1";"[1,3]";"2";"0";"1"
"193";"25";"57";"1";"6";"3";"1";"2";"0";"[1,2,3,7]";"1";"0";"1"
"194";"25";"58";"1";"6";"3";"1";"2";"0";"[1,2,3,7]";"1";"0";"1"
"195";"10";"60";"1";"4";"3";"1";"2";"0";"[1,2,3,5]";"1";"0";"1"
"196";"10";"61";"1";"4";"3";"1";"2";"0";"[1,2,3,5]";"1";"0";"1"
"197";"36";"62";"1";"10";"2";"1";"2";"2";"[1,2,3]";"0";"0";"1"
"198";"8";"62";"1";"3";"4";"1";"2";"0";"[1,2,4]";"0";"0";"1"
"199";"0";"30";"1";"10";"2";"1";"2";"2";"[1,2,3]";"2";"0";"0"
"200";"0";"30";"1";"3";"4";"1";"2";"0";"[1,2,4]";"1";"0";"0"
"201";"36";"64";"1";"10";"2";"1";"3";"2";"[1,2,3]";"2";"0";"1"
"202";"22";"65";"1";"7";"3";"1";"3";"1";"[1,2,3,8]";"1";"0";"1"
"203";"36";"65";"1";"10";"2";"1";"3";"2";"[1,2,3]";"2";"0";"1"
"204";"1";"65";"1";"4";"4";"1";"3";"1";"[1,2,3,5]";"1";"0";"1"
"205";"22";"66";"1";"7";"3";"1";"3";"1";"[1,2,3,8]";"1";"0";"1"
"206";"20";"66";"1";"6";"2";"1";"3";"2";"[1,2,3,7]";"2";"0";"1"
"207";"29";"66";"1";"1";"3";"1";"3";"0";"[2,3]";"1";"0";"1"
"208";"28";"66";"1";"10";"3";"1";"3";"1";"[1,2,3]";"0";"1";"1"
"209";"11";"66";"1";"9";"4";"1";"3";"2";"[1,2,3,10]";"2";"0";"1"
"210";"1";"66";"1";"4";"4";"1";"3";"1";"[1,2,3,5]";"1";"0";"1"
"211";"31";"67";"1";"8";"2";"1";"3";"2";"[1,2,3,9]";"2";"0";"1"
"212";"20";"67";"1";"6";"2";"1";"3";"2";"[1,2,3,7]";"2";"0";"1"
"213";"29";"67";"1";"1";"3";"1";"3";"0";"[2,3]";"1";"0";"1"
"214";"11";"67";"1";"9";"4";"1";"3";"2";"[1,2,3,10]";"2";"0";"1"
"215";"6";"5";"1";"7";"1";"1";"3";"0";"[1,2,3,8]";"2";"0";"1"
"216";"28";"67";"1";"10";"3";"1";"3";"1";"[1,2,3]";"0";"2";"1"
"217";"32";"68";"1";"6";"4";"1";"3";"1";"[1,2,3,7]";"1";"0";"1"
"218";"5";"68";"1";"5";"2";"1";"3";"0";"[1,2,3,6]";"2";"0";"1"
"219";"10";"68";"1";"4";"3";"1";"3";"0";"[1,2,3,5]";"0";"1";"1"
"220";"31";"68";"1";"8";"2";"1";"3";"2";"[1,2,3,9]";"2";"0";"1"
"221";"16";"68";"1";"2";"2";"1";"3";"1";"[1,3]";"2";"0";"1"
"222";"34";"68";"1";"7";"2";"1";"3";"2";"[1,2,3,8]";"2";"0";"1"
"223";"19";"68";"1";"9";"3";"1";"3";"0";"[1,2,3,10]";"0";"1";"1"
"224";"6";"6";"1";"7";"1";"1";"3";"0";"[1,2,3,8]";"2";"0";"1"
"225";"32";"69";"1";"6";"4";"1";"3";"1";"[1,2,3,7]";"1";"0";"1"
"226";"5";"69";"1";"5";"2";"1";"3";"0";"[1,2,3,6]";"2";"0";"1"
"227";"28";"69";"1";"10";"3";"1";"3";"1";"[1,2,3]";"0";"5";"1"
"228";"16";"69";"1";"2";"2";"1";"3";"1";"[1,3]";"2";"0";"1"
"229";"34";"69";"1";"7";"2";"1";"3";"2";"[1,2,3,8]";"2";"0";"1"
"230";"10";"69";"1";"4";"3";"1";"3";"0";"[1,2,3,5]";"0";"2";"1"
"231";"35";"70";"1";"8";"3";"1";"3";"2";"[1,2,3,9]";"2";"0";"1"
"232";"35";"71";"1";"8";"3";"1";"3";"2";"[1,2,3,9]";"2";"0";"1"
"233";"3";"10";"1";"3";"1";"1";"3";"1";"[1,2,4]";"2";"0";"1"
"234";"19";"72";"1";"9";"3";"1";"3";"0";"[1,2,3,10]";"0";"3";"1"
"235";"21";"72";"1";"2";"3";"1";"3";"1";"[1,3]";"1";"0";"1"
"236";"17";"10";"1";"1";"1";"1";"3";"0";"[2,3]";"0";"1";"1"
"237";"26";"72";"1";"2";"4";"1";"3";"2";"[1,3]";"1";"0";"1"
"238";"38";"72";"1";"5";"3";"1";"3";"0";"[1,2,3,6]";"1";"0";"1"
"239";"12";"10";"1";"4";"1";"1";"3";"2";"[1,2,3,5]";"2";"0";"1"
"240";"7";"72";"1";"4";"2";"1";"3";"2";"[1,2,3,5]";"2";"0";"1"
"241";"3";"11";"1";"3";"1";"1";"3";"1";"[1,2,4]";"2";"0";"1"
"242";"21";"73";"1";"2";"3";"1";"3";"1";"[1,3]";"1";"0";"1"
"243";"8";"73";"1";"3";"4";"1";"3";"0";"[1,2,4]";"1";"0";"1"
"244";"9";"73";"1";"7";"4";"1";"3";"0";"[1,2,3,8]";"1";"0";"1"
"245";"26";"73";"1";"2";"4";"1";"3";"2";"[1,3]";"1";"0";"1"
"246";"38";"73";"1";"5";"3";"1";"3";"0";"[1,2,3,6]";"1";"0";"1"
"247";"12";"11";"1";"4";"1";"1";"3";"2";"[1,2,3,5]";"2";"0";"1"
"248";"7";"73";"1";"4";"2";"1";"3";"2";"[1,2,3,5]";"2";"0";"1"
"249";"23";"11";"1";"6";"1";"1";"3";"0";"[1,2,3,7]";"2";"0";"1"
"250";"27";"73";"1";"3";"2";"1";"3";"2";"[1,2,4]";"2";"0";"1"
"251";"4";"74";"1";"3";"3";"1";"3";"2";"[1,2,4]";"1";"0";"1"
"252";"8";"74";"1";"3";"4";"1";"3";"0";"[1,2,4]";"1";"0";"1"
"253";"9";"74";"1";"7";"4";"1";"3";"0";"[1,2,3,8]";"1";"0";"1"
"254";"17";"12";"1";"1";"1";"1";"3";"0";"[2,3]";"0";"2";"1"
"255";"37";"74";"1";"10";"4";"1";"3";"2";"[1,2,3]";"1";"0";"1"
"256";"23";"12";"1";"6";"1";"1";"3";"0";"[1,2,3,7]";"2";"0";"1"
"257";"27";"74";"1";"3";"2";"1";"3";"2";"[1,2,4]";"2";"0";"1"
"258";"15";"13";"1";"8";"1";"1";"3";"0";"[1,2,3,9]";"2";"0";"1"
"259";"4";"75";"1";"3";"3";"1";"3";"2";"[1,2,4]";"1";"0";"1"
"260";"14";"13";"1";"10";"1";"1";"3";"1";"[1,2,3]";"1";"0";"1"
"261";"37";"75";"1";"10";"4";"1";"3";"2";"[1,2,3]";"1";"0";"1"
"262";"2";"75";"1";"9";"2";"1";"3";"2";"[1,2,3,10]";"2";"0";"1"
"263";"15";"14";"1";"8";"1";"1";"3";"0";"[1,2,3,9]";"2";"0";"1"
"264";"14";"14";"1";"10";"1";"1";"3";"1";"[1,2,3]";"1";"0";"1"
"265";"13";"76";"1";"5";"4";"1";"3";"2";"[1,2,3,6]";"1";"0";"1"
"266";"17";"14";"1";"1";"1";"1";"3";"0";"[2,3]";"0";"3";"1"
"267";"30";"76";"1";"1";"4";"1";"3";"0";"[2,3]";"1";"0";"1"
"268";"2";"76";"1";"9";"2";"1";"3";"2";"[1,2,3,10]";"2";"0";"1"
"269";"13";"77";"1";"5";"4";"1";"3";"2";"[1,2,3,6]";"1";"0";"1"
"270";"10";"77";"1";"4";"3";"1";"3";"0";"[1,2,3,5]";"1";"2";"1"
"271";"39";"77";"1";"8";"4";"1";"3";"2";"[1,2,3,9]";"1";"0";"1"
"272";"25";"77";"1";"6";"3";"1";"3";"0";"[1,2,3,7]";"1";"0";"1"
"273";"30";"77";"1";"1";"4";"1";"3";"0";"[2,3]";"1";"0";"1"
"274";"10";"78";"1";"4";"3";"1";"3";"0";"[1,2,3,5]";"1";"2";"1"
"275";"39";"78";"1";"8";"4";"1";"3";"2";"[1,2,3,9]";"1";"0";"1"
"276";"25";"78";"1";"6";"3";"1";"3";"0";"[1,2,3,7]";"1";"0";"1"
"277";"33";"16";"1";"9";"1";"1";"3";"1";"[1,2,3,10]";"2";"0";"1"
"278";"17";"17";"1";"1";"1";"1";"3";"0";"[2,3]";"2";"3";"1"
"279";"24";"17";"1";"5";"1";"1";"3";"1";"[1,2,3,6]";"2";"0";"1"
"280";"33";"17";"1";"9";"1";"1";"3";"1";"[1,2,3,10]";"2";"0";"1"
"281";"17";"18";"1";"1";"1";"1";"3";"0";"[2,3]";"2";"3";"1"
"282";"24";"18";"1";"5";"1";"1";"3";"1";"[1,2,3,6]";"2";"0";"1"
"283";"19";"80";"1";"9";"3";"1";"3";"0";"[1,2,3,10]";"1";"3";"1"
"284";"40";"80";"1";"1";"2";"1";"3";"1";"[2,3]";"1";"0";"1"
"285";"28";"81";"1";"10";"3";"1";"3";"1";"[1,2,3]";"1";"5";"1"
"286";"19";"81";"1";"9";"3";"1";"3";"0";"[1,2,3,10]";"1";"3";"1"
"287";"40";"81";"1";"1";"2";"1";"3";"1";"[2,3]";"1";"0";"1"
"288";"28";"82";"1";"10";"3";"1";"3";"1";"[1,2,3]";"1";"5";"1"
"289";"18";"25";"1";"2";"1";"1";"3";"1";"[1,3]";"2";"0";"1"
"290";"18";"26";"1";"2";"1";"1";"3";"1";"[1,3]";"2";"0";"1"
"291";"1";"89";"1";"4";"4";"1";"4";"1";"[1,2,3,5]";"1";"0";"1"
"292";"1";"90";"1";"4";"4";"1";"4";"1";"[1,2,3,5]";"1";"0";"1"
"293";"29";"91";"1";"1";"3";"1";"4";"0";"[2,3]";"1";"0";"1"
"294";"15";"3";"1";"8";"1";"1";"4";"0";"[1,2,3,9]";"2";"0";"1"
"295";"6";"3";"1";"7";"1";"1";"4";"0";"[1,2,3,8]";"2";"0";"1"
"296";"21";"92";"1";"2";"3";"1";"4";"1";"[1,3]";"1";"0";"1"
"297";"32";"92";"1";"6";"4";"1";"4";"1";"[1,2,3,7]";"1";"0";"1"
"298";"31";"92";"1";"8";"2";"1";"4";"2";"[1,2,3,9]";"2";"0";"1"
"299";"29";"92";"1";"1";"3";"1";"4";"0";"[2,3]";"1";"0";"1"
"300";"15";"4";"1";"8";"1";"1";"4";"0";"[1,2,3,9]";"2";"0";"1"
"301";"6";"4";"1";"7";"1";"1";"4";"0";"[1,2,3,8]";"2";"0";"1"
"302";"17";"4";"1";"1";"1";"1";"4";"0";"[2,3]";"2";"0";"1"
"303";"20";"93";"1";"6";"2";"1";"4";"2";"[1,2,3,7]";"0";"1";"1"
"304";"12";"5";"1";"4";"1";"1";"4";"2";"[1,2,3,5]";"2";"0";"1"
"305";"37";"93";"1";"10";"4";"1";"4";"2";"[1,2,3]";"1";"0";"1"
"306";"21";"93";"1";"2";"3";"1";"4";"1";"[1,3]";"1";"0";"1"
"307";"32";"93";"1";"6";"4";"1";"4";"1";"[1,2,3,7]";"1";"0";"1"
"308";"31";"93";"1";"8";"2";"1";"4";"2";"[1,2,3,9]";"2";"0";"1"
"309";"22";"93";"1";"7";"3";"1";"4";"1";"[1,2,3,8]";"1";"0";"1"
"310";"8";"93";"1";"3";"4";"1";"4";"0";"[1,2,4]";"1";"0";"1"
"311";"17";"5";"1";"1";"1";"1";"4";"0";"[2,3]";"2";"0";"1"
"312";"20";"94";"1";"6";"2";"1";"4";"2";"[1,2,3,7]";"0";"5";"1"
"313";"34";"94";"1";"7";"2";"1";"4";"2";"[1,2,3,8]";"2";"0";"1"
"314";"12";"6";"1";"4";"1";"1";"4";"2";"[1,2,3,5]";"2";"0";"1"
"315";"37";"94";"1";"10";"4";"1";"4";"2";"[1,2,3]";"1";"0";"1"
"316";"22";"94";"1";"7";"3";"1";"4";"1";"[1,2,3,8]";"1";"0";"1"
"317";"8";"94";"1";"3";"4";"1";"4";"0";"[1,2,4]";"1";"0";"1"
"318";"16";"94";"1";"2";"2";"1";"4";"1";"[1,3]";"2";"0";"1"
"319";"20";"95";"1";"6";"2";"1";"4";"2";"[1,2,3,7]";"2";"5";"1"
"320";"34";"95";"1";"7";"2";"1";"4";"2";"[1,2,3,8]";"2";"0";"1"
"321";"35";"95";"1";"8";"3";"1";"4";"2";"[1,2,3,9]";"2";"0";"1"
"322";"2";"95";"1";"9";"2";"1";"4";"2";"[1,2,3,10]";"0";"6";"1"
"323";"23";"7";"1";"6";"1";"1";"4";"0";"[1,2,3,7]";"2";"0";"1"
"324";"16";"95";"1";"2";"2";"1";"4";"1";"[1,3]";"2";"0";"1"
"325";"13";"96";"1";"5";"4";"1";"4";"2";"[1,2,3,6]";"1";"0";"1"
"326";"20";"96";"1";"6";"2";"1";"4";"2";"[1,2,3,7]";"2";"5";"1"
"327";"19";"96";"1";"9";"3";"1";"4";"0";"[1,2,3,10]";"1";"0";"1"
"328";"35";"96";"1";"8";"3";"1";"4";"2";"[1,2,3,9]";"2";"0";"1"
"329";"9";"96";"1";"7";"4";"1";"4";"0";"[1,2,3,8]";"1";"0";"1"
"330";"23";"8";"1";"6";"1";"1";"4";"0";"[1,2,3,7]";"2";"0";"1"
"331";"24";"8";"1";"5";"1";"1";"4";"1";"[1,2,3,6]";"2";"0";"1"
"332";"13";"97";"1";"5";"4";"1";"4";"2";"[1,2,3,6]";"1";"0";"1"
"333";"19";"97";"1";"9";"3";"1";"4";"0";"[1,2,3,10]";"1";"0";"1"
"334";"9";"97";"1";"7";"4";"1";"4";"0";"[1,2,3,8]";"1";"0";"1"
"335";"7";"97";"1";"4";"2";"1";"4";"2";"[1,2,3,5]";"2";"0";"1"
"336";"24";"9";"1";"5";"1";"1";"4";"1";"[1,2,3,6]";"2";"0";"1"
"337";"2";"97";"1";"9";"2";"1";"4";"2";"[1,2,3,10]";"0";"2";"1"
"338";"5";"97";"1";"5";"2";"1";"4";"0";"[1,2,3,6]";"1";"0";"1"
"339";"10";"97";"1";"4";"3";"1";"4";"0";"[1,2,3,5]";"1";"0";"1"
"340";"30";"98";"1";"1";"4";"1";"4";"0";"[2,3]";"1";"0";"1"
"341";"7";"98";"1";"4";"2";"1";"4";"2";"[1,2,3,5]";"2";"0";"1"
"342";"5";"98";"1";"5";"2";"1";"4";"0";"[1,2,3,6]";"1";"0";"1"
"343";"10";"99";"1";"4";"3";"1";"4";"0";"[1,2,3,5]";"1";"0";"1"
"344";"26";"99";"1";"2";"4";"1";"4";"2";"[1,3]";"2";"0";"1"
"345";"37";"99";"1";"10";"4";"1";"4";"2";"[1,2,3]";"1";"2";"1"
"346";"30";"99";"1";"1";"4";"1";"4";"0";"[2,3]";"1";"0";"1"
"347";"11";"99";"1";"9";"4";"1";"4";"2";"[1,2,3,10]";"2";"0";"1"
"348";"26";"100";"1";"2";"4";"1";"4";"2";"[1,3]";"2";"0";"1"
"349";"37";"100";"1";"10";"4";"1";"4";"2";"[1,2,3]";"1";"1";"1"
"350";"2";"100";"1";"9";"2";"1";"4";"2";"[1,2,3,10]";"0";"3";"1"
"351";"33";"12";"1";"9";"1";"1";"4";"1";"[1,2,3,10]";"2";"0";"1"
"352";"38";"100";"1";"5";"3";"1";"4";"0";"[1,2,3,6]";"1";"0";"1"
"353";"11";"100";"1";"9";"4";"1";"4";"2";"[1,2,3,10]";"2";"0";"1"
"354";"40";"101";"1";"1";"2";"1";"4";"1";"[2,3]";"2";"0";"1"
"355";"33";"13";"1";"9";"1";"1";"4";"1";"[1,2,3,10]";"2";"0";"1"
"356";"2";"101";"1";"9";"2";"1";"4";"2";"[1,2,3,10]";"0";"4";"1"
"357";"38";"101";"1";"5";"3";"1";"4";"0";"[1,2,3,6]";"1";"0";"1"
"358";"40";"102";"1";"1";"2";"1";"4";"1";"[2,3]";"2";"0";"1"
"359";"37";"102";"1";"10";"4";"1";"4";"2";"[1,2,3]";"1";"3";"1"
"360";"4";"102";"1";"3";"3";"1";"4";"2";"[1,2,4]";"1";"0";"1"
"361";"6";"14";"1";"7";"1";"1";"4";"0";"[1,2,3,8]";"2";"1";"1"
"362";"39";"103";"1";"8";"4";"1";"4";"2";"[1,2,3,9]";"1";"0";"1"
"363";"4";"103";"1";"3";"3";"1";"4";"2";"[1,2,4]";"1";"0";"1"
"364";"37";"103";"1";"10";"4";"1";"4";"2";"[1,2,3]";"1";"4";"1"
"365";"36";"104";"1";"10";"2";"1";"4";"2";"[1,2,3]";"2";"0";"1"
"366";"39";"104";"1";"8";"4";"1";"4";"2";"[1,2,3,9]";"1";"0";"1"
"367";"14";"16";"1";"10";"1";"1";"4";"1";"[1,2,3]";"1";"0";"1"
"368";"6";"16";"1";"7";"1";"1";"4";"0";"[1,2,3,8]";"2";"2";"1"
"369";"3";"17";"1";"3";"1";"1";"4";"1";"[1,2,4]";"2";"0";"1"
"370";"36";"105";"1";"10";"2";"1";"4";"2";"[1,2,3]";"2";"0";"1"
"371";"14";"17";"1";"10";"1";"1";"4";"1";"[1,2,3]";"1";"0";"1"
"372";"28";"105";"1";"10";"3";"1";"4";"1";"[1,2,3]";"1";"0";"1"
"373";"27";"105";"1";"3";"2";"1";"4";"2";"[1,2,4]";"2";"0";"1"
"374";"3";"18";"1";"3";"1";"1";"4";"1";"[1,2,4]";"2";"0";"1"
"375";"6";"18";"1";"7";"1";"1";"4";"0";"[1,2,3,8]";"2";"3";"1"
"376";"28";"106";"1";"10";"3";"1";"4";"1";"[1,2,3]";"1";"0";"1"
"377";"27";"106";"1";"3";"2";"1";"4";"2";"[1,2,4]";"2";"0";"1"
"378";"25";"107";"1";"6";"3";"1";"4";"0";"[1,2,3,7]";"1";"0";"1"
"379";"25";"108";"1";"6";"3";"1";"4";"0";"[1,2,3,7]";"1";"0";"1"
"380";"2";"109";"1";"9";"2";"1";"4";"2";"[1,2,3,10]";"2";"4";"1"
"381";"2";"110";"1";"9";"2";"1";"4";"2";"[1,2,3,10]";"2";"4";"1"
"382";"18";"25";"1";"2";"1";"1";"4";"1";"[1,3]";"2";"0";"1"
"383";"18";"26";"1";"2";"1";"1";"4";"1";"[1,3]";"2";"0";"1"
"384";"6";"3";"1";"7";"1";"1";"5";"0";"[1,2,3,8]";"2";"0";"1"
"385";"22";"117";"1";"7";"3";"1";"5";"1";"[1,2,3,8]";"1";"0";"1"
"386";"21";"117";"1";"2";"3";"1";"5";"1";"[1,3]";"1";"0";"1"
"387";"1";"117";"1";"4";"4";"1";"5";"1";"[1,2,3,5]";"1";"0";"1"
"388";"20";"118";"1";"6";"2";"1";"5";"2";"[1,2,3,7]";"2";"0";"1"
"389";"2";"118";"1";"9";"2";"1";"5";"2";"[1,2,3,10]";"2";"0";"1"
"390";"6";"4";"1";"7";"1";"1";"5";"0";"[1,2,3,8]";"2";"0";"1"
"391";"17";"4";"1";"1";"1";"1";"5";"0";"[2,3]";"2";"0";"1"
"392";"22";"118";"1";"7";"3";"1";"5";"1";"[1,2,3,8]";"1";"0";"1"
"393";"21";"118";"1";"2";"3";"1";"5";"1";"[1,3]";"1";"0";"1"
"394";"1";"119";"1";"4";"4";"1";"5";"1";"[1,2,3,5]";"1";"0";"1"
"395";"20";"119";"1";"6";"2";"1";"5";"2";"[1,2,3,7]";"2";"0";"1"
"396";"2";"119";"1";"9";"2";"1";"5";"2";"[1,2,3,10]";"2";"0";"1"
"397";"27";"119";"1";"3";"2";"1";"5";"2";"[1,2,4]";"2";"0";"1"
"398";"17";"5";"1";"1";"1";"1";"5";"0";"[2,3]";"2";"0";"1"
"399";"34";"119";"1";"7";"2";"1";"5";"2";"[1,2,3,8]";"2";"0";"1"
"400";"11";"119";"1";"9";"4";"1";"5";"2";"[1,2,3,10]";"2";"0";"1"
"401";"31";"119";"1";"8";"2";"1";"5";"2";"[1,2,3,9]";"2";"0";"1"
"402";"5";"119";"1";"5";"2";"1";"5";"0";"[1,2,3,6]";"2";"0";"1"
"403";"8";"120";"1";"3";"4";"1";"5";"0";"[1,2,4]";"0";"4";"1"
"404";"27";"120";"1";"3";"2";"1";"5";"2";"[1,2,4]";"2";"0";"1"
"405";"29";"120";"1";"1";"3";"1";"5";"0";"[2,3]";"1";"0";"1"
"406";"34";"120";"1";"7";"2";"1";"5";"2";"[1,2,3,8]";"2";"0";"1"
"407";"12";"6";"1";"4";"1";"1";"5";"2";"[1,2,3,5]";"2";"0";"1"
"408";"11";"120";"1";"9";"4";"1";"5";"2";"[1,2,3,10]";"2";"0";"1"
"409";"25";"120";"1";"6";"3";"1";"5";"0";"[1,2,3,7]";"1";"0";"1"
"410";"35";"120";"1";"8";"3";"1";"5";"2";"[1,2,3,9]";"0";"3";"1"
"411";"31";"120";"1";"8";"2";"1";"5";"2";"[1,2,3,9]";"2";"0";"1"
"412";"5";"120";"1";"5";"2";"1";"5";"0";"[1,2,3,6]";"2";"0";"1"
"413";"23";"7";"1";"6";"1";"1";"5";"0";"[1,2,3,7]";"2";"0";"1"
"414";"29";"121";"1";"1";"3";"1";"5";"0";"[2,3]";"1";"0";"1"
"415";"12";"7";"1";"4";"1";"1";"5";"2";"[1,2,3,5]";"2";"0";"1"
"416";"25";"121";"1";"6";"3";"1";"5";"0";"[1,2,3,7]";"1";"0";"1"
"417";"18";"7";"1";"2";"1";"1";"5";"1";"[1,3]";"1";"0";"1"
"418";"23";"8";"1";"6";"1";"1";"5";"0";"[1,2,3,7]";"2";"0";"1"
"419";"16";"122";"1";"2";"2";"1";"5";"1";"[1,3]";"1";"0";"1"
"420";"39";"122";"1";"8";"4";"1";"5";"2";"[1,2,3,9]";"2";"0";"1"
"421";"18";"8";"1";"2";"1";"1";"5";"1";"[1,3]";"1";"0";"1"
"422";"9";"123";"1";"7";"4";"1";"5";"0";"[1,2,3,8]";"1";"0";"1"
"423";"26";"123";"1";"2";"4";"1";"5";"2";"[1,3]";"2";"0";"1"
"424";"16";"123";"1";"2";"2";"1";"5";"1";"[1,3]";"1";"0";"1"
"425";"14";"9";"1";"10";"1";"1";"5";"1";"[1,2,3]";"1";"0";"1"
"426";"35";"123";"1";"8";"3";"1";"5";"2";"[1,2,3,9]";"0";"1";"1"
"427";"39";"123";"1";"8";"4";"1";"5";"2";"[1,2,3,9]";"2";"0";"1"
"428";"7";"123";"1";"4";"2";"1";"5";"2";"[1,2,3,5]";"2";"0";"1"
"429";"9";"124";"1";"7";"4";"1";"5";"0";"[1,2,3,8]";"1";"0";"1"
"430";"3";"10";"1";"3";"1";"1";"5";"1";"[1,2,4]";"2";"0";"1"
"431";"26";"124";"1";"2";"4";"1";"5";"2";"[1,3]";"2";"0";"1"
"432";"15";"10";"1";"8";"1";"1";"5";"0";"[1,2,3,9]";"2";"0";"1"
"433";"14";"10";"1";"10";"1";"1";"5";"1";"[1,2,3]";"1";"0";"1"
"434";"7";"124";"1";"4";"2";"1";"5";"2";"[1,2,3,5]";"2";"0";"1"
"435";"24";"10";"1";"5";"1";"1";"5";"1";"[1,2,3,6]";"2";"0";"1"
"436";"10";"125";"1";"4";"3";"1";"5";"0";"[1,2,3,5]";"1";"0";"1"
"437";"3";"11";"1";"3";"1";"1";"5";"1";"[1,2,4]";"2";"0";"1"
"438";"15";"11";"1";"8";"1";"1";"5";"0";"[1,2,3,9]";"2";"0";"1"
"439";"24";"11";"1";"5";"1";"1";"5";"1";"[1,2,3,6]";"2";"0";"1"
"440";"35";"126";"1";"8";"3";"1";"5";"2";"[1,2,3,9]";"0";"2";"1"
"441";"10";"126";"1";"4";"3";"1";"5";"0";"[1,2,3,5]";"1";"0";"1"
"442";"38";"126";"1";"5";"3";"1";"5";"0";"[1,2,3,6]";"1";"0";"1"
"443";"13";"127";"1";"5";"4";"1";"5";"2";"[1,2,3,6]";"0";"3";"1"
"444";"38";"127";"1";"5";"3";"1";"5";"0";"[1,2,3,6]";"1";"0";"1"
"445";"35";"127";"1";"8";"3";"1";"5";"2";"[1,2,3,9]";"0";"3";"1"
"446";"36";"128";"1";"10";"2";"1";"5";"2";"[1,2,3]";"2";"0";"1"
"447";"13";"128";"1";"5";"4";"1";"5";"2";"[1,2,3,6]";"0";"2";"1"
"448";"19";"128";"1";"9";"3";"1";"5";"0";"[1,2,3,10]";"1";"0";"1"
"449";"35";"129";"1";"8";"3";"1";"5";"2";"[1,2,3,9]";"0";"4";"1"
"450";"36";"129";"1";"10";"2";"1";"5";"2";"[1,2,3]";"2";"0";"1"
"451";"37";"129";"1";"10";"4";"1";"5";"2";"[1,2,3]";"1";"0";"1"
"452";"19";"129";"1";"9";"3";"1";"5";"0";"[1,2,3,10]";"1";"0";"1"
"453";"13";"129";"1";"5";"4";"1";"5";"2";"[1,2,3,6]";"0";"1";"1"
"454";"32";"130";"1";"6";"4";"1";"5";"1";"[1,2,3,7]";"1";"0";"1"
"455";"8";"130";"1";"3";"4";"1";"5";"0";"[1,2,4]";"1";"4";"1"
"456";"37";"130";"1";"10";"4";"1";"5";"2";"[1,2,3]";"1";"0";"1"
"457";"32";"131";"1";"6";"4";"1";"5";"1";"[1,2,3,7]";"1";"0";"1"
"458";"8";"131";"1";"3";"4";"1";"5";"0";"[1,2,4]";"1";"4";"1"
"459";"13";"131";"1";"5";"4";"1";"5";"2";"[1,2,3,6]";"0";"3";"1"
"460";"33";"18";"1";"9";"1";"1";"5";"1";"[1,2,3,10]";"2";"0";"1"
"461";"13";"133";"1";"5";"4";"1";"5";"2";"[1,2,3,6]";"0";"4";"1"
"462";"28";"133";"1";"10";"3";"1";"5";"1";"[1,2,3]";"1";"0";"1"
"463";"33";"19";"1";"9";"1";"1";"5";"1";"[1,2,3,10]";"2";"0";"1"
"464";"28";"134";"1";"10";"3";"1";"5";"1";"[1,2,3]";"1";"0";"1"
"465";"37";"134";"1";"10";"4";"1";"5";"2";"[1,2,3]";"1";"3";"1"
"466";"30";"135";"1";"1";"4";"1";"5";"0";"[2,3]";"2";"0";"1"
"467";"13";"135";"1";"5";"4";"1";"5";"2";"[1,2,3,6]";"0";"5";"1"
"468";"30";"136";"1";"1";"4";"1";"5";"0";"[2,3]";"2";"0";"1"
"469";"13";"136";"1";"5";"4";"1";"5";"2";"[1,2,3,6]";"1";"5";"1"
"470";"4";"137";"1";"3";"3";"1";"5";"2";"[1,2,4]";"1";"0";"1"
"471";"13";"137";"1";"5";"4";"1";"5";"2";"[1,2,3,6]";"1";"5";"1"
"472";"37";"137";"1";"10";"4";"1";"5";"2";"[1,2,3]";"1";"2";"1"
"473";"4";"138";"1";"3";"3";"1";"5";"2";"[1,2,4]";"1";"0";"1"
"474";"37";"139";"1";"10";"4";"1";"5";"2";"[1,2,3]";"1";"3";"1"
"475";"40";"140";"1";"1";"2";"1";"5";"1";"[2,3]";"1";"0";"1"
"476";"37";"141";"1";"10";"4";"1";"5";"2";"[1,2,3]";"1";"4";"1"
"477";"35";"141";"1";"8";"3";"1";"5";"2";"[1,2,3,9]";"1";"4";"1"
"478";"40";"141";"1";"1";"2";"1";"5";"1";"[2,3]";"1";"0";"1"
"479";"11";"141";"1";"9";"4";"1";"5";"2";"[1,2,3,10]";"2";"1";"1"
"480";"35";"142";"1";"8";"3";"1";"5";"2";"[1,2,3,9]";"1";"4";"1"
"481";"1";"143";"1";"4";"4";"1";"6";"1";"[1,2,3,5]";"1";"0";"1"
"482";"1";"144";"1";"4";"4";"1";"6";"1";"[1,2,3,5]";"1";"0";"1"
"483";"5";"144";"1";"5";"2";"1";"6";"0";"[1,2,3,6]";"2";"0";"1"
"484";"22";"144";"1";"7";"3";"1";"6";"1";"[1,2,3,8]";"1";"0";"1"
"485";"5";"145";"1";"5";"2";"1";"6";"0";"[1,2,3,6]";"2";"0";"1"
"486";"15";"3";"1";"8";"1";"1";"6";"0";"[1,2,3,9]";"2";"0";"1"
"487";"22";"145";"1";"7";"3";"1";"6";"1";"[1,2,3,8]";"1";"0";"1"
"488";"21";"145";"1";"2";"3";"1";"6";"1";"[1,3]";"1";"0";"1"
"489";"8";"146";"1";"3";"4";"1";"6";"0";"[1,2,4]";"2";"0";"1"
"490";"15";"4";"1";"8";"1";"1";"6";"0";"[1,2,3,9]";"2";"0";"1"
"491";"16";"146";"1";"2";"2";"1";"6";"1";"[1,3]";"1";"0";"1"
"492";"21";"146";"1";"2";"3";"1";"6";"1";"[1,3]";"1";"0";"1"
"493";"27";"147";"1";"3";"2";"1";"6";"2";"[1,2,4]";"1";"0";"1"
"494";"11";"147";"1";"9";"4";"1";"6";"2";"[1,2,3,10]";"2";"0";"1"
"495";"8";"147";"1";"3";"4";"1";"6";"0";"[1,2,4]";"2";"0";"1"
"496";"16";"147";"1";"2";"2";"1";"6";"1";"[1,3]";"1";"0";"1"
"497";"3";"5";"1";"3";"1";"1";"6";"1";"[1,2,4]";"1";"0";"1"
"498";"25";"148";"1";"6";"3";"1";"6";"0";"[1,2,3,7]";"1";"0";"1"
"499";"27";"148";"1";"3";"2";"1";"6";"2";"[1,2,4]";"1";"0";"1"
"500";"28";"148";"1";"10";"3";"1";"6";"1";"[1,2,3]";"0";"4";"1"
"501";"20";"148";"1";"6";"2";"1";"6";"2";"[1,2,3,7]";"2";"0";"1"
"502";"10";"148";"1";"4";"3";"1";"6";"0";"[1,2,3,5]";"1";"0";"1"
"503";"11";"148";"1";"9";"4";"1";"6";"2";"[1,2,3,10]";"2";"0";"1"
"504";"34";"148";"1";"7";"2";"1";"6";"2";"[1,2,3,8]";"2";"0";"1"
"505";"35";"148";"1";"8";"3";"1";"6";"2";"[1,2,3,9]";"2";"0";"1"
"506";"3";"6";"1";"3";"1";"1";"6";"1";"[1,2,4]";"1";"0";"1"
"507";"31";"148";"1";"8";"2";"1";"6";"2";"[1,2,3,9]";"2";"0";"1"
"508";"17";"6";"1";"1";"1";"1";"6";"0";"[2,3]";"2";"0";"1"
"509";"25";"149";"1";"6";"3";"1";"6";"0";"[1,2,3,7]";"1";"0";"1"
"510";"28";"149";"1";"10";"3";"1";"6";"1";"[1,2,3]";"0";"8";"1"
"511";"11";"149";"1";"9";"4";"1";"6";"2";"[1,2,3,10]";"2";"4";"1"
"512";"14";"7";"1";"10";"1";"1";"6";"1";"[1,2,3]";"1";"0";"1"
"513";"20";"149";"1";"6";"2";"1";"6";"2";"[1,2,3,7]";"2";"0";"1"
"514";"10";"149";"1";"4";"3";"1";"6";"0";"[1,2,3,5]";"1";"0";"1"
"515";"34";"149";"1";"7";"2";"1";"6";"2";"[1,2,3,8]";"2";"0";"1"
"516";"35";"149";"1";"8";"3";"1";"6";"2";"[1,2,3,9]";"2";"0";"1"
"517";"31";"149";"1";"8";"2";"1";"6";"2";"[1,2,3,9]";"2";"0";"1"
"518";"17";"7";"1";"1";"1";"1";"6";"0";"[2,3]";"2";"0";"1"
"519";"4";"150";"1";"3";"3";"1";"6";"2";"[1,2,4]";"1";"0";"1"
"520";"11";"150";"1";"9";"4";"1";"6";"2";"[1,2,3,10]";"2";"2";"1"
"521";"14";"8";"1";"10";"1";"1";"6";"1";"[1,2,3]";"1";"0";"1"
"522";"4";"151";"1";"3";"3";"1";"6";"2";"[1,2,4]";"1";"0";"1"
"523";"11";"151";"1";"9";"4";"1";"6";"2";"[1,2,3,10]";"2";"1";"1"
"524";"19";"151";"1";"9";"3";"1";"6";"0";"[1,2,3,10]";"0";"1";"1"
"525";"23";"10";"1";"6";"1";"1";"6";"0";"[1,2,3,7]";"2";"0";"1"
"526";"40";"153";"1";"1";"2";"1";"6";"1";"[2,3]";"1";"0";"1"
"527";"6";"11";"1";"7";"1";"1";"6";"0";"[1,2,3,8]";"2";"0";"1"
"528";"23";"11";"1";"6";"1";"1";"6";"0";"[1,2,3,7]";"2";"0";"1"
"529";"28";"153";"1";"10";"3";"1";"6";"1";"[1,2,3]";"1";"8";"1"
"530";"7";"154";"1";"4";"2";"1";"6";"2";"[1,2,3,5]";"2";"0";"1"
"531";"40";"154";"1";"1";"2";"1";"6";"1";"[2,3]";"1";"0";"1"
"532";"6";"12";"1";"7";"1";"1";"6";"0";"[1,2,3,8]";"2";"0";"1"
"533";"19";"154";"1";"9";"3";"1";"6";"0";"[1,2,3,10]";"0";"7";"1"
"534";"11";"154";"1";"9";"4";"1";"6";"2";"[1,2,3,10]";"2";"5";"1"
"535";"28";"154";"1";"10";"3";"1";"6";"1";"[1,2,3]";"1";"8";"1"
"536";"37";"155";"1";"10";"4";"1";"6";"2";"[1,2,3]";"1";"0";"1"
"537";"7";"155";"1";"4";"2";"1";"6";"2";"[1,2,3,5]";"2";"0";"1"
"538";"11";"155";"1";"9";"4";"1";"6";"2";"[1,2,3,10]";"2";"6";"1"
"539";"13";"155";"1";"5";"4";"1";"6";"2";"[1,2,3,6]";"1";"0";"1"
"540";"39";"155";"1";"8";"4";"1";"6";"2";"[1,2,3,9]";"2";"0";"1"
"541";"37";"156";"1";"10";"4";"1";"6";"2";"[1,2,3]";"1";"0";"1"
"542";"13";"156";"1";"5";"4";"1";"6";"2";"[1,2,3,6]";"1";"0";"1"
"543";"39";"156";"1";"8";"4";"1";"6";"2";"[1,2,3,9]";"2";"0";"1"
"544";"2";"156";"1";"9";"2";"1";"6";"2";"[1,2,3,10]";"1";"0";"1"
"545";"2";"157";"1";"9";"2";"1";"6";"2";"[1,2,3,10]";"1";"0";"1"
"546";"12";"17";"1";"4";"1";"1";"6";"2";"[1,2,3,5]";"2";"0";"1"
"547";"12";"18";"1";"4";"1";"1";"6";"2";"[1,2,3,5]";"2";"0";"1"
"548";"36";"163";"1";"10";"2";"1";"6";"2";"[1,2,3]";"1";"0";"1"
"549";"32";"163";"1";"6";"4";"1";"6";"1";"[1,2,3,7]";"1";"0";"1"
"550";"9";"163";"1";"7";"4";"1";"6";"0";"[1,2,3,8]";"1";"0";"1"
"551";"36";"164";"1";"10";"2";"1";"6";"2";"[1,2,3]";"1";"0";"1"
"552";"32";"164";"1";"6";"4";"1";"6";"1";"[1,2,3,7]";"1";"0";"1"
"553";"9";"164";"1";"7";"4";"1";"6";"0";"[1,2,3,8]";"1";"0";"1"
"554";"26";"164";"1";"2";"4";"1";"6";"2";"[1,3]";"2";"0";"1"
"555";"30";"165";"1";"1";"4";"1";"6";"0";"[2,3]";"2";"0";"1"
"556";"24";"23";"1";"5";"1";"1";"6";"1";"[1,2,3,6]";"2";"0";"1"
"557";"26";"165";"1";"2";"4";"1";"6";"2";"[1,3]";"2";"0";"1"
"558";"19";"166";"1";"9";"3";"1";"6";"0";"[1,2,3,10]";"1";"7";"1"
"559";"30";"166";"1";"1";"4";"1";"6";"0";"[2,3]";"2";"0";"1"
"560";"24";"24";"1";"5";"1";"1";"6";"1";"[1,2,3,6]";"2";"0";"1"
"561";"19";"167";"1";"9";"3";"1";"6";"0";"[1,2,3,10]";"1";"7";"1"
"562";"29";"168";"1";"1";"3";"1";"6";"0";"[2,3]";"1";"0";"1"
"563";"33";"26";"1";"9";"1";"1";"6";"1";"[1,2,3,10]";"1";"0";"1"
"564";"18";"26";"1";"2";"1";"1";"6";"1";"[1,3]";"1";"0";"1"
"565";"29";"169";"1";"1";"3";"1";"6";"0";"[2,3]";"1";"0";"1"
"566";"33";"27";"1";"9";"1";"1";"6";"1";"[1,2,3,10]";"1";"0";"1"
"567";"18";"27";"1";"2";"1";"1";"6";"1";"[1,3]";"1";"0";"1"
"568";"38";"173";"1";"5";"3";"1";"6";"0";"[1,2,3,6]";"0";"0";"1"
"569";"0";"30";"1";"5";"3";"1";"6";"0";"[1,2,3,6]";"1";"0";"0"
"570";"21";"174";"1";"2";"3";"1";"7";"1";"[1,3]";"1";"0";"1"
"571";"5";"175";"1";"5";"2";"1";"7";"0";"[1,2,3,6]";"1";"0";"1"
"572";"22";"175";"1";"7";"3";"1";"7";"1";"[1,2,3,8]";"1";"0";"1"
"573";"11";"175";"1";"9";"4";"1";"7";"2";"[1,2,3,10]";"2";"0";"1"
"574";"21";"175";"1";"2";"3";"1";"7";"1";"[1,3]";"1";"0";"1"
"575";"8";"176";"1";"3";"4";"1";"7";"0";"[1,2,4]";"2";"0";"1"
"576";"31";"176";"1";"8";"2";"1";"7";"2";"[1,2,3,9]";"1";"0";"1"
"577";"5";"176";"1";"5";"2";"1";"7";"0";"[1,2,3,6]";"1";"0";"1"
"578";"22";"176";"1";"7";"3";"1";"7";"1";"[1,2,3,8]";"1";"0";"1"
"579";"11";"176";"1";"9";"4";"1";"7";"2";"[1,2,3,10]";"2";"0";"1"
"580";"33";"3";"1";"9";"1";"1";"7";"1";"[1,2,3,10]";"1";"0";"1"
"581";"16";"176";"1";"2";"2";"1";"7";"1";"[1,3]";"2";"0";"1"
"582";"9";"176";"1";"7";"4";"1";"7";"0";"[1,2,3,8]";"2";"0";"1"
"583";"1";"176";"1";"4";"4";"1";"7";"1";"[1,2,3,5]";"1";"0";"1"
"584";"15";"4";"1";"8";"1";"1";"7";"0";"[1,2,3,9]";"2";"0";"1"
"585";"8";"177";"1";"3";"4";"1";"7";"0";"[1,2,4]";"2";"0";"1"
"586";"31";"177";"1";"8";"2";"1";"7";"2";"[1,2,3,9]";"1";"0";"1"
"587";"29";"177";"1";"1";"3";"1";"7";"0";"[2,3]";"1";"0";"1"
"588";"33";"4";"1";"9";"1";"1";"7";"1";"[1,2,3,10]";"1";"0";"1"
"589";"16";"177";"1";"2";"2";"1";"7";"1";"[1,3]";"2";"0";"1"
"590";"1";"177";"1";"4";"4";"1";"7";"1";"[1,2,3,5]";"1";"0";"1"
"591";"9";"177";"1";"7";"4";"1";"7";"0";"[1,2,3,8]";"2";"0";"1"
"592";"15";"5";"1";"8";"1";"1";"7";"0";"[1,2,3,9]";"2";"0";"1"
"593";"2";"178";"1";"9";"2";"1";"7";"2";"[1,2,3,10]";"1";"0";"1"
"594";"17";"5";"1";"1";"1";"1";"7";"0";"[2,3]";"2";"0";"1"
"595";"37";"178";"1";"10";"4";"1";"7";"2";"[1,2,3]";"0";"5";"1"
"596";"38";"178";"1";"5";"3";"1";"7";"0";"[1,2,3,6]";"1";"0";"1"
"597";"29";"178";"1";"1";"3";"1";"7";"0";"[2,3]";"1";"0";"1"
"598";"13";"178";"1";"5";"4";"1";"7";"2";"[1,2,3,6]";"2";"0";"1"
"599";"2";"179";"1";"9";"2";"1";"7";"2";"[1,2,3,10]";"1";"0";"1"
"600";"34";"179";"1";"7";"2";"1";"7";"2";"[1,2,3,8]";"0";"5";"1"
"601";"17";"6";"1";"1";"1";"1";"7";"0";"[2,3]";"2";"0";"1"
"602";"38";"179";"1";"5";"3";"1";"7";"0";"[1,2,3,6]";"1";"0";"1"
"603";"14";"6";"1";"10";"1";"1";"7";"1";"[1,2,3]";"1";"0";"1"
"604";"13";"179";"1";"5";"4";"1";"7";"2";"[1,2,3,6]";"2";"0";"1"
"605";"6";"6";"1";"7";"1";"1";"7";"0";"[1,2,3,8]";"2";"0";"1"
"606";"37";"180";"1";"10";"4";"1";"7";"2";"[1,2,3]";"0";"6";"1"
"607";"34";"180";"1";"7";"2";"1";"7";"2";"[1,2,3,8]";"0";"4";"1"
"608";"20";"180";"1";"6";"2";"1";"7";"2";"[1,2,3,7]";"2";"0";"1"
"609";"14";"7";"1";"10";"1";"1";"7";"1";"[1,2,3]";"1";"0";"1"
"610";"6";"7";"1";"7";"1";"1";"7";"0";"[1,2,3,8]";"2";"0";"1"
"611";"34";"181";"1";"7";"2";"1";"7";"2";"[1,2,3,8]";"0";"2";"1"
"612";"20";"181";"1";"6";"2";"1";"7";"2";"[1,2,3,7]";"2";"0";"1"
"613";"34";"182";"1";"7";"2";"1";"7";"2";"[1,2,3,8]";"0";"1";"1"
"614";"4";"182";"1";"3";"3";"1";"7";"2";"[1,2,4]";"1";"0";"1"
"615";"39";"183";"1";"8";"4";"1";"7";"2";"[1,2,3,9]";"1";"0";"1"
"616";"37";"183";"1";"10";"4";"1";"7";"2";"[1,2,3]";"1";"6";"1"
"617";"4";"183";"1";"3";"3";"1";"7";"2";"[1,2,4]";"1";"0";"1"
"618";"34";"184";"1";"7";"2";"1";"7";"2";"[1,2,3,8]";"0";"6";"1"
"619";"39";"184";"1";"8";"4";"1";"7";"2";"[1,2,3,9]";"1";"0";"1"
"620";"37";"184";"1";"10";"4";"1";"7";"2";"[1,2,3]";"1";"6";"1"
"621";"24";"11";"1";"5";"1";"1";"7";"1";"[1,2,3,6]";"0";"5";"1"
"622";"3";"11";"1";"3";"1";"1";"7";"1";"[1,2,4]";"1";"0";"1"
"623";"10";"185";"1";"4";"3";"1";"7";"0";"[1,2,3,5]";"1";"0";"1"
"624";"7";"185";"1";"4";"2";"1";"7";"2";"[1,2,3,5]";"1";"0";"1"
"625";"3";"12";"1";"3";"1";"1";"7";"1";"[1,2,4]";"1";"0";"1"
"626";"10";"186";"1";"4";"3";"1";"7";"0";"[1,2,3,5]";"1";"0";"1"
"627";"7";"186";"1";"4";"2";"1";"7";"2";"[1,2,3,5]";"1";"0";"1"
"628";"34";"186";"1";"7";"2";"1";"7";"2";"[1,2,3,8]";"0";"8";"1"
"629";"37";"187";"1";"10";"4";"1";"7";"2";"[1,2,3]";"1";"2";"1"
"630";"23";"14";"1";"6";"1";"1";"7";"0";"[1,2,3,7]";"2";"0";"1"
"631";"28";"188";"1";"10";"3";"1";"7";"1";"[1,2,3]";"1";"0";"1"
"632";"27";"188";"1";"3";"2";"1";"7";"2";"[1,2,4]";"2";"0";"1"
"633";"23";"15";"1";"6";"1";"1";"7";"0";"[1,2,3,7]";"2";"0";"1"
"634";"37";"188";"1";"10";"4";"1";"7";"2";"[1,2,3]";"1";"3";"1"
"635";"34";"189";"1";"7";"2";"1";"7";"2";"[1,2,3,8]";"2";"8";"1"
"636";"28";"189";"1";"10";"3";"1";"7";"1";"[1,2,3]";"1";"0";"1"
"637";"27";"189";"1";"3";"2";"1";"7";"2";"[1,2,4]";"2";"0";"1"
"638";"34";"190";"1";"7";"2";"1";"7";"2";"[1,2,3,8]";"2";"8";"1"
"639";"18";"17";"1";"2";"1";"1";"7";"1";"[1,3]";"2";"0";"1"
"640";"26";"190";"1";"2";"4";"1";"7";"2";"[1,3]";"2";"0";"1"
"641";"12";"17";"1";"4";"1";"1";"7";"2";"[1,2,3,5]";"2";"0";"1"
"642";"18";"18";"1";"2";"1";"1";"7";"1";"[1,3]";"2";"0";"1"
"643";"37";"191";"1";"10";"4";"1";"7";"2";"[1,2,3]";"1";"4";"1"
"644";"26";"191";"1";"2";"4";"1";"7";"2";"[1,3]";"2";"0";"1"
"645";"12";"18";"1";"4";"1";"1";"7";"2";"[1,2,3,5]";"2";"0";"1"
"646";"30";"192";"1";"1";"4";"1";"7";"0";"[2,3]";"2";"0";"1"
"647";"37";"193";"1";"10";"4";"1";"7";"2";"[1,2,3]";"1";"5";"1"
"648";"40";"193";"1";"1";"2";"1";"7";"1";"[2,3]";"1";"0";"1"
"649";"30";"193";"1";"1";"4";"1";"7";"0";"[2,3]";"2";"0";"1"
"650";"19";"194";"1";"9";"3";"1";"7";"0";"[1,2,3,10]";"1";"0";"1"
"651";"40";"194";"1";"1";"2";"1";"7";"1";"[2,3]";"1";"0";"1"
"652";"37";"195";"1";"10";"4";"1";"7";"2";"[1,2,3]";"1";"6";"1"
"653";"19";"195";"1";"9";"3";"1";"7";"0";"[1,2,3,10]";"1";"0";"1"
"654";"36";"197";"1";"10";"2";"1";"7";"2";"[1,2,3]";"1";"0";"1"
"655";"24";"24";"1";"5";"1";"1";"7";"1";"[1,2,3,6]";"2";"5";"1"
"656";"25";"198";"1";"6";"3";"1";"7";"0";"[1,2,3,7]";"1";"0";"1"
"657";"32";"198";"1";"6";"4";"1";"7";"1";"[1,2,3,7]";"2";"0";"1"
"658";"36";"198";"1";"10";"2";"1";"7";"2";"[1,2,3]";"1";"0";"1"
"659";"24";"25";"1";"5";"1";"1";"7";"1";"[1,2,3,6]";"2";"5";"1"
"660";"35";"199";"1";"8";"3";"1";"7";"2";"[1,2,3,9]";"2";"0";"1"
"661";"25";"199";"1";"6";"3";"1";"7";"0";"[1,2,3,7]";"1";"0";"1"
"662";"32";"199";"1";"6";"4";"1";"7";"1";"[1,2,3,7]";"2";"0";"1"
"663";"37";"199";"1";"10";"4";"1";"7";"2";"[1,2,3]";"1";"7";"1"
"664";"35";"200";"1";"8";"3";"1";"7";"2";"[1,2,3,9]";"2";"0";"1"
"665";"15";"1";"1";"8";"1";"1";"8";"0";"[1,2,3,9]";"2";"0";"1"
"666";"1";"201";"1";"4";"4";"1";"8";"1";"[1,2,3,5]";"1";"0";"1"
"667";"21";"201";"1";"2";"3";"1";"8";"1";"[1,3]";"1";"0";"1"
"668";"17";"1";"1";"1";"1";"1";"8";"0";"[2,3]";"2";"0";"1"
"669";"20";"201";"1";"6";"2";"1";"8";"2";"[1,2,3,7]";"2";"0";"1"
"670";"15";"2";"1";"8";"1";"1";"8";"0";"[1,2,3,9]";"2";"0";"1"
"671";"11";"202";"1";"9";"4";"1";"8";"2";"[1,2,3,10]";"2";"0";"1"
"672";"33";"2";"1";"9";"1";"1";"8";"1";"[1,2,3,10]";"1";"0";"1"
"673";"1";"202";"1";"4";"4";"1";"8";"1";"[1,2,3,5]";"1";"0";"1"
"674";"31";"202";"1";"8";"2";"1";"8";"2";"[1,2,3,9]";"1";"0";"1"
"675";"21";"202";"1";"2";"3";"1";"8";"1";"[1,3]";"1";"0";"1"
"676";"17";"2";"1";"1";"1";"1";"8";"0";"[2,3]";"2";"0";"1"
"677";"20";"202";"1";"6";"2";"1";"8";"2";"[1,2,3,7]";"2";"0";"1"
"678";"11";"203";"1";"9";"4";"1";"8";"2";"[1,2,3,10]";"2";"0";"1"
"679";"22";"203";"1";"7";"3";"1";"8";"1";"[1,2,3,8]";"1";"0";"1"
"680";"33";"3";"1";"9";"1";"1";"8";"1";"[1,2,3,10]";"1";"0";"1"
"681";"36";"203";"1";"10";"2";"1";"8";"2";"[1,2,3]";"2";"0";"1"
"682";"37";"203";"1";"10";"4";"1";"8";"2";"[1,2,3]";"1";"0";"1"
"683";"38";"203";"1";"5";"3";"1";"8";"0";"[1,2,3,6]";"1";"0";"1"
"684";"8";"203";"1";"3";"4";"1";"8";"0";"[1,2,4]";"2";"0";"1"
"685";"31";"203";"1";"8";"2";"1";"8";"2";"[1,2,3,9]";"1";"0";"1"
"686";"34";"203";"1";"7";"2";"1";"8";"2";"[1,2,3,8]";"2";"0";"1"
"687";"5";"203";"1";"5";"2";"1";"8";"0";"[1,2,3,6]";"2";"0";"1"
"688";"22";"204";"1";"7";"3";"1";"8";"1";"[1,2,3,8]";"1";"0";"1"
"689";"36";"204";"1";"10";"2";"1";"8";"2";"[1,2,3]";"2";"0";"1"
"690";"37";"204";"1";"10";"4";"1";"8";"2";"[1,2,3]";"1";"0";"1"
"691";"38";"204";"1";"5";"3";"1";"8";"0";"[1,2,3,6]";"1";"0";"1"
"692";"12";"4";"1";"4";"1";"1";"8";"2";"[1,2,3,5]";"2";"0";"1"
"693";"8";"204";"1";"3";"4";"1";"8";"0";"[1,2,4]";"2";"0";"1"
"694";"10";"204";"1";"4";"3";"1";"8";"0";"[1,2,3,5]";"1";"0";"1"
"695";"34";"204";"1";"7";"2";"1";"8";"2";"[1,2,3,8]";"2";"0";"1"
"696";"5";"205";"1";"5";"2";"1";"8";"0";"[1,2,3,6]";"2";"0";"1"
"697";"25";"205";"1";"6";"3";"1";"8";"0";"[1,2,3,7]";"1";"0";"1"
"698";"23";"5";"1";"6";"1";"1";"8";"0";"[1,2,3,7]";"1";"0";"1"
"699";"12";"5";"1";"4";"1";"1";"8";"2";"[1,2,3,5]";"2";"0";"1"
"700";"10";"205";"1";"4";"3";"1";"8";"0";"[1,2,3,5]";"1";"0";"1"
"701";"16";"205";"1";"2";"2";"1";"8";"1";"[1,3]";"2";"0";"1"
"702";"25";"206";"1";"6";"3";"1";"8";"0";"[1,2,3,7]";"1";"0";"1"
"703";"23";"6";"1";"6";"1";"1";"8";"0";"[1,2,3,7]";"1";"0";"1"
"704";"6";"6";"1";"7";"1";"1";"8";"0";"[1,2,3,8]";"2";"0";"1"
"705";"37";"206";"1";"10";"4";"1";"8";"2";"[1,2,3]";"1";"6";"1"
"706";"16";"206";"1";"2";"2";"1";"8";"1";"[1,3]";"2";"0";"1"
"707";"26";"207";"1";"2";"4";"1";"8";"2";"[1,3]";"2";"0";"1"
"708";"6";"7";"1";"7";"1";"1";"8";"0";"[1,2,3,8]";"2";"0";"1"
"709";"37";"207";"1";"10";"4";"1";"8";"2";"[1,2,3]";"1";"5";"1"
"710";"26";"208";"1";"2";"4";"1";"8";"2";"[1,3]";"2";"0";"1"
"711";"32";"208";"1";"6";"4";"1";"8";"1";"[1,2,3,7]";"2";"0";"1"
"712";"7";"208";"1";"4";"2";"1";"8";"2";"[1,2,3,5]";"2";"0";"1"
"713";"24";"8";"1";"5";"1";"1";"8";"1";"[1,2,3,6]";"2";"0";"1"
"714";"32";"209";"1";"6";"4";"1";"8";"1";"[1,2,3,7]";"2";"0";"1"
"715";"37";"209";"1";"10";"4";"1";"8";"2";"[1,2,3]";"1";"6";"1"
"716";"7";"209";"1";"4";"2";"1";"8";"2";"[1,2,3,5]";"2";"0";"1"
"717";"2";"209";"1";"9";"2";"1";"8";"2";"[1,2,3,10]";"1";"0";"1"
"718";"24";"10";"1";"5";"1";"1";"8";"1";"[1,2,3,6]";"2";"0";"1"
"719";"37";"210";"1";"10";"4";"1";"8";"2";"[1,2,3]";"1";"7";"1"
"720";"27";"210";"1";"3";"2";"1";"8";"2";"[1,2,4]";"2";"0";"1"
"721";"13";"210";"1";"5";"4";"1";"8";"2";"[1,2,3,6]";"2";"0";"1"
"722";"2";"210";"1";"9";"2";"1";"8";"2";"[1,2,3,10]";"1";"0";"1"
"723";"27";"211";"1";"3";"2";"1";"8";"2";"[1,2,4]";"2";"0";"1"
"724";"13";"211";"1";"5";"4";"1";"8";"2";"[1,2,3,6]";"2";"0";"1"
"725";"40";"211";"1";"1";"2";"1";"8";"1";"[2,3]";"1";"0";"1"
"726";"19";"212";"1";"9";"3";"1";"8";"0";"[1,2,3,10]";"2";"0";"1"
"727";"14";"12";"1";"10";"1";"1";"8";"1";"[1,2,3]";"1";"0";"1"
"728";"40";"212";"1";"1";"2";"1";"8";"1";"[2,3]";"1";"0";"1"
"729";"28";"213";"1";"10";"3";"1";"8";"1";"[1,2,3]";"1";"0";"1"
"730";"19";"213";"1";"9";"3";"1";"8";"0";"[1,2,3,10]";"2";"0";"1"
"731";"14";"13";"1";"10";"1";"1";"8";"1";"[1,2,3]";"1";"0";"1"
"732";"28";"214";"1";"10";"3";"1";"8";"1";"[1,2,3]";"1";"0";"1"
"733";"35";"214";"1";"8";"3";"1";"8";"2";"[1,2,3,9]";"1";"0";"1"
"734";"35";"215";"1";"8";"3";"1";"8";"2";"[1,2,3,9]";"1";"0";"1"
"735";"39";"217";"1";"8";"4";"1";"8";"2";"[1,2,3,9]";"2";"0";"1"
"736";"39";"218";"1";"8";"4";"1";"8";"2";"[1,2,3,9]";"2";"0";"1"
"737";"3";"22";"1";"3";"1";"1";"8";"1";"[1,2,4]";"2";"0";"1"
"738";"3";"23";"1";"3";"1";"1";"8";"1";"[1,2,4]";"2";"0";"1"
"739";"4";"223";"1";"3";"3";"1";"8";"2";"[1,2,4]";"1";"0";"1"
"740";"4";"224";"1";"3";"3";"1";"8";"2";"[1,2,4]";"1";"0";"1"
"741";"29";"225";"1";"1";"3";"1";"8";"0";"[2,3]";"1";"0";"1"
"742";"29";"226";"1";"1";"3";"1";"8";"0";"[2,3]";"1";"0";"1"
"743";"9";"226";"1";"7";"4";"1";"8";"0";"[1,2,3,8]";"2";"0";"1"
"744";"18";"26";"1";"2";"1";"1";"8";"1";"[1,3]";"2";"0";"1"
"745";"9";"227";"1";"7";"4";"1";"8";"0";"[1,2,3,8]";"2";"0";"1"
"746";"18";"27";"1";"2";"1";"1";"8";"1";"[1,3]";"2";"0";"1"
"747";"30";"230";"1";"1";"4";"1";"8";"0";"[2,3]";"0";"0";"1"
"748";"0";"30";"1";"1";"4";"1";"8";"0";"[2,3]";"2";"0";"0"
"749";"5";"232";"1";"5";"2";"1";"9";"0";"[1,2,3,6]";"2";"0";"1"
"750";"6";"2";"1";"7";"1";"1";"9";"0";"[1,2,3,8]";"2";"0";"1"
"751";"34";"232";"1";"7";"2";"1";"9";"2";"[1,2,3,8]";"2";"0";"1"
"752";"21";"232";"1";"2";"3";"1";"9";"1";"[1,3]";"1";"0";"1"
"753";"22";"232";"1";"7";"3";"1";"9";"1";"[1,2,3,8]";"1";"0";"1"
"754";"11";"232";"1";"9";"4";"1";"9";"2";"[1,2,3,10]";"2";"0";"1"
"755";"1";"232";"1";"4";"4";"1";"9";"1";"[1,2,3,5]";"1";"0";"1"
"756";"38";"232";"1";"5";"3";"1";"9";"0";"[1,2,3,6]";"1";"0";"1"
"757";"15";"2";"1";"8";"1";"1";"9";"0";"[1,2,3,9]";"2";"0";"1"
"758";"17";"3";"1";"1";"1";"1";"9";"0";"[2,3]";"2";"0";"1"
"759";"20";"233";"1";"6";"2";"1";"9";"2";"[1,2,3,7]";"2";"0";"1"
"760";"31";"233";"1";"8";"2";"1";"9";"2";"[1,2,3,9]";"1";"0";"1"
"761";"5";"233";"1";"5";"2";"1";"9";"0";"[1,2,3,6]";"2";"0";"1"
"762";"6";"3";"1";"7";"1";"1";"9";"0";"[1,2,3,8]";"2";"0";"1"
"763";"34";"233";"1";"7";"2";"1";"9";"2";"[1,2,3,8]";"2";"0";"1"
"764";"21";"233";"1";"2";"3";"1";"9";"1";"[1,3]";"1";"0";"1"
"765";"22";"233";"1";"7";"3";"1";"9";"1";"[1,2,3,8]";"1";"0";"1"
"766";"13";"233";"1";"5";"4";"1";"9";"2";"[1,2,3,6]";"2";"0";"1"
"767";"11";"233";"1";"9";"4";"1";"9";"2";"[1,2,3,10]";"2";"0";"1"
"768";"37";"233";"1";"10";"4";"1";"9";"2";"[1,2,3]";"1";"0";"1"
"769";"1";"233";"1";"4";"4";"1";"9";"1";"[1,2,3,5]";"1";"0";"1"
"770";"38";"233";"1";"5";"3";"1";"9";"0";"[1,2,3,6]";"1";"0";"1"
"771";"28";"233";"1";"10";"3";"1";"9";"1";"[1,2,3]";"1";"0";"1"
"772";"15";"3";"1";"8";"1";"1";"9";"0";"[1,2,3,9]";"2";"0";"1"
"773";"17";"4";"1";"1";"1";"1";"9";"0";"[2,3]";"2";"0";"1"
"774";"20";"234";"1";"6";"2";"1";"9";"2";"[1,2,3,7]";"2";"0";"1"
"775";"31";"234";"1";"8";"2";"1";"9";"2";"[1,2,3,9]";"1";"0";"1"
"776";"27";"234";"1";"3";"2";"1";"9";"2";"[1,2,4]";"2";"0";"1"
"777";"16";"234";"1";"2";"2";"1";"9";"1";"[1,3]";"1";"0";"1"
"778";"13";"234";"1";"5";"4";"1";"9";"2";"[1,2,3,6]";"2";"0";"1"
"779";"37";"234";"1";"10";"4";"1";"9";"2";"[1,2,3]";"1";"0";"1"
"780";"12";"4";"1";"4";"1";"1";"9";"2";"[1,2,3,5]";"2";"0";"1"
"781";"28";"234";"1";"10";"3";"1";"9";"1";"[1,2,3]";"1";"0";"1"
"782";"10";"235";"1";"4";"3";"1";"9";"0";"[1,2,3,5]";"1";"0";"1"
"783";"27";"235";"1";"3";"2";"1";"9";"2";"[1,2,4]";"2";"0";"1"
"784";"14";"5";"1";"10";"1";"1";"9";"1";"[1,2,3]";"1";"0";"1"
"785";"16";"235";"1";"2";"2";"1";"9";"1";"[1,3]";"1";"0";"1"
"786";"12";"5";"1";"4";"1";"1";"9";"2";"[1,2,3,5]";"2";"0";"1"
"787";"10";"236";"1";"4";"3";"1";"9";"0";"[1,2,3,5]";"1";"0";"1"
"788";"14";"6";"1";"10";"1";"1";"9";"1";"[1,2,3]";"1";"0";"1"
"789";"32";"237";"1";"6";"4";"1";"9";"1";"[1,2,3,7]";"2";"0";"1"
"790";"3";"7";"1";"3";"1";"1";"9";"1";"[1,2,4]";"2";"0";"1"
"791";"37";"237";"1";"10";"4";"1";"9";"2";"[1,2,3]";"1";"7";"1"
"792";"32";"238";"1";"6";"4";"1";"9";"1";"[1,2,3,7]";"2";"0";"1"
"793";"3";"8";"1";"3";"1";"1";"9";"1";"[1,2,4]";"2";"0";"1"
"794";"23";"8";"1";"6";"1";"1";"9";"0";"[1,2,3,7]";"1";"0";"1"
"795";"19";"238";"1";"9";"3";"1";"9";"0";"[1,2,3,10]";"2";"0";"1"
"796";"2";"238";"1";"9";"2";"1";"9";"2";"[1,2,3,10]";"2";"0";"1"
"797";"37";"238";"1";"10";"4";"1";"9";"2";"[1,2,3]";"1";"9";"1"
"798";"23";"9";"1";"6";"1";"1";"9";"0";"[1,2,3,7]";"1";"0";"1"
"799";"29";"239";"1";"1";"3";"1";"9";"0";"[2,3]";"1";"0";"1"
"800";"19";"239";"1";"9";"3";"1";"9";"0";"[1,2,3,10]";"2";"0";"1"
"801";"2";"239";"1";"9";"2";"1";"9";"2";"[1,2,3,10]";"2";"0";"1"
"802";"37";"239";"1";"10";"4";"1";"9";"2";"[1,2,3]";"1";"7";"1"
"803";"29";"240";"1";"1";"3";"1";"9";"0";"[2,3]";"1";"0";"1"
"804";"37";"240";"1";"10";"4";"1";"9";"2";"[1,2,3]";"1";"6";"1"
"805";"37";"241";"1";"10";"4";"1";"9";"2";"[1,2,3]";"1";"4";"1"
"806";"37";"241";"1";"10";"4";"1";"9";"2";"[1,2,3]";"1";"5";"1"
"807";"18";"12";"1";"2";"1";"1";"9";"1";"[1,3]";"2";"0";"1"
"808";"9";"243";"1";"7";"4";"1";"9";"0";"[1,2,3,8]";"2";"0";"1"
"809";"25";"243";"1";"6";"3";"1";"9";"0";"[1,2,3,7]";"1";"0";"1"
"810";"18";"13";"1";"2";"1";"1";"9";"1";"[1,3]";"2";"0";"1"
"811";"7";"243";"1";"4";"2";"1";"9";"2";"[1,2,3,5]";"2";"0";"1"
"812";"37";"243";"1";"10";"4";"1";"9";"2";"[1,2,3]";"1";"6";"1"
"813";"9";"244";"1";"7";"4";"1";"9";"0";"[1,2,3,8]";"2";"0";"1"
"814";"25";"244";"1";"6";"3";"1";"9";"0";"[1,2,3,7]";"1";"0";"1"
"815";"37";"244";"1";"10";"4";"1";"9";"2";"[1,2,3]";"1";"7";"1"
"816";"7";"244";"1";"4";"2";"1";"9";"2";"[1,2,3,5]";"2";"0";"1"
"817";"37";"245";"1";"10";"4";"1";"9";"2";"[1,2,3]";"1";"8";"1"
"818";"30";"246";"1";"1";"4";"1";"9";"0";"[2,3]";"2";"0";"1"
"819";"37";"246";"1";"10";"4";"1";"9";"2";"[1,2,3]";"1";"9";"1"
"820";"30";"247";"1";"1";"4";"1";"9";"0";"[2,3]";"2";"0";"1"
"821";"8";"248";"1";"3";"4";"1";"9";"0";"[1,2,4]";"2";"0";"1"
"822";"4";"248";"1";"3";"3";"1";"9";"2";"[1,2,4]";"1";"0";"1"
"823";"8";"249";"1";"3";"4";"1";"9";"0";"[1,2,4]";"2";"0";"1"
"824";"4";"249";"1";"3";"3";"1";"9";"2";"[1,2,4]";"1";"0";"1"
"825";"40";"250";"1";"1";"2";"1";"9";"1";"[2,3]";"1";"0";"1"
"826";"40";"251";"1";"1";"2";"1";"9";"1";"[2,3]";"1";"0";"1"
"827";"39";"252";"1";"8";"4";"1";"9";"2";"[1,2,3,9]";"1";"0";"1"
"828";"24";"22";"1";"5";"1";"1";"9";"1";"[1,2,3,6]";"2";"0";"1"
"829";"36";"252";"1";"10";"2";"1";"9";"2";"[1,2,3]";"2";"0";"1"
"830";"39";"253";"1";"8";"4";"1";"9";"2";"[1,2,3,9]";"1";"0";"1"
"831";"24";"23";"1";"5";"1";"1";"9";"1";"[1,2,3,6]";"2";"0";"1"
"832";"36";"253";"1";"10";"2";"1";"9";"2";"[1,2,3]";"2";"0";"1"
"833";"35";"254";"1";"8";"3";"1";"9";"2";"[1,2,3,9]";"2";"0";"1"
"834";"26";"255";"1";"2";"4";"1";"9";"2";"[1,3]";"2";"0";"1"
"835";"35";"255";"1";"8";"3";"1";"9";"2";"[1,2,3,9]";"2";"0";"1"
"836";"26";"256";"1";"2";"4";"1";"9";"2";"[1,3]";"2";"0";"1"
"837";"33";"27";"1";"9";"1";"1";"9";"1";"[1,2,3,10]";"2";"0";"1"
"838";"33";"28";"1";"9";"1";"1";"9";"1";"[1,2,3,10]";"2";"0";"1"
"839";"6";"2";"1";"7";"1";"1";"10";"0";"[1,2,3,8]";"2";"0";"1"
"840";"1";"260";"1";"4";"4";"1";"10";"1";"[1,2,3,5]";"1";"0";"1"
"841";"21";"260";"1";"2";"3";"1";"10";"1";"[1,3]";"1";"0";"1"
"842";"19";"260";"1";"9";"3";"1";"10";"0";"[1,2,3,10]";"1";"0";"1"
"843";"38";"261";"1";"5";"3";"1";"10";"0";"[1,2,3,6]";"1";"0";"1"
"844";"6";"3";"1";"7";"1";"1";"10";"0";"[1,2,3,8]";"2";"0";"1"
"845";"11";"261";"1";"9";"4";"1";"10";"2";"[1,2,3,10]";"2";"0";"1"
"846";"1";"261";"1";"4";"4";"1";"10";"1";"[1,2,3,5]";"1";"0";"1"
"847";"25";"261";"1";"6";"3";"1";"10";"0";"[1,2,3,7]";"1";"0";"1"
"848";"21";"261";"1";"2";"3";"1";"10";"1";"[1,3]";"1";"0";"1"
"849";"17";"3";"1";"1";"1";"1";"10";"0";"[2,3]";"2";"0";"1"
"850";"19";"261";"1";"9";"3";"1";"10";"0";"[1,2,3,10]";"1";"0";"1"
"851";"38";"262";"1";"5";"3";"1";"10";"0";"[1,2,3,6]";"1";"0";"1"
"852";"11";"262";"1";"9";"4";"1";"10";"2";"[1,2,3,10]";"2";"0";"1"
"853";"14";"4";"1";"10";"1";"1";"10";"1";"[1,2,3]";"1";"0";"1"
"854";"32";"262";"1";"6";"4";"1";"10";"1";"[1,2,3,7]";"2";"0";"1"
"855";"25";"262";"1";"6";"3";"1";"10";"0";"[1,2,3,7]";"1";"0";"1"
"856";"13";"262";"1";"5";"4";"1";"10";"2";"[1,2,3,6]";"2";"0";"1"
"857";"20";"262";"1";"6";"2";"1";"10";"2";"[1,2,3,7]";"2";"0";"1"
"858";"34";"262";"1";"7";"2";"1";"10";"2";"[1,2,3,8]";"2";"0";"1"
"859";"17";"4";"1";"1";"1";"1";"10";"0";"[2,3]";"2";"0";"1"
"860";"23";"4";"1";"6";"1";"1";"10";"0";"[1,2,3,7]";"2";"0";"1"
"861";"24";"4";"1";"5";"1";"1";"10";"1";"[1,2,3,6]";"2";"0";"1"
"862";"30";"262";"1";"1";"4";"1";"10";"0";"[2,3]";"2";"0";"1"
"863";"33";"5";"1";"9";"1";"1";"10";"1";"[1,2,3,10]";"2";"0";"1"
"864";"12";"5";"1";"4";"1";"1";"10";"2";"[1,2,3,5]";"2";"0";"1"
"865";"14";"5";"1";"10";"1";"1";"10";"1";"[1,2,3]";"1";"0";"1"
"866";"32";"263";"1";"6";"4";"1";"10";"1";"[1,2,3,7]";"2";"0";"1"
"867";"22";"263";"1";"7";"3";"1";"10";"1";"[1,2,3,8]";"1";"0";"1"
"868";"13";"263";"1";"5";"4";"1";"10";"2";"[1,2,3,6]";"2";"0";"1"
"869";"20";"263";"1";"6";"2";"1";"10";"2";"[1,2,3,7]";"2";"0";"1"
"870";"34";"263";"1";"7";"2";"1";"10";"2";"[1,2,3,8]";"2";"0";"1"
"871";"23";"5";"1";"6";"1";"1";"10";"0";"[1,2,3,7]";"2";"0";"1"
"872";"24";"5";"1";"5";"1";"1";"10";"1";"[1,2,3,6]";"2";"0";"1"
"873";"30";"263";"1";"1";"4";"1";"10";"0";"[2,3]";"2";"0";"1"
"874";"33";"6";"1";"9";"1";"1";"10";"1";"[1,2,3,10]";"2";"0";"1"
"875";"12";"6";"1";"4";"1";"1";"10";"2";"[1,2,3,5]";"2";"0";"1"
"876";"37";"264";"1";"10";"4";"1";"10";"2";"[1,2,3]";"1";"0";"1"
"877";"2";"264";"1";"9";"2";"1";"10";"2";"[1,2,3,10]";"1";"0";"1"
"878";"22";"264";"1";"7";"3";"1";"10";"1";"[1,2,3,8]";"1";"0";"1"
"879";"40";"264";"1";"1";"2";"1";"10";"1";"[2,3]";"1";"0";"1"
"880";"31";"264";"1";"8";"2";"1";"10";"2";"[1,2,3,9]";"2";"0";"1"
"881";"37";"265";"1";"10";"4";"1";"10";"2";"[1,2,3]";"1";"0";"1"
"882";"10";"265";"1";"4";"3";"1";"10";"0";"[1,2,3,5]";"1";"0";"1"
"883";"2";"265";"1";"9";"2";"1";"10";"2";"[1,2,3,10]";"1";"0";"1"
"884";"40";"265";"1";"1";"2";"1";"10";"1";"[2,3]";"1";"0";"1"
"885";"14";"7";"1";"10";"1";"1";"10";"1";"[1,2,3]";"1";"8";"1"
"886";"31";"265";"1";"8";"2";"1";"10";"2";"[1,2,3,9]";"2";"0";"1"
"887";"5";"265";"1";"5";"2";"1";"10";"0";"[1,2,3,6]";"1";"0";"1"
"888";"9";"265";"1";"7";"4";"1";"10";"0";"[1,2,3,8]";"2";"0";"1"
"889";"15";"8";"1";"8";"1";"1";"10";"0";"[1,2,3,9]";"2";"0";"1"
"890";"14";"8";"1";"10";"1";"1";"10";"1";"[1,2,3]";"1";"7";"1"
"891";"10";"266";"1";"4";"3";"1";"10";"0";"[1,2,3,5]";"1";"0";"1"
"892";"7";"266";"1";"4";"2";"1";"10";"2";"[1,2,3,5]";"2";"0";"1"
"893";"28";"266";"1";"10";"3";"1";"10";"1";"[1,2,3]";"1";"0";"1"
"894";"29";"266";"1";"1";"3";"1";"10";"0";"[2,3]";"1";"0";"1"
"895";"5";"266";"1";"5";"2";"1";"10";"0";"[1,2,3,6]";"1";"0";"1"
"896";"9";"266";"1";"7";"4";"1";"10";"0";"[1,2,3,8]";"2";"0";"1"
"897";"39";"267";"1";"8";"4";"1";"10";"2";"[1,2,3,9]";"2";"0";"1"
"898";"15";"9";"1";"8";"1";"1";"10";"0";"[1,2,3,9]";"2";"0";"1"
"899";"7";"267";"1";"4";"2";"1";"10";"2";"[1,2,3,5]";"2";"0";"1"
"900";"28";"267";"1";"10";"3";"1";"10";"1";"[1,2,3]";"1";"0";"1"
"901";"29";"267";"1";"1";"3";"1";"10";"0";"[2,3]";"1";"0";"1"
"902";"2";"267";"1";"9";"2";"1";"10";"2";"[1,2,3,10]";"1";"8";"1"
"903";"39";"268";"1";"8";"4";"1";"10";"2";"[1,2,3,9]";"2";"0";"1"
"904";"16";"268";"1";"2";"2";"1";"10";"1";"[1,3]";"2";"0";"1"
"905";"16";"269";"1";"2";"2";"1";"10";"1";"[1,3]";"2";"0";"1"
"906";"14";"11";"1";"10";"1";"1";"10";"1";"[1,2,3]";"1";"1";"1"
"907";"18";"11";"1";"2";"1";"1";"10";"1";"[1,3]";"1";"0";"1"
"908";"18";"12";"1";"2";"1";"1";"10";"1";"[1,3]";"1";"0";"1"
"909";"2";"270";"1";"9";"2";"1";"10";"2";"[1,2,3,10]";"1";"9";"1"
"910";"4";"271";"1";"3";"3";"1";"10";"2";"[1,2,4]";"2";"0";"1"
"911";"4";"272";"1";"3";"3";"1";"10";"2";"[1,2,4]";"2";"0";"1"
"912";"36";"273";"1";"10";"2";"1";"10";"2";"[1,2,3]";"2";"0";"1"
"913";"36";"274";"1";"10";"2";"1";"10";"2";"[1,2,3]";"2";"0";"1"
"914";"26";"274";"1";"2";"4";"1";"10";"2";"[1,3]";"2";"0";"1"
"915";"27";"274";"1";"3";"2";"1";"10";"2";"[1,2,4]";"2";"0";"1"
"916";"35";"275";"1";"8";"3";"1";"10";"2";"[1,2,3,9]";"1";"0";"1"
"917";"26";"275";"1";"2";"4";"1";"10";"2";"[1,3]";"2";"0";"1"
"918";"27";"275";"1";"3";"2";"1";"10";"2";"[1,2,4]";"2";"0";"1"
"919";"35";"276";"1";"8";"3";"1";"10";"2";"[1,2,3,9]";"1";"0";"1"
"920";"14";"19";"1";"10";"1";"1";"10";"1";"[1,2,3]";"1";"8";"1"
"921";"14";"20";"1";"10";"1";"1";"10";"1";"[1,2,3]";"1";"7";"1"
"922";"14";"21";"1";"10";"1";"1";"10";"1";"[1,2,3]";"1";"6";"1"
"923";"14";"22";"1";"10";"1";"1";"10";"1";"[1,2,3]";"1";"5";"1"
"924";"14";"23";"1";"10";"1";"1";"10";"1";"[1,2,3]";"1";"4";"1"
"925";"8";"282";"1";"3";"4";"1";"10";"0";"[1,2,4]";"2";"0";"1"
"926";"14";"24";"1";"10";"1";"1";"10";"1";"[1,2,3]";"1";"3";"1"
"927";"14";"24";"1";"10";"1";"1";"10";"1";"[1,2,3]";"1";"2";"1"
"928";"8";"283";"1";"3";"4";"1";"10";"0";"[1,2,4]";"2";"0";"1"
"929";"14";"25";"1";"10";"1";"1";"10";"1";"[1,2,3]";"1";"1";"1"
"930";"14";"27";"1";"10";"1";"1";"10";"1";"[1,2,3]";"1";"8";"1"
"931";"14";"27";"1";"10";"1";"1";"10";"1";"[1,2,3]";"1";"7";"1"
"932";"14";"28";"1";"10";"1";"1";"10";"1";"[1,2,3]";"1";"8";"1"
"933";"3";"28";"1";"3";"1";"1";"10";"1";"[1,2,4]";"2";"0";"1"
"934";"14";"29";"1";"10";"1";"1";"10";"1";"[1,2,3]";"1";"9";"1"
"935";"3";"30";"1";"3";"1";"1";"10";"1";"[1,2,4]";"2";"0";"1"
"936";"1";"289";"1";"4";"4";"1";"11";"1";"[1,2,3,5]";"1";"0";"1"
"937";"22";"290";"1";"7";"3";"1";"11";"1";"[1,2,3,8]";"1";"0";"1"
"938";"1";"290";"1";"4";"4";"1";"11";"1";"[1,2,3,5]";"1";"0";"1"
"939";"20";"290";"1";"6";"2";"1";"11";"2";"[1,2,3,7]";"2";"0";"1"
"940";"34";"290";"1";"7";"2";"1";"11";"2";"[1,2,3,8]";"2";"0";"1"
"941";"11";"290";"1";"9";"4";"1";"11";"2";"[1,2,3,10]";"2";"0";"1"
"942";"9";"290";"1";"7";"4";"1";"11";"0";"[1,2,3,8]";"2";"0";"1"
"943";"15";"2";"1";"8";"1";"1";"11";"0";"[1,2,3,9]";"2";"0";"1"
"944";"17";"2";"1";"1";"1";"1";"11";"0";"[2,3]";"2";"0";"1"
"945";"22";"291";"1";"7";"3";"1";"11";"1";"[1,2,3,8]";"1";"0";"1"
"946";"20";"291";"1";"6";"2";"1";"11";"2";"[1,2,3,7]";"2";"0";"1"
"947";"6";"3";"1";"7";"1";"1";"11";"0";"[1,2,3,8]";"2";"0";"1"
"948";"7";"291";"1";"4";"2";"1";"11";"2";"[1,2,3,5]";"0";"1";"1"
"949";"34";"291";"1";"7";"2";"1";"11";"2";"[1,2,3,8]";"2";"0";"1"
"950";"11";"291";"1";"9";"4";"1";"11";"2";"[1,2,3,10]";"2";"0";"1"
"951";"31";"291";"1";"8";"2";"1";"11";"2";"[1,2,3,9]";"2";"0";"1"
"952";"9";"291";"1";"7";"4";"1";"11";"0";"[1,2,3,8]";"2";"0";"1"
"953";"15";"3";"1";"8";"1";"1";"11";"0";"[1,2,3,9]";"2";"0";"1"
"954";"17";"4";"1";"1";"1";"1";"11";"0";"[2,3]";"2";"0";"1"
"955";"5";"292";"1";"5";"2";"1";"11";"0";"[1,2,3,6]";"2";"0";"1"
"956";"6";"4";"1";"7";"1";"1";"11";"0";"[1,2,3,8]";"2";"0";"1"
"957";"39";"292";"1";"8";"4";"1";"11";"2";"[1,2,3,9]";"2";"0";"1"
"958";"16";"292";"1";"2";"2";"1";"11";"1";"[1,3]";"1";"0";"1"
"959";"31";"292";"1";"8";"2";"1";"11";"2";"[1,2,3,9]";"2";"0";"1"
"960";"29";"292";"1";"1";"3";"1";"11";"0";"[2,3]";"2";"0";"1"
"961";"12";"4";"1";"4";"1";"1";"11";"2";"[1,2,3,5]";"2";"0";"1"
"962";"5";"293";"1";"5";"2";"1";"11";"0";"[1,2,3,6]";"2";"0";"1"
"963";"23";"5";"1";"6";"1";"1";"11";"0";"[1,2,3,7]";"1";"0";"1"
"964";"39";"293";"1";"8";"4";"1";"11";"2";"[1,2,3,9]";"2";"0";"1"
"965";"16";"293";"1";"2";"2";"1";"11";"1";"[1,3]";"1";"0";"1"
"966";"25";"293";"1";"6";"3";"1";"11";"0";"[1,2,3,7]";"1";"0";"1"
"967";"37";"293";"1";"10";"4";"1";"11";"2";"[1,2,3]";"2";"0";"1"
"968";"27";"293";"1";"3";"2";"1";"11";"2";"[1,2,4]";"2";"0";"1"
"969";"29";"293";"1";"1";"3";"1";"11";"0";"[2,3]";"2";"0";"1"
"970";"12";"5";"1";"4";"1";"1";"11";"2";"[1,2,3,5]";"2";"0";"1"
"971";"7";"294";"1";"4";"2";"1";"11";"2";"[1,2,3,5]";"0";"9";"1"
"972";"40";"294";"1";"1";"2";"1";"11";"1";"[2,3]";"1";"0";"1"
"973";"23";"6";"1";"6";"1";"1";"11";"0";"[1,2,3,7]";"1";"0";"1"
"974";"25";"294";"1";"6";"3";"1";"11";"0";"[1,2,3,7]";"1";"0";"1"
"975";"37";"294";"1";"10";"4";"1";"11";"2";"[1,2,3]";"2";"0";"1"
"976";"27";"294";"1";"3";"2";"1";"11";"2";"[1,2,4]";"2";"0";"1"
"977";"14";"6";"1";"10";"1";"1";"11";"1";"[1,2,3]";"1";"0";"1"
"978";"40";"295";"1";"1";"2";"1";"11";"1";"[2,3]";"1";"0";"1"
"979";"4";"295";"1";"3";"3";"1";"11";"2";"[1,2,4]";"1";"0";"1"
"980";"18";"7";"1";"2";"1";"1";"11";"1";"[1,3]";"2";"0";"1"
"981";"14";"7";"1";"10";"1";"1";"11";"1";"[1,2,3]";"1";"0";"1"
"982";"36";"296";"1";"10";"2";"1";"11";"2";"[1,2,3]";"2";"0";"1"
"983";"4";"296";"1";"3";"3";"1";"11";"2";"[1,2,4]";"1";"0";"1"
"984";"21";"296";"1";"2";"3";"1";"11";"1";"[1,3]";"1";"0";"1"
"985";"18";"8";"1";"2";"1";"1";"11";"1";"[1,3]";"2";"0";"1"
"986";"36";"297";"1";"10";"2";"1";"11";"2";"[1,2,3]";"2";"0";"1"
"987";"8";"297";"1";"3";"4";"1";"11";"0";"[1,2,4]";"2";"0";"1"
"988";"21";"297";"1";"2";"3";"1";"11";"1";"[1,3]";"1";"0";"1"
"989";"8";"298";"1";"3";"4";"1";"11";"0";"[1,2,4]";"2";"0";"1"
"990";"32";"299";"1";"6";"4";"1";"11";"1";"[1,2,3,7]";"2";"0";"1"
"991";"2";"299";"1";"9";"2";"1";"11";"2";"[1,2,3,10]";"2";"0";"1"
"992";"32";"300";"1";"6";"4";"1";"11";"1";"[1,2,3,7]";"2";"0";"1"
"993";"7";"300";"1";"4";"2";"1";"11";"2";"[1,2,3,5]";"2";"9";"1"
"994";"2";"300";"1";"9";"2";"1";"11";"2";"[1,2,3,10]";"2";"0";"1"
"995";"19";"300";"1";"9";"3";"1";"11";"0";"[1,2,3,10]";"1";"0";"1"
"996";"10";"300";"1";"4";"3";"1";"11";"0";"[1,2,3,5]";"1";"0";"1"
"997";"12";"12";"1";"4";"1";"1";"11";"2";"[1,2,3,5]";"2";"5";"1"
"998";"7";"301";"1";"4";"2";"1";"11";"2";"[1,2,3,5]";"2";"9";"1"
"999";"19";"301";"1";"9";"3";"1";"11";"0";"[1,2,3,10]";"1";"0";"1"
"1000";"10";"301";"1";"4";"3";"1";"11";"0";"[1,2,3,5]";"1";"0";"1"
"1001";"12";"14";"1";"4";"1";"1";"11";"2";"[1,2,3,5]";"2";"3";"1"
"1002";"26";"302";"1";"2";"4";"1";"11";"2";"[1,3]";"0";"9";"1"
"1003";"24";"15";"1";"5";"1";"1";"11";"1";"[1,2,3,6]";"2";"0";"1"
"1004";"12";"15";"1";"4";"1";"1";"11";"2";"[1,2,3,5]";"2";"2";"1"
"1005";"24";"16";"1";"5";"1";"1";"11";"1";"[1,2,3,6]";"2";"0";"1"
"1006";"13";"305";"1";"5";"4";"1";"11";"2";"[1,2,3,6]";"2";"0";"1"
"1007";"12";"17";"1";"4";"1";"1";"11";"2";"[1,2,3,5]";"2";"12";"1"
"1008";"26";"305";"1";"2";"4";"1";"11";"2";"[1,3]";"0";"8";"1"
"1009";"28";"305";"1";"10";"3";"1";"11";"1";"[1,2,3]";"1";"0";"1"
"1010";"30";"306";"1";"1";"4";"1";"11";"0";"[2,3]";"2";"0";"1"
"1011";"13";"306";"1";"5";"4";"1";"11";"2";"[1,2,3,6]";"2";"0";"1"
"1012";"28";"306";"1";"10";"3";"1";"11";"1";"[1,2,3]";"1";"0";"1"
"1013";"30";"307";"1";"1";"4";"1";"11";"0";"[2,3]";"2";"0";"1"
"1014";"33";"19";"1";"9";"1";"1";"11";"1";"[1,2,3,10]";"1";"0";"1"
"1015";"26";"308";"1";"2";"4";"1";"11";"2";"[1,3]";"0";"3";"1"
"1016";"33";"20";"1";"9";"1";"1";"11";"1";"[1,2,3,10]";"1";"0";"1"
"1017";"26";"311";"1";"2";"4";"1";"11";"2";"[1,3]";"2";"3";"1"
"1018";"35";"311";"1";"8";"3";"1";"11";"2";"[1,2,3,9]";"2";"0";"1"
"1019";"3";"23";"1";"3";"1";"1";"11";"1";"[1,2,4]";"2";"0";"1"
"1020";"26";"312";"1";"2";"4";"1";"11";"2";"[1,3]";"2";"3";"1"
"1021";"35";"312";"1";"8";"3";"1";"11";"2";"[1,2,3,9]";"2";"0";"1"
"1022";"3";"24";"1";"3";"1";"1";"11";"1";"[1,2,4]";"2";"0";"1"
"1023";"38";"314";"1";"5";"3";"1";"11";"0";"[1,2,3,6]";"1";"0";"1"
"1024";"38";"315";"1";"5";"3";"1";"11";"0";"[1,2,3,6]";"1";"0";"1"
"1025";"27";"318";"1";"3";"2";"1";"12";"2";"[1,2,4]";"1";"0";"1"
"1026";"6";"3";"1";"7";"1";"1";"12";"0";"[1,2,3,8]";"2";"0";"1"
"1027";"11";"318";"1";"9";"4";"1";"12";"2";"[1,2,3,10]";"2";"0";"1"
"1028";"2";"318";"1";"9";"2";"1";"12";"2";"[1,2,3,10]";"2";"0";"1"
"1029";"39";"318";"1";"8";"4";"1";"12";"2";"[1,2,3,9]";"1";"0";"1"
"1030";"17";"3";"1";"1";"1";"1";"12";"0";"[2,3]";"2";"0";"1"
"1031";"29";"319";"1";"1";"3";"1";"12";"0";"[2,3]";"1";"0";"1"
"1032";"27";"319";"1";"3";"2";"1";"12";"2";"[1,2,4]";"1";"0";"1"
"1033";"6";"4";"1";"7";"1";"1";"12";"0";"[1,2,3,8]";"2";"0";"1"
"1034";"13";"319";"1";"5";"4";"1";"12";"2";"[1,2,3,6]";"2";"0";"1"
"1035";"22";"319";"1";"7";"3";"1";"12";"1";"[1,2,3,8]";"1";"0";"1"
"1036";"11";"319";"1";"9";"4";"1";"12";"2";"[1,2,3,10]";"2";"0";"1"
"1037";"5";"319";"1";"5";"2";"1";"12";"0";"[1,2,3,6]";"2";"0";"1"
"1038";"40";"319";"1";"1";"2";"1";"12";"1";"[2,3]";"1";"0";"1"
"1039";"20";"319";"1";"6";"2";"1";"12";"2";"[1,2,3,7]";"2";"0";"1"
"1040";"15";"4";"1";"8";"1";"1";"12";"0";"[1,2,3,9]";"2";"0";"1"
"1041";"2";"319";"1";"9";"2";"1";"12";"2";"[1,2,3,10]";"2";"0";"1"
"1042";"39";"319";"1";"8";"4";"1";"12";"2";"[1,2,3,9]";"1";"0";"1"
"1043";"9";"319";"1";"7";"4";"1";"12";"0";"[1,2,3,8]";"2";"0";"1"
"1044";"17";"4";"1";"1";"1";"1";"12";"0";"[2,3]";"2";"0";"1"
"1045";"32";"319";"1";"6";"4";"1";"12";"1";"[1,2,3,7]";"2";"0";"1"
"1046";"29";"320";"1";"1";"3";"1";"12";"0";"[2,3]";"1";"0";"1"
"1047";"24";"5";"1";"5";"1";"1";"12";"1";"[1,2,3,6]";"2";"0";"1"
"1048";"13";"320";"1";"5";"4";"1";"12";"2";"[1,2,3,6]";"2";"0";"1"
"1049";"22";"320";"1";"7";"3";"1";"12";"1";"[1,2,3,8]";"1";"0";"1"
"1050";"25";"320";"1";"6";"3";"1";"12";"0";"[1,2,3,7]";"1";"0";"1"
"1051";"5";"320";"1";"5";"2";"1";"12";"0";"[1,2,3,6]";"2";"0";"1"
"1052";"40";"320";"1";"1";"2";"1";"12";"1";"[2,3]";"1";"0";"1"
"1053";"20";"320";"1";"6";"2";"1";"12";"2";"[1,2,3,7]";"2";"0";"1"
"1054";"15";"5";"1";"8";"1";"1";"12";"0";"[1,2,3,9]";"2";"0";"1"
"1055";"9";"320";"1";"7";"4";"1";"12";"0";"[1,2,3,8]";"2";"0";"1"
"1056";"32";"321";"1";"6";"4";"1";"12";"1";"[1,2,3,7]";"2";"0";"1"
"1057";"28";"321";"1";"10";"3";"1";"12";"1";"[1,2,3]";"1";"0";"1"
"1058";"24";"6";"1";"5";"1";"1";"12";"1";"[1,2,3,6]";"2";"0";"1"
"1059";"25";"321";"1";"6";"3";"1";"12";"0";"[1,2,3,7]";"1";"0";"1"
"1060";"12";"6";"1";"4";"1";"1";"12";"2";"[1,2,3,5]";"2";"0";"1"
"1061";"31";"321";"1";"8";"2";"1";"12";"2";"[1,2,3,9]";"2";"0";"1"
"1062";"21";"322";"1";"2";"3";"1";"12";"1";"[1,3]";"1";"0";"1"
"1063";"28";"322";"1";"10";"3";"1";"12";"1";"[1,2,3]";"1";"0";"1"
"1064";"1";"322";"1";"4";"4";"1";"12";"1";"[1,2,3,5]";"1";"0";"1"
"1065";"34";"322";"1";"7";"2";"1";"12";"2";"[1,2,3,8]";"2";"0";"1"
"1066";"4";"322";"1";"3";"3";"1";"12";"2";"[1,2,4]";"2";"0";"1"
"1067";"12";"7";"1";"4";"1";"1";"12";"2";"[1,2,3,5]";"2";"0";"1"
"1068";"31";"322";"1";"8";"2";"1";"12";"2";"[1,2,3,9]";"2";"0";"1"
"1069";"38";"322";"1";"5";"3";"1";"12";"0";"[1,2,3,6]";"1";"0";"1"
"1070";"21";"323";"1";"2";"3";"1";"12";"1";"[1,3]";"1";"0";"1"
"1071";"1";"323";"1";"4";"4";"1";"12";"1";"[1,2,3,5]";"1";"0";"1"
"1072";"34";"323";"1";"7";"2";"1";"12";"2";"[1,2,3,8]";"2";"0";"1"
"1073";"4";"323";"1";"3";"3";"1";"12";"2";"[1,2,4]";"2";"0";"1"
"1074";"38";"323";"1";"5";"3";"1";"12";"0";"[1,2,3,6]";"1";"0";"1"
"1075";"26";"323";"1";"2";"4";"1";"12";"2";"[1,3]";"0";"1";"1"
"1076";"14";"8";"1";"10";"1";"1";"12";"1";"[1,2,3]";"1";"0";"1"
"1077";"10";"324";"1";"4";"3";"1";"12";"0";"[1,2,3,5]";"0";"10";"1"
"1078";"14";"9";"1";"10";"1";"1";"12";"1";"[1,2,3]";"1";"0";"1"
"1079";"33";"10";"1";"9";"1";"1";"12";"1";"[1,2,3,10]";"2";"0";"1"
"1080";"26";"325";"1";"2";"4";"1";"12";"2";"[1,3]";"0";"2";"1"
"1081";"23";"11";"1";"6";"1";"1";"12";"0";"[1,2,3,7]";"2";"0";"1"
"1082";"33";"11";"1";"9";"1";"1";"12";"1";"[1,2,3,10]";"2";"0";"1"
"1083";"35";"326";"1";"8";"3";"1";"12";"2";"[1,2,3,9]";"1";"0";"1"
"1084";"37";"326";"1";"10";"4";"1";"12";"2";"[1,2,3]";"2";"0";"1"
"1085";"23";"12";"1";"6";"1";"1";"12";"0";"[1,2,3,7]";"2";"0";"1"
"1086";"35";"327";"1";"8";"3";"1";"12";"2";"[1,2,3,9]";"1";"0";"1"
"1087";"37";"327";"1";"10";"4";"1";"12";"2";"[1,2,3]";"2";"0";"1"
"1088";"26";"328";"1";"2";"4";"1";"12";"2";"[1,3]";"0";"3";"1"
"1089";"16";"329";"1";"2";"2";"1";"12";"1";"[1,3]";"2";"0";"1"
"1090";"36";"329";"1";"10";"2";"1";"12";"2";"[1,2,3]";"2";"0";"1"
"1091";"30";"329";"1";"1";"4";"1";"12";"0";"[2,3]";"2";"0";"1"
"1092";"26";"329";"1";"2";"4";"1";"12";"2";"[1,3]";"0";"4";"1"
"1093";"16";"330";"1";"2";"2";"1";"12";"1";"[1,3]";"2";"0";"1"
"1094";"36";"330";"1";"10";"2";"1";"12";"2";"[1,2,3]";"2";"0";"1"
"1095";"30";"330";"1";"1";"4";"1";"12";"0";"[2,3]";"2";"0";"1"
"1096";"3";"15";"1";"3";"1";"1";"12";"1";"[1,2,4]";"2";"0";"1"
"1097";"3";"16";"1";"3";"1";"1";"12";"1";"[1,2,4]";"2";"0";"1"
"1098";"18";"17";"1";"2";"1";"1";"12";"1";"[1,3]";"2";"0";"1"
"1099";"7";"332";"1";"4";"2";"1";"12";"2";"[1,2,3,5]";"2";"0";"1"
"1100";"26";"332";"1";"2";"4";"1";"12";"2";"[1,3]";"0";"5";"1"
"1101";"18";"18";"1";"2";"1";"1";"12";"1";"[1,3]";"2";"0";"1"
"1102";"7";"333";"1";"4";"2";"1";"12";"2";"[1,2,3,5]";"2";"0";"1"
"1103";"26";"334";"1";"2";"4";"1";"12";"2";"[1,3]";"0";"6";"1"
"1104";"26";"337";"1";"2";"4";"1";"12";"2";"[1,3]";"0";"12";"1"
"1105";"26";"338";"1";"2";"4";"1";"12";"2";"[1,3]";"2";"12";"1"
"1106";"26";"339";"1";"2";"4";"1";"12";"2";"[1,3]";"2";"12";"1"
"1107";"10";"340";"1";"4";"3";"1";"12";"0";"[1,2,3,5]";"1";"10";"1"
"1108";"10";"341";"1";"4";"3";"1";"12";"0";"[1,2,3,5]";"1";"10";"1"
"1109";"35";"341";"1";"8";"3";"1";"12";"2";"[1,2,3,9]";"1";"10";"1"
"1110";"35";"342";"1";"8";"3";"1";"12";"2";"[1,2,3,9]";"1";"8";"1"
"1111";"8";"342";"1";"3";"4";"1";"12";"0";"[1,2,4]";"2";"0";"1"
"1112";"19";"343";"1";"9";"3";"1";"12";"0";"[1,2,3,10]";"1";"0";"1"
"1113";"10";"343";"1";"4";"3";"1";"12";"0";"[1,2,3,5]";"1";"12";"1"
"1114";"35";"343";"1";"8";"3";"1";"12";"2";"[1,2,3,9]";"1";"6";"1"
"1115";"8";"343";"1";"3";"4";"1";"12";"0";"[1,2,4]";"2";"0";"1"
"1116";"19";"344";"1";"9";"3";"1";"12";"0";"[1,2,3,10]";"1";"0";"1"
"1117";"29";"344";"1";"1";"3";"1";"12";"0";"[2,3]";"1";"7";"1"
"1118";"23";"0";"1";"2";"1";"2";"12";"1";"[1,3]";"2";"0";"1"
"1119";"29";"0";"1";"6";"3";"2";"12";"0";"[1,2,3,7]";"1";"0";"1"
"1120";"11";"0";"1";"1";"4";"2";"12";"0";"[2,3]";"2";"0";"1"
"1121";"34";"0";"1";"9";"2";"2";"12";"1";"[1,2,3,10]";"2";"0";"1"
"1122";"1";"0";"1";"5";"4";"2";"12";"0";"[1,2,3,6]";"2";"0";"1"
"1123";"10";"0";"1";"10";"3";"2";"12";"1";"[1,2,3]";"1";"0";"1"
"1124";"8";"0";"1";"3";"4";"2";"12";"0";"[1,2,4]";"2";"0";"1"
"1125";"36";"0";"1";"8";"2";"2";"12";"2";"[1,2,3,9]";"2";"0";"1"
"1126";"13";"0";"1";"4";"4";"2";"12";"1";"[1,2,3,5]";"1";"0";"1"
"1127";"30";"0";"1";"7";"4";"2";"12";"0";"[1,2,3,8]";"2";"0";"1"
"1128";"15";"0";"1";"3";"1";"2";"12";"2";"[1,2,4]";"2";"0";"1"
"1129";"22";"0";"1";"9";"3";"2";"12";"1";"[1,2,3,10]";"1";"0";"1"
"1130";"16";"0";"1";"4";"2";"2";"12";"0";"[1,2,3,5]";"2";"0";"1"
"1131";"5";"0";"1";"7";"2";"2";"12";"1";"[1,2,3,8]";"2";"0";"1"
"1132";"28";"0";"1";"8";"3";"2";"12";"0";"[1,2,3,9]";"1";"6";"1"
"1133";"19";"0";"1";"1";"3";"2";"12";"0";"[2,3]";"1";"7";"1"
"1134";"31";"0";"1";"2";"2";"2";"12";"0";"[1,3]";"2";"0";"1"
"1135";"4";"0";"1";"7";"3";"2";"12";"2";"[1,2,3,8]";"1";"0";"1"
"1136";"35";"0";"1";"4";"3";"2";"12";"1";"[1,2,3,5]";"1";"12";"1"
"1137";"25";"0";"1";"3";"3";"2";"12";"1";"[1,2,4]";"2";"0";"1"
"1138";"27";"0";"1";"3";"2";"2";"12";"1";"[1,2,4]";"1";"0";"1"
"1139";"33";"0";"1";"6";"1";"2";"12";"2";"[1,2,3,7]";"2";"0";"1"
"1140";"21";"0";"1";"5";"3";"2";"12";"1";"[1,2,3,6]";"1";"0";"1"
"1141";"6";"0";"1";"8";"1";"2";"12";"2";"[1,2,3,9]";"2";"0";"1"
"1142";"9";"0";"1";"2";"4";"2";"12";"1";"[1,3]";"2";"12";"1"
"1143";"12";"0";"1";"10";"1";"2";"12";"0";"[1,2,3]";"1";"0";"1"
"1144";"18";"0";"1";"7";"1";"2";"12";"1";"[1,2,3,8]";"2";"0";"1"
"1145";"38";"0";"1";"2";"3";"2";"12";"1";"[1,3]";"1";"0";"1"
"1146";"2";"0";"1";"10";"2";"2";"12";"1";"[1,2,3]";"2";"0";"1"
"1147";"24";"0";"1";"1";"1";"2";"12";"1";"[2,3]";"2";"0";"1"
"1148";"7";"0";"1";"1";"2";"2";"12";"1";"[2,3]";"1";"0";"1"
"1149";"3";"0";"1";"4";"1";"2";"12";"2";"[1,2,3,5]";"2";"0";"1"
"1150";"39";"0";"1";"8";"4";"2";"12";"1";"[1,2,3,9]";"1";"0";"1"
"1151";"14";"0";"1";"9";"1";"2";"12";"2";"[1,2,3,10]";"2";"0";"1"
"1152";"17";"0";"1";"5";"1";"2";"12";"0";"[1,2,3,6]";"2";"0";"1"
"1153";"32";"0";"1";"9";"4";"2";"12";"2";"[1,2,3,10]";"2";"0";"1"
"1154";"40";"0";"1";"6";"2";"2";"12";"2";"[1,2,3,7]";"2";"0";"1"
"1155";"37";"0";"1";"10";"4";"2";"12";"2";"[1,2,3]";"2";"0";"1"
"1156";"20";"0";"1";"5";"2";"2";"12";"0";"[1,2,3,6]";"2";"0";"1"
"1157";"26";"0";"1";"6";"4";"2";"12";"2";"[1,2,3,7]";"2";"0";"1"
"1158";"38";"2";"1";"2";"3";"2";"1";"1";"[1,3]";"1";"0";"1"
"1159";"22";"2";"1";"9";"3";"2";"1";"1";"[1,2,3,10]";"1";"0";"1"
"1160";"9";"3";"1";"2";"4";"2";"1";"1";"[1,3]";"1";"0";"1"
"1161";"1";"3";"1";"5";"4";"2";"1";"0";"[1,2,3,6]";"1";"0";"1"
"1162";"24";"3";"1";"1";"1";"2";"1";"1";"[2,3]";"1";"0";"1"
"1163";"23";"3";"1";"2";"1";"2";"1";"1";"[1,3]";"1";"0";"1"
"1164";"2";"3";"1";"10";"2";"2";"1";"1";"[1,2,3]";"1";"0";"1"
"1165";"32";"3";"1";"9";"4";"2";"1";"2";"[1,2,3,10]";"2";"0";"1"
"1166";"15";"3";"1";"3";"1";"2";"1";"2";"[1,2,4]";"2";"0";"1"
"1167";"31";"3";"1";"2";"2";"2";"1";"0";"[1,3]";"1";"0";"1"
"1168";"38";"3";"1";"2";"3";"2";"1";"1";"[1,3]";"1";"0";"1"
"1169";"22";"3";"1";"9";"3";"2";"1";"1";"[1,2,3,10]";"1";"0";"1"
"1170";"9";"4";"1";"2";"4";"2";"1";"1";"[1,3]";"1";"0";"1"
"1171";"1";"4";"1";"5";"4";"2";"1";"0";"[1,2,3,6]";"1";"0";"1"
"1172";"10";"4";"1";"10";"3";"2";"1";"1";"[1,2,3]";"1";"0";"1"
"1173";"24";"4";"1";"1";"1";"2";"1";"1";"[2,3]";"1";"0";"1"
"1174";"23";"4";"1";"2";"1";"2";"1";"1";"[1,3]";"1";"0";"1"
"1175";"2";"4";"1";"10";"2";"2";"1";"1";"[1,2,3]";"1";"0";"1"
"1176";"32";"4";"1";"9";"4";"2";"1";"2";"[1,2,3,10]";"2";"0";"1"
"1177";"15";"4";"1";"3";"1";"2";"1";"2";"[1,2,4]";"2";"0";"1"
"1178";"3";"4";"1";"4";"1";"2";"1";"2";"[1,2,3,5]";"2";"0";"1"
"1179";"31";"4";"1";"2";"2";"2";"1";"0";"[1,3]";"1";"0";"1"
"1180";"13";"4";"1";"4";"4";"2";"1";"1";"[1,2,3,5]";"1";"0";"1"
"1181";"10";"5";"1";"10";"3";"2";"1";"1";"[1,2,3]";"1";"0";"1"
"1182";"18";"5";"1";"7";"1";"2";"1";"1";"[1,2,3,8]";"1";"0";"1"
"1183";"3";"5";"1";"4";"1";"2";"1";"2";"[1,2,3,5]";"2";"0";"1"
"1184";"13";"5";"1";"4";"4";"2";"1";"1";"[1,2,3,5]";"1";"0";"1"
"1185";"25";"6";"1";"3";"3";"2";"1";"1";"[1,2,4]";"2";"0";"1"
"1186";"29";"6";"1";"6";"3";"2";"1";"0";"[1,2,3,7]";"1";"0";"1"
"1187";"18";"6";"1";"7";"1";"2";"1";"1";"[1,2,3,8]";"1";"0";"1"
"1188";"5";"6";"1";"7";"2";"2";"1";"1";"[1,2,3,8]";"1";"0";"1"
"1189";"4";"6";"1";"7";"3";"2";"1";"2";"[1,2,3,8]";"2";"0";"1"
"1190";"34";"6";"1";"9";"2";"2";"1";"1";"[1,2,3,10]";"1";"0";"1"
"1191";"21";"6";"1";"5";"3";"2";"1";"1";"[1,2,3,6]";"1";"0";"1"
"1192";"25";"7";"1";"3";"3";"2";"1";"1";"[1,2,4]";"2";"0";"1"
"1193";"29";"7";"1";"6";"3";"2";"1";"0";"[1,2,3,7]";"1";"0";"1"
"1194";"5";"7";"1";"7";"2";"2";"1";"1";"[1,2,3,8]";"1";"0";"1"
"1195";"4";"7";"1";"7";"3";"2";"1";"2";"[1,2,3,8]";"2";"0";"1"
"1196";"12";"7";"1";"10";"1";"2";"1";"0";"[1,2,3]";"2";"0";"1"
"1197";"34";"7";"1";"9";"2";"2";"1";"1";"[1,2,3,10]";"1";"0";"1"
"1198";"39";"7";"1";"8";"4";"2";"1";"1";"[1,2,3,9]";"1";"0";"1"
"1199";"21";"7";"1";"5";"3";"2";"1";"1";"[1,2,3,6]";"1";"0";"1"
"1200";"30";"8";"1";"7";"4";"2";"1";"0";"[1,2,3,8]";"1";"0";"1"
"1201";"33";"8";"1";"6";"1";"2";"1";"2";"[1,2,3,7]";"2";"0";"1"
"1202";"27";"8";"1";"3";"2";"2";"1";"1";"[1,2,4]";"1";"0";"1"
"1203";"12";"8";"1";"10";"1";"2";"1";"0";"[1,2,3]";"2";"0";"1"
"1204";"7";"8";"1";"1";"2";"2";"1";"1";"[2,3]";"1";"0";"1"
"1205";"39";"8";"1";"8";"4";"2";"1";"1";"[1,2,3,9]";"1";"0";"1"
"1206";"20";"8";"1";"5";"2";"2";"1";"0";"[1,2,3,6]";"2";"0";"1"
"1207";"30";"9";"1";"7";"4";"2";"1";"0";"[1,2,3,8]";"1";"0";"1"
"1208";"37";"9";"1";"10";"4";"2";"1";"2";"[1,2,3]";"2";"0";"1"
"1209";"36";"9";"1";"8";"2";"2";"1";"2";"[1,2,3,9]";"2";"0";"1"
"1210";"33";"9";"1";"6";"1";"2";"1";"2";"[1,2,3,7]";"2";"0";"1"
"1211";"27";"9";"1";"3";"2";"2";"1";"1";"[1,2,4]";"1";"0";"1"
"1212";"11";"9";"1";"1";"4";"2";"1";"0";"[2,3]";"2";"0";"1"
"1213";"7";"9";"1";"1";"2";"2";"1";"1";"[2,3]";"1";"0";"1"
"1214";"20";"9";"1";"5";"2";"2";"1";"0";"[1,2,3,6]";"2";"0";"1"
"1215";"37";"10";"1";"10";"4";"2";"1";"2";"[1,2,3]";"2";"0";"1"
"1216";"6";"10";"1";"8";"1";"2";"1";"2";"[1,2,3,9]";"2";"0";"1"
"1217";"36";"10";"1";"8";"2";"2";"1";"2";"[1,2,3,9]";"2";"0";"1"
"1218";"11";"10";"1";"1";"4";"2";"1";"0";"[2,3]";"2";"0";"1"
"1219";"6";"11";"1";"8";"1";"2";"1";"2";"[1,2,3,9]";"2";"0";"1"
"1220";"17";"11";"1";"5";"1";"2";"1";"0";"[1,2,3,6]";"2";"0";"1"
"1221";"16";"11";"1";"4";"2";"2";"1";"0";"[1,2,3,5]";"1";"0";"1"
"1222";"8";"12";"1";"3";"4";"2";"1";"0";"[1,2,4]";"2";"0";"1"
"1223";"17";"12";"1";"5";"1";"2";"1";"0";"[1,2,3,6]";"2";"0";"1"
"1224";"16";"12";"1";"4";"2";"2";"1";"0";"[1,2,3,5]";"1";"0";"1"
"1225";"8";"13";"1";"3";"4";"2";"1";"0";"[1,2,4]";"2";"0";"1"
"1226";"40";"15";"1";"6";"2";"2";"1";"2";"[1,2,3,7]";"2";"0";"1"
"1227";"40";"16";"1";"6";"2";"2";"1";"2";"[1,2,3,7]";"2";"0";"1"
"1228";"14";"17";"1";"9";"1";"2";"1";"2";"[1,2,3,10]";"2";"0";"1"
"1229";"26";"17";"1";"6";"4";"2";"1";"2";"[1,2,3,7]";"1";"0";"1"
"1230";"14";"18";"1";"9";"1";"2";"1";"2";"[1,2,3,10]";"2";"0";"1"
"1231";"26";"18";"1";"6";"4";"2";"1";"2";"[1,2,3,7]";"1";"0";"1"
"1232";"35";"20";"1";"4";"3";"2";"1";"1";"[1,2,3,5]";"1";"0";"1"
"1233";"35";"21";"1";"4";"3";"2";"1";"1";"[1,2,3,5]";"1";"0";"1"
"1234";"28";"29";"1";"8";"3";"2";"1";"0";"[1,2,3,9]";"1";"0";"1"
"1235";"19";"30";"1";"1";"3";"2";"1";"0";"[2,3]";"0";"0";"1"
"1236";"28";"30";"1";"8";"3";"2";"1";"0";"[1,2,3,9]";"1";"0";"1"
"1237";"0";"30";"1";"1";"3";"2";"1";"0";"[2,3]";"2";"0";"0"
"1238";"27";"33";"1";"3";"2";"2";"2";"1";"[1,2,4]";"1";"0";"1"
"1239";"5";"34";"1";"7";"2";"2";"2";"1";"[1,2,3,8]";"1";"0";"1"
"1240";"38";"34";"1";"2";"3";"2";"2";"1";"[1,3]";"1";"0";"1"
"1241";"29";"34";"1";"6";"3";"2";"2";"0";"[1,2,3,7]";"2";"0";"1"
"1242";"27";"34";"1";"3";"2";"2";"2";"1";"[1,2,4]";"1";"0";"1"
"1243";"5";"35";"1";"7";"2";"2";"2";"1";"[1,2,3,8]";"1";"0";"1"
"1244";"34";"35";"1";"9";"2";"2";"2";"1";"[1,2,3,10]";"1";"0";"1"
"1245";"23";"5";"1";"2";"1";"2";"2";"1";"[1,3]";"1";"0";"1"
"1246";"38";"35";"1";"2";"3";"2";"2";"1";"[1,3]";"1";"0";"1"
"1247";"22";"35";"1";"9";"3";"2";"2";"1";"[1,2,3,10]";"1";"0";"1"
"1248";"29";"35";"1";"6";"3";"2";"2";"0";"[1,2,3,7]";"2";"0";"1"
"1249";"34";"36";"1";"9";"2";"2";"2";"1";"[1,2,3,10]";"1";"0";"1"
"1250";"23";"6";"1";"2";"1";"2";"2";"1";"[1,3]";"1";"0";"1"
"1251";"22";"36";"1";"9";"3";"2";"2";"1";"[1,2,3,10]";"1";"0";"1"
"1252";"30";"37";"1";"7";"4";"2";"2";"0";"[1,2,3,8]";"1";"0";"1"
"1253";"11";"37";"1";"1";"4";"2";"2";"0";"[2,3]";"2";"0";"1"
"1254";"31";"37";"1";"2";"2";"2";"2";"0";"[1,3]";"1";"0";"1"
"1255";"16";"37";"1";"4";"2";"2";"2";"0";"[1,2,3,5]";"1";"0";"1"
"1256";"30";"38";"1";"7";"4";"2";"2";"0";"[1,2,3,8]";"1";"0";"1"
"1257";"8";"38";"1";"3";"4";"2";"2";"0";"[1,2,4]";"1";"0";"1"
"1258";"11";"38";"1";"1";"4";"2";"2";"0";"[2,3]";"2";"0";"1"
"1259";"31";"38";"1";"2";"2";"2";"2";"0";"[1,3]";"1";"0";"1"
"1260";"16";"38";"1";"4";"2";"2";"2";"0";"[1,2,3,5]";"1";"0";"1"
"1261";"8";"39";"1";"3";"4";"2";"2";"0";"[1,2,4]";"1";"0";"1"
"1262";"6";"9";"1";"8";"1";"2";"2";"2";"[1,2,3,9]";"2";"0";"1"
"1263";"13";"40";"1";"4";"4";"2";"2";"1";"[1,2,3,5]";"1";"0";"1"
"1264";"6";"10";"1";"8";"1";"2";"2";"2";"[1,2,3,9]";"2";"0";"1"
"1265";"25";"40";"1";"3";"3";"2";"2";"1";"[1,2,4]";"1";"0";"1"
"1266";"21";"40";"1";"5";"3";"2";"2";"1";"[1,2,3,6]";"1";"0";"1"
"1267";"13";"41";"1";"4";"4";"2";"2";"1";"[1,2,3,5]";"1";"0";"1"
"1268";"7";"41";"1";"1";"2";"2";"2";"1";"[2,3]";"1";"0";"1"
"1269";"2";"41";"1";"10";"2";"2";"2";"1";"[1,2,3]";"1";"0";"1"
"1270";"25";"41";"1";"3";"3";"2";"2";"1";"[1,2,4]";"1";"0";"1"
"1271";"21";"41";"1";"5";"3";"2";"2";"1";"[1,2,3,6]";"1";"0";"1"
"1272";"3";"12";"1";"4";"1";"2";"2";"2";"[1,2,3,5]";"2";"0";"1"
"1273";"7";"42";"1";"1";"2";"2";"2";"1";"[2,3]";"1";"0";"1"
"1274";"2";"42";"1";"10";"2";"2";"2";"1";"[1,2,3]";"1";"0";"1"
"1275";"3";"13";"1";"4";"1";"2";"2";"2";"[1,2,3,5]";"2";"0";"1"
"1276";"1";"43";"1";"5";"4";"2";"2";"0";"[1,2,3,6]";"1";"0";"1"
"1277";"40";"44";"1";"6";"2";"2";"2";"2";"[1,2,3,7]";"2";"0";"1"
"1278";"4";"44";"1";"7";"3";"2";"2";"2";"[1,2,3,8]";"2";"0";"1"
"1279";"1";"44";"1";"5";"4";"2";"2";"0";"[1,2,3,6]";"1";"0";"1"
"1280";"40";"45";"1";"6";"2";"2";"2";"2";"[1,2,3,7]";"2";"0";"1"
"1281";"4";"45";"1";"7";"3";"2";"2";"2";"[1,2,3,8]";"2";"0";"1"
"1282";"33";"15";"1";"6";"1";"2";"2";"2";"[1,2,3,7]";"1";"0";"1"
"1283";"33";"16";"1";"6";"1";"2";"2";"2";"[1,2,3,7]";"1";"0";"1"
"1284";"20";"46";"1";"5";"2";"2";"2";"0";"[1,2,3,6]";"1";"0";"1"
"1285";"36";"47";"1";"8";"2";"2";"2";"2";"[1,2,3,9]";"1";"0";"1"
"1286";"20";"47";"1";"5";"2";"2";"2";"0";"[1,2,3,6]";"1";"0";"1"
"1287";"39";"48";"1";"8";"4";"2";"2";"1";"[1,2,3,9]";"1";"0";"1"
"1288";"18";"18";"1";"7";"1";"2";"2";"1";"[1,2,3,8]";"1";"0";"1"
"1289";"36";"48";"1";"8";"2";"2";"2";"2";"[1,2,3,9]";"1";"0";"1"
"1290";"39";"49";"1";"8";"4";"2";"2";"1";"[1,2,3,9]";"1";"0";"1"
"1291";"18";"19";"1";"7";"1";"2";"2";"1";"[1,2,3,8]";"1";"0";"1"
"1292";"28";"50";"1";"8";"3";"2";"2";"0";"[1,2,3,9]";"2";"0";"1"
"1293";"37";"50";"1";"10";"4";"2";"2";"2";"[1,2,3]";"2";"0";"1"
"1294";"28";"51";"1";"8";"3";"2";"2";"0";"[1,2,3,9]";"2";"0";"1"
"1295";"37";"51";"1";"10";"4";"2";"2";"2";"[1,2,3]";"2";"0";"1"
"1296";"15";"21";"1";"3";"1";"2";"2";"2";"[1,2,4]";"2";"0";"1"
"1297";"26";"51";"1";"6";"4";"2";"2";"2";"[1,2,3,7]";"1";"0";"1"
"1298";"15";"22";"1";"3";"1";"2";"2";"2";"[1,2,4]";"2";"0";"1"
"1299";"26";"52";"1";"6";"4";"2";"2";"2";"[1,2,3,7]";"1";"0";"1"
"1300";"24";"22";"1";"1";"1";"2";"2";"1";"[2,3]";"1";"0";"1"
"1301";"24";"23";"1";"1";"1";"2";"2";"1";"[2,3]";"1";"0";"1"
"1302";"10";"54";"1";"10";"3";"2";"2";"1";"[1,2,3]";"1";"0";"1"
"1303";"9";"54";"1";"2";"4";"2";"2";"1";"[1,3]";"1";"0";"1"
"1304";"12";"24";"1";"10";"1";"2";"2";"0";"[1,2,3]";"1";"0";"1"
"1305";"10";"55";"1";"10";"3";"2";"2";"1";"[1,2,3]";"1";"0";"1"
"1306";"9";"55";"1";"2";"4";"2";"2";"1";"[1,3]";"1";"0";"1"
"1307";"12";"25";"1";"10";"1";"2";"2";"0";"[1,2,3]";"1";"0";"1"
"1308";"17";"26";"1";"5";"1";"2";"2";"0";"[1,2,3,6]";"2";"0";"1"
"1309";"35";"56";"1";"4";"3";"2";"2";"1";"[1,2,3,5]";"2";"0";"1"
"1310";"32";"56";"1";"9";"4";"2";"2";"2";"[1,2,3,10]";"2";"0";"1"
"1311";"14";"27";"1";"9";"1";"2";"2";"2";"[1,2,3,10]";"2";"0";"1"
"1312";"17";"27";"1";"5";"1";"2";"2";"0";"[1,2,3,6]";"2";"0";"1"
"1313";"35";"57";"1";"4";"3";"2";"2";"1";"[1,2,3,5]";"2";"0";"1"
"1314";"32";"57";"1";"9";"4";"2";"2";"2";"[1,2,3,10]";"2";"0";"1"
"1315";"14";"28";"1";"9";"1";"2";"2";"2";"[1,2,3,10]";"2";"0";"1"
"1316";"19";"59";"1";"1";"3";"2";"2";"0";"[2,3]";"2";"0";"1"
"1317";"19";"60";"1";"1";"3";"2";"2";"0";"[2,3]";"2";"0";"1"
"1318";"34";"61";"1";"9";"2";"2";"3";"1";"[1,2,3,10]";"1";"0";"1"
"1319";"31";"62";"1";"2";"2";"2";"3";"0";"[1,3]";"1";"0";"1"
"1320";"27";"62";"1";"3";"2";"2";"3";"1";"[1,2,4]";"1";"0";"1"
"1321";"5";"62";"1";"7";"2";"2";"3";"1";"[1,2,3,8]";"1";"0";"1"
"1322";"29";"62";"1";"6";"3";"2";"3";"0";"[1,2,3,7]";"2";"0";"1"
"1323";"22";"62";"1";"9";"3";"2";"3";"1";"[1,2,3,10]";"1";"0";"1"
"1324";"34";"62";"1";"9";"2";"2";"3";"1";"[1,2,3,10]";"1";"0";"1"
"1325";"11";"62";"1";"1";"4";"2";"3";"0";"[2,3]";"1";"0";"1"
"1326";"2";"63";"1";"10";"2";"2";"3";"1";"[1,2,3]";"1";"0";"1"
"1327";"31";"63";"1";"2";"2";"2";"3";"0";"[1,3]";"1";"0";"1"
"1328";"27";"63";"1";"3";"2";"2";"3";"1";"[1,2,4]";"1";"0";"1"
"1329";"5";"63";"1";"7";"2";"2";"3";"1";"[1,2,3,8]";"1";"0";"1"
"1330";"29";"63";"1";"6";"3";"2";"3";"0";"[1,2,3,7]";"2";"0";"1"
"1331";"22";"63";"1";"9";"3";"2";"3";"1";"[1,2,3,10]";"1";"0";"1"
"1332";"11";"63";"1";"1";"4";"2";"3";"0";"[2,3]";"1";"0";"1"
"1333";"2";"64";"1";"10";"2";"2";"3";"1";"[1,2,3]";"1";"0";"1"
"1334";"25";"64";"1";"3";"3";"2";"3";"1";"[1,2,4]";"1";"0";"1"
"1335";"8";"64";"1";"3";"4";"2";"3";"0";"[1,2,4]";"1";"0";"1"
"1336";"23";"4";"1";"2";"1";"2";"3";"1";"[1,3]";"1";"0";"1"
"1337";"20";"64";"1";"5";"2";"2";"3";"0";"[1,2,3,6]";"1";"0";"1"
"1338";"16";"64";"1";"4";"2";"2";"3";"0";"[1,2,3,5]";"1";"0";"1"
"1339";"25";"65";"1";"3";"3";"2";"3";"1";"[1,2,4]";"1";"0";"1"
"1340";"1";"65";"1";"5";"4";"2";"3";"0";"[1,2,3,6]";"1";"0";"1"
"1341";"8";"65";"1";"3";"4";"2";"3";"0";"[1,2,4]";"1";"0";"1"
"1342";"38";"65";"1";"2";"3";"2";"3";"1";"[1,3]";"1";"0";"1"
"1343";"23";"5";"1";"2";"1";"2";"3";"1";"[1,3]";"1";"0";"1"
"1344";"20";"65";"1";"5";"2";"2";"3";"0";"[1,2,3,6]";"1";"0";"1"
"1345";"16";"65";"1";"4";"2";"2";"3";"0";"[1,2,3,5]";"1";"0";"1"
"1346";"1";"66";"1";"5";"4";"2";"3";"0";"[1,2,3,6]";"1";"0";"1"
"1347";"38";"66";"1";"2";"3";"2";"3";"1";"[1,3]";"1";"0";"1"
"1348";"33";"6";"1";"6";"1";"2";"3";"2";"[1,2,3,7]";"1";"0";"1"
"1349";"32";"67";"1";"9";"4";"2";"3";"2";"[1,2,3,10]";"1";"0";"1"
"1350";"6";"7";"1";"8";"1";"2";"3";"2";"[1,2,3,9]";"2";"0";"1"
"1351";"33";"7";"1";"6";"1";"2";"3";"2";"[1,2,3,7]";"1";"0";"1"
"1352";"32";"68";"1";"9";"4";"2";"3";"2";"[1,2,3,10]";"1";"0";"1"
"1353";"6";"8";"1";"8";"1";"2";"3";"2";"[1,2,3,9]";"2";"0";"1"
"1354";"7";"68";"1";"1";"2";"2";"3";"1";"[2,3]";"2";"0";"1"
"1355";"7";"69";"1";"1";"2";"2";"3";"1";"[2,3]";"2";"0";"1"
"1356";"21";"70";"1";"5";"3";"2";"3";"1";"[1,2,3,6]";"1";"0";"1"
"1357";"4";"70";"1";"7";"3";"2";"3";"2";"[1,2,3,8]";"2";"0";"1"
"1358";"21";"71";"1";"5";"3";"2";"3";"1";"[1,2,3,6]";"1";"0";"1"
"1359";"36";"71";"1";"8";"2";"2";"3";"2";"[1,2,3,9]";"1";"0";"1"
"1360";"14";"11";"1";"9";"1";"2";"3";"2";"[1,2,3,10]";"2";"0";"1"
"1361";"4";"71";"1";"7";"3";"2";"3";"2";"[1,2,3,8]";"2";"0";"1"
"1362";"37";"71";"1";"10";"4";"2";"3";"2";"[1,2,3]";"2";"0";"1"
"1363";"39";"71";"1";"8";"4";"2";"3";"1";"[1,2,3,9]";"2";"0";"1"
"1364";"36";"72";"1";"8";"2";"2";"3";"2";"[1,2,3,9]";"1";"0";"1"
"1365";"14";"12";"1";"9";"1";"2";"3";"2";"[1,2,3,10]";"2";"0";"1"
"1366";"40";"72";"1";"6";"2";"2";"3";"2";"[1,2,3,7]";"2";"0";"1"
"1367";"37";"72";"1";"10";"4";"2";"3";"2";"[1,2,3]";"2";"0";"1"
"1368";"39";"72";"1";"8";"4";"2";"3";"1";"[1,2,3,9]";"2";"0";"1"
"1369";"40";"73";"1";"6";"2";"2";"3";"2";"[1,2,3,7]";"2";"0";"1"
"1370";"9";"73";"1";"2";"4";"2";"3";"1";"[1,3]";"1";"0";"1"
"1371";"9";"74";"1";"2";"4";"2";"3";"1";"[1,3]";"1";"0";"1"
"1372";"35";"74";"1";"4";"3";"2";"3";"1";"[1,2,3,5]";"1";"0";"1"
"1373";"35";"75";"1";"4";"3";"2";"3";"1";"[1,2,3,5]";"1";"0";"1"
"1374";"13";"76";"1";"4";"4";"2";"3";"1";"[1,2,3,5]";"1";"0";"1"
"1375";"26";"77";"1";"6";"4";"2";"3";"2";"[1,2,3,7]";"2";"0";"1"
"1376";"13";"77";"1";"4";"4";"2";"3";"1";"[1,2,3,5]";"1";"0";"1"
"1377";"26";"78";"1";"6";"4";"2";"3";"2";"[1,2,3,7]";"2";"0";"1"
"1378";"12";"18";"1";"10";"1";"2";"3";"0";"[1,2,3]";"2";"0";"1"
"1379";"17";"18";"1";"5";"1";"2";"3";"0";"[1,2,3,6]";"1";"0";"1"
"1380";"12";"19";"1";"10";"1";"2";"3";"0";"[1,2,3]";"2";"0";"1"
"1381";"17";"19";"1";"5";"1";"2";"3";"0";"[1,2,3,6]";"1";"0";"1"
"1382";"15";"20";"1";"3";"1";"2";"3";"2";"[1,2,4]";"2";"0";"1"
"1383";"15";"21";"1";"3";"1";"2";"3";"2";"[1,2,4]";"2";"0";"1"
"1384";"18";"22";"1";"7";"1";"2";"3";"1";"[1,2,3,8]";"1";"0";"1"
"1385";"18";"23";"1";"7";"1";"2";"3";"1";"[1,2,3,8]";"1";"0";"1"
"1386";"3";"24";"1";"4";"1";"2";"3";"2";"[1,2,3,5]";"1";"0";"1"
"1387";"3";"25";"1";"4";"1";"2";"3";"2";"[1,2,3,5]";"1";"0";"1"
"1388";"10";"86";"1";"10";"3";"2";"3";"1";"[1,2,3]";"1";"0";"1"
"1389";"28";"86";"1";"8";"3";"2";"3";"0";"[1,2,3,9]";"2";"0";"1"
"1390";"24";"27";"1";"1";"1";"2";"3";"1";"[2,3]";"1";"0";"1"
"1391";"10";"87";"1";"10";"3";"2";"3";"1";"[1,2,3]";"1";"0";"1"
"1392";"28";"87";"1";"8";"3";"2";"3";"0";"[1,2,3,9]";"2";"0";"1"
"1393";"19";"87";"1";"1";"3";"2";"3";"0";"[2,3]";"2";"0";"1"
"1394";"24";"28";"1";"1";"1";"2";"3";"1";"[2,3]";"1";"0";"1"
"1395";"19";"88";"1";"1";"3";"2";"3";"0";"[2,3]";"2";"0";"1"
"1396";"30";"90";"1";"7";"4";"2";"3";"0";"[1,2,3,8]";"0";"0";"1"
"1397";"0";"30";"1";"7";"4";"2";"3";"0";"[1,2,3,8]";"1";"0";"0"
"1398";"11";"91";"1";"1";"4";"2";"4";"0";"[2,3]";"1";"0";"1"
"1399";"11";"92";"1";"1";"4";"2";"4";"0";"[2,3]";"1";"0";"1"
"1400";"4";"93";"1";"7";"3";"2";"4";"2";"[1,2,3,8]";"2";"0";"1"
"1401";"29";"93";"1";"6";"3";"2";"4";"0";"[1,2,3,7]";"2";"0";"1"
"1402";"9";"93";"1";"2";"4";"2";"4";"1";"[1,3]";"1";"0";"1"
"1403";"23";"3";"1";"2";"1";"2";"4";"1";"[1,3]";"1";"0";"1"
"1404";"33";"3";"1";"6";"1";"2";"4";"2";"[1,2,3,7]";"1";"0";"1"
"1405";"21";"93";"1";"5";"3";"2";"4";"1";"[1,2,3,6]";"1";"0";"1"
"1406";"4";"94";"1";"7";"3";"2";"4";"2";"[1,2,3,8]";"2";"0";"1"
"1407";"29";"94";"1";"6";"3";"2";"4";"0";"[1,2,3,7]";"2";"0";"1"
"1408";"38";"94";"1";"2";"3";"2";"4";"1";"[1,3]";"1";"0";"1"
"1409";"39";"94";"1";"8";"4";"2";"4";"1";"[1,2,3,9]";"1";"0";"1"
"1410";"9";"94";"1";"2";"4";"2";"4";"1";"[1,3]";"1";"0";"1"
"1411";"23";"4";"1";"2";"1";"2";"4";"1";"[1,3]";"1";"0";"1"
"1412";"15";"4";"1";"3";"1";"2";"4";"2";"[1,2,4]";"2";"0";"1"
"1413";"16";"94";"1";"4";"2";"2";"4";"0";"[1,2,3,5]";"1";"0";"1"
"1414";"22";"94";"1";"9";"3";"2";"4";"1";"[1,2,3,10]";"1";"0";"1"
"1415";"25";"94";"1";"3";"3";"2";"4";"1";"[1,2,4]";"1";"0";"1"
"1416";"33";"4";"1";"6";"1";"2";"4";"2";"[1,2,3,7]";"1";"0";"1"
"1417";"21";"94";"1";"5";"3";"2";"4";"1";"[1,2,3,6]";"1";"0";"1"
"1418";"27";"94";"1";"3";"2";"2";"4";"1";"[1,2,4]";"1";"0";"1"
"1419";"38";"95";"1";"2";"3";"2";"4";"1";"[1,3]";"1";"0";"1"
"1420";"39";"95";"1";"8";"4";"2";"4";"1";"[1,2,3,9]";"1";"0";"1"
"1421";"37";"95";"1";"10";"4";"2";"4";"2";"[1,2,3]";"2";"0";"1"
"1422";"15";"5";"1";"3";"1";"2";"4";"2";"[1,2,4]";"2";"0";"1"
"1423";"14";"5";"1";"9";"1";"2";"4";"2";"[1,2,3,10]";"2";"0";"1"
"1424";"16";"95";"1";"4";"2";"2";"4";"0";"[1,2,3,5]";"1";"0";"1"
"1425";"22";"95";"1";"9";"3";"2";"4";"1";"[1,2,3,10]";"1";"0";"1"
"1426";"25";"95";"1";"3";"3";"2";"4";"1";"[1,2,4]";"1";"0";"1"
"1427";"8";"95";"1";"3";"4";"2";"4";"0";"[1,2,4]";"1";"0";"1"
"1428";"27";"95";"1";"3";"2";"2";"4";"1";"[1,2,4]";"1";"0";"1"
"1429";"37";"96";"1";"10";"4";"2";"4";"2";"[1,2,3]";"2";"0";"1"
"1430";"14";"6";"1";"9";"1";"2";"4";"2";"[1,2,3,10]";"2";"0";"1"
"1431";"8";"96";"1";"3";"4";"2";"4";"0";"[1,2,4]";"1";"0";"1"
"1432";"1";"96";"1";"5";"4";"2";"4";"0";"[1,2,3,6]";"1";"0";"1"
"1433";"1";"97";"1";"5";"4";"2";"4";"0";"[1,2,3,6]";"1";"0";"1"
"1434";"31";"98";"1";"2";"2";"2";"4";"0";"[1,3]";"1";"0";"1"
"1435";"20";"98";"1";"5";"2";"2";"4";"0";"[1,2,3,6]";"1";"0";"1"
"1436";"31";"99";"1";"2";"2";"2";"4";"0";"[1,3]";"1";"0";"1"
"1437";"20";"99";"1";"5";"2";"2";"4";"0";"[1,2,3,6]";"1";"0";"1"
"1438";"12";"10";"1";"10";"1";"2";"4";"0";"[1,2,3]";"2";"0";"1"
"1439";"36";"101";"1";"8";"2";"2";"4";"2";"[1,2,3,9]";"1";"0";"1"
"1440";"12";"11";"1";"10";"1";"2";"4";"0";"[1,2,3]";"2";"0";"1"
"1441";"5";"101";"1";"7";"2";"2";"4";"1";"[1,2,3,8]";"1";"0";"1"
"1442";"36";"102";"1";"8";"2";"2";"4";"2";"[1,2,3,9]";"1";"0";"1"
"1443";"34";"102";"1";"9";"2";"2";"4";"1";"[1,2,3,10]";"1";"0";"1"
"1444";"5";"102";"1";"7";"2";"2";"4";"1";"[1,2,3,8]";"1";"0";"1"
"1445";"34";"103";"1";"9";"2";"2";"4";"1";"[1,2,3,10]";"1";"0";"1"
"1446";"35";"103";"1";"4";"3";"2";"4";"1";"[1,2,3,5]";"0";"2";"1"
"1447";"3";"13";"1";"4";"1";"2";"4";"2";"[1,2,3,5]";"2";"0";"1"
"1448";"40";"103";"1";"6";"2";"2";"4";"2";"[1,2,3,7]";"2";"0";"1"
"1449";"26";"103";"1";"6";"4";"2";"4";"2";"[1,2,3,7]";"2";"0";"1"
"1450";"3";"14";"1";"4";"1";"2";"4";"2";"[1,2,3,5]";"2";"0";"1"
"1451";"35";"104";"1";"4";"3";"2";"4";"1";"[1,2,3,5]";"0";"1";"1"
"1452";"40";"104";"1";"6";"2";"2";"4";"2";"[1,2,3,7]";"2";"0";"1"
"1453";"26";"104";"1";"6";"4";"2";"4";"2";"[1,2,3,7]";"2";"0";"1"
"1454";"35";"106";"1";"4";"3";"2";"4";"1";"[1,2,3,5]";"0";"2";"1"
"1455";"37";"106";"1";"10";"4";"2";"4";"2";"[1,2,3]";"2";"1";"1"
"1456";"35";"107";"1";"4";"3";"2";"4";"1";"[1,2,3,5]";"0";"3";"1"
"1457";"7";"107";"1";"1";"2";"2";"4";"1";"[2,3]";"2";"0";"1"
"1458";"7";"108";"1";"1";"2";"2";"4";"1";"[2,3]";"2";"0";"1"
"1459";"18";"19";"1";"7";"1";"2";"4";"1";"[1,2,3,8]";"1";"0";"1"
"1460";"13";"109";"1";"4";"4";"2";"4";"1";"[1,2,3,5]";"1";"0";"1"
"1461";"2";"110";"1";"10";"2";"2";"4";"1";"[1,2,3]";"1";"0";"1"
"1462";"18";"20";"1";"7";"1";"2";"4";"1";"[1,2,3,8]";"1";"0";"1"
"1463";"13";"110";"1";"4";"4";"2";"4";"1";"[1,2,3,5]";"1";"0";"1"
"1464";"2";"111";"1";"10";"2";"2";"4";"1";"[1,2,3]";"1";"0";"1"
"1465";"6";"21";"1";"8";"1";"2";"4";"2";"[1,2,3,9]";"1";"0";"1"
"1466";"17";"21";"1";"5";"1";"2";"4";"0";"[1,2,3,6]";"1";"0";"1"
"1467";"24";"21";"1";"1";"1";"2";"4";"1";"[2,3]";"2";"0";"1"
"1468";"35";"112";"1";"4";"3";"2";"4";"1";"[1,2,3,5]";"1";"3";"1"
"1469";"10";"112";"1";"10";"3";"2";"4";"1";"[1,2,3]";"1";"0";"1"
"1470";"6";"22";"1";"8";"1";"2";"4";"2";"[1,2,3,9]";"1";"0";"1"
"1471";"17";"22";"1";"5";"1";"2";"4";"0";"[1,2,3,6]";"1";"0";"1"
"1472";"24";"22";"1";"1";"1";"2";"4";"1";"[2,3]";"2";"0";"1"
"1473";"35";"113";"1";"4";"3";"2";"4";"1";"[1,2,3,5]";"1";"3";"1"
"1474";"10";"113";"1";"10";"3";"2";"4";"1";"[1,2,3]";"1";"0";"1"
"1475";"19";"113";"1";"1";"3";"2";"4";"0";"[2,3]";"1";"0";"1"
"1476";"37";"114";"1";"10";"4";"2";"4";"2";"[1,2,3]";"2";"2";"1"
"1477";"32";"114";"1";"9";"4";"2";"4";"2";"[1,2,3,10]";"1";"0";"1"
"1478";"19";"114";"1";"1";"3";"2";"4";"0";"[2,3]";"1";"0";"1"
"1479";"32";"115";"1";"9";"4";"2";"4";"2";"[1,2,3,10]";"1";"0";"1"
"1480";"28";"115";"1";"8";"3";"2";"4";"0";"[1,2,3,9]";"1";"0";"1"
"1481";"29";"116";"1";"6";"3";"2";"4";"0";"[1,2,3,7]";"2";"2";"1"
"1482";"28";"116";"1";"8";"3";"2";"4";"0";"[1,2,3,9]";"1";"0";"1"
"1483";"29";"118";"1";"6";"3";"2";"4";"0";"[1,2,3,7]";"2";"1";"1"
"1484";"29";"119";"1";"6";"3";"2";"4";"0";"[1,2,3,7]";"2";"2";"1"
"1485";"29";"120";"1";"6";"3";"2";"4";"0";"[1,2,3,7]";"2";"3";"1"
"1486";"30";"121";"1";"7";"4";"2";"4";"0";"[1,2,3,8]";"0";"0";"1"
"1487";"0";"30";"1";"7";"4";"2";"4";"0";"[1,2,3,8]";"1";"0";"0"
"1488";"34";"122";"1";"9";"2";"2";"5";"1";"[1,2,3,10]";"1";"0";"1"
"1489";"15";"1";"1";"3";"1";"2";"5";"2";"[1,2,4]";"2";"0";"1"
"1490";"22";"123";"1";"9";"3";"2";"5";"1";"[1,2,3,10]";"1";"0";"1"
"1491";"16";"123";"1";"4";"2";"2";"5";"0";"[1,2,3,5]";"1";"0";"1"
"1492";"34";"123";"1";"9";"2";"2";"5";"1";"[1,2,3,10]";"1";"0";"1"
"1493";"15";"2";"1";"3";"1";"2";"5";"2";"[1,2,4]";"2";"0";"1"
"1494";"21";"123";"1";"5";"3";"2";"5";"1";"[1,2,3,6]";"1";"0";"1"
"1495";"38";"123";"1";"2";"3";"2";"5";"1";"[1,3]";"1";"0";"1"
"1496";"16";"124";"1";"4";"2";"2";"5";"0";"[1,2,3,5]";"1";"0";"1"
"1497";"22";"124";"1";"9";"3";"2";"5";"1";"[1,2,3,10]";"1";"0";"1"
"1498";"13";"124";"1";"4";"4";"2";"5";"1";"[1,2,3,5]";"1";"0";"1"
"1499";"11";"124";"1";"1";"4";"2";"5";"0";"[2,3]";"1";"0";"1"
"1500";"25";"124";"1";"3";"3";"2";"5";"1";"[1,2,4]";"1";"0";"1"
"1501";"37";"124";"1";"10";"4";"2";"5";"2";"[1,2,3]";"1";"0";"1"
"1502";"21";"124";"1";"5";"3";"2";"5";"1";"[1,2,3,6]";"1";"0";"1"
"1503";"38";"124";"1";"2";"3";"2";"5";"1";"[1,3]";"1";"0";"1"
"1504";"13";"125";"1";"4";"4";"2";"5";"1";"[1,2,3,5]";"1";"0";"1"
"1505";"11";"125";"1";"1";"4";"2";"5";"0";"[2,3]";"1";"0";"1"
"1506";"25";"125";"1";"3";"3";"2";"5";"1";"[1,2,4]";"1";"0";"1"
"1507";"37";"125";"1";"10";"4";"2";"5";"2";"[1,2,3]";"1";"0";"1"
"1508";"10";"125";"1";"10";"3";"2";"5";"1";"[1,2,3]";"1";"0";"1"
"1509";"27";"125";"1";"3";"2";"2";"5";"1";"[1,2,4]";"1";"0";"1"
"1510";"33";"4";"1";"6";"1";"2";"5";"2";"[1,2,3,7]";"2";"0";"1"
"1511";"10";"126";"1";"10";"3";"2";"5";"1";"[1,2,3]";"1";"0";"1"
"1512";"23";"5";"1";"2";"1";"2";"5";"1";"[1,3]";"1";"0";"1"
"1513";"35";"126";"1";"4";"3";"2";"5";"1";"[1,2,3,5]";"2";"0";"1"
"1514";"27";"126";"1";"3";"2";"2";"5";"1";"[1,2,4]";"1";"0";"1"
"1515";"33";"5";"1";"6";"1";"2";"5";"2";"[1,2,3,7]";"2";"0";"1"
"1516";"31";"127";"1";"2";"2";"2";"5";"0";"[1,3]";"1";"0";"1"
"1517";"8";"127";"1";"3";"4";"2";"5";"0";"[1,2,4]";"1";"0";"1"
"1518";"23";"6";"1";"2";"1";"2";"5";"1";"[1,3]";"1";"0";"1"
"1519";"29";"127";"1";"6";"3";"2";"5";"0";"[1,2,3,7]";"1";"0";"1"
"1520";"7";"127";"1";"1";"2";"2";"5";"1";"[2,3]";"1";"0";"1"
"1521";"35";"127";"1";"4";"3";"2";"5";"1";"[1,2,3,5]";"2";"0";"1"
"1522";"1";"127";"1";"5";"4";"2";"5";"0";"[1,2,3,6]";"0";"2";"1"
"1523";"20";"127";"1";"5";"2";"2";"5";"0";"[1,2,3,6]";"1";"0";"1"
"1524";"5";"127";"1";"7";"2";"2";"5";"1";"[1,2,3,8]";"1";"0";"1"
"1525";"31";"128";"1";"2";"2";"2";"5";"0";"[1,3]";"1";"0";"1"
"1526";"8";"128";"1";"3";"4";"2";"5";"0";"[1,2,4]";"1";"0";"1"
"1527";"29";"128";"1";"6";"3";"2";"5";"0";"[1,2,3,7]";"1";"0";"1"
"1528";"7";"128";"1";"1";"2";"2";"5";"1";"[2,3]";"1";"0";"1"
"1529";"20";"128";"1";"5";"2";"2";"5";"0";"[1,2,3,6]";"1";"0";"1"
"1530";"5";"128";"1";"7";"2";"2";"5";"1";"[1,2,3,8]";"1";"0";"1"
"1531";"26";"129";"1";"6";"4";"2";"5";"2";"[1,2,3,7]";"1";"0";"1"
"1532";"2";"129";"1";"10";"2";"2";"5";"1";"[1,2,3]";"1";"0";"1"
"1533";"1";"129";"1";"5";"4";"2";"5";"0";"[1,2,3,6]";"0";"4";"1"
"1534";"26";"130";"1";"6";"4";"2";"5";"2";"[1,2,3,7]";"1";"0";"1"
"1535";"37";"130";"1";"10";"4";"2";"5";"2";"[1,2,3]";"1";"1";"1"
"1536";"2";"130";"1";"10";"2";"2";"5";"1";"[1,2,3]";"1";"0";"1"
"1537";"1";"131";"1";"5";"4";"2";"5";"0";"[1,2,3,6]";"1";"4";"1"
"1538";"9";"131";"1";"2";"4";"2";"5";"1";"[1,3]";"1";"0";"1"
"1539";"1";"132";"1";"5";"4";"2";"5";"0";"[1,2,3,6]";"1";"4";"1"
"1540";"6";"11";"1";"8";"1";"2";"5";"2";"[1,2,3,9]";"1";"0";"1"
"1541";"9";"132";"1";"2";"4";"2";"5";"1";"[1,3]";"1";"0";"1"
"1542";"6";"12";"1";"8";"1";"2";"5";"2";"[1,2,3,9]";"1";"0";"1"
"1543";"37";"133";"1";"10";"4";"2";"5";"2";"[1,2,3]";"1";"2";"1"
"1544";"36";"135";"1";"8";"2";"2";"5";"2";"[1,2,3,9]";"1";"0";"1"
"1545";"37";"135";"1";"10";"4";"2";"5";"2";"[1,2,3]";"1";"3";"1"
"1546";"12";"14";"1";"10";"1";"2";"5";"0";"[1,2,3]";"2";"0";"1"
"1547";"39";"135";"1";"8";"4";"2";"5";"1";"[1,2,3,9]";"1";"0";"1"
"1548";"36";"136";"1";"8";"2";"2";"5";"2";"[1,2,3,9]";"1";"0";"1"
