"id";"id_subj";"time";"session";"id_grp";"grp";"round";"period";"sig";"links";"choice";"hist";"active"
"1";"10";"0";"1";"28";"1";"1";"1";"1";"[7,33]";"0";"0";"1"
"2";"34";"0";"1";"9";"1";"1";"1";"1";"[1,3,10,13,29,37]";"0";"0";"1"
"3";"31";"0";"1";"31";"1";"1";"1";"1";"[15,19,24,30,34]";"0";"0";"1"
"4";"17";"0";"1";"30";"1";"1";"1";"1";"[6,15,19,24,31,34,37]";"0";"0";"1"
"5";"28";"0";"1";"24";"1";"1";"1";"1";"[6,15,29,30,31,32,34]";"0";"0";"1"
"6";"18";"0";"1";"18";"1";"1";"1";"1";"[3,11,16,27]";"0";"0";"1"
"7";"32";"0";"1";"4";"1";"1";"1";"1";"[2,33,38]";"0";"0";"1"
"8";"38";"0";"1";"17";"1";"1";"1";"1";"[19]";"0";"0";"1"
"9";"11";"0";"1";"22";"1";"1";"1";"1";"[5,12,32,34]";"0";"0";"1"
"10";"33";"0";"1";"12";"1";"1";"1";"1";"[5,22]";"0";"0";"1"
"11";"3";"0";"1";"38";"1";"1";"1";"2";"[2,4,20,36,39,40]";"0";"0";"1"
"12";"12";"0";"1";"36";"1";"1";"1";"1";"[21,38,39]";"0";"0";"1"
"13";"19";"0";"1";"27";"1";"1";"1";"2";"[16,18,20,25]";"0";"0";"1"
"14";"13";"0";"1";"37";"1";"1";"1";"1";"[9,10,13,29,30]";"0";"0";"1"
"15";"26";"0";"1";"23";"1";"1";"1";"1";"[1,13,21]";"0";"0";"1"
"16";"8";"0";"1";"29";"1";"1";"1";"1";"[9,10,15,24,32,34,37]";"0";"0";"1"
"17";"37";"0";"1";"1";"1";"1";"1";"1";"[3,9,13,23]";"0";"0";"1"
"18";"22";"0";"1";"39";"1";"1";"1";"2";"[21,36,38]";"0";"0";"1"
"19";"24";"0";"1";"32";"1";"1";"1";"1";"[5,15,19,22,24,29,34]";"0";"0";"1"
"20";"21";"0";"1";"7";"1";"1";"1";"1";"[28,40]";"0";"0";"1"
"21";"40";"0";"1";"19";"1";"1";"1";"1";"[17,30,31,32]";"0";"0";"1"
"22";"2";"0";"1";"33";"1";"1";"1";"2";"[4,28]";"0";"0";"1"
"23";"15";"0";"1";"21";"1";"1";"1";"1";"[13,15,23,36,39]";"0";"0";"1"
"24";"16";"0";"1";"26";"1";"1";"1";"2";"[14,35]";"0";"0";"1"
"25";"1";"0";"1";"2";"1";"1";"1";"1";"[4,38]";"0";"0";"1"
"26";"29";"0";"1";"11";"1";"1";"1";"1";"[16,18]";"0";"0";"1"
"27";"25";"0";"1";"3";"1";"1";"1";"1";"[1,9,10,13,16,18]";"0";"0";"1"
"28";"6";"0";"1";"8";"1";"1";"1";"1";"[6,20]";"0";"0";"1"
"29";"7";"0";"1";"35";"1";"1";"1";"1";"[14,26]";"0";"0";"1"
"30";"5";"0";"1";"20";"1";"1";"1";"2";"[8,27,38]";"0";"0";"1"
"31";"20";"0";"1";"16";"1";"1";"1";"1";"[3,11,18,27]";"0";"0";"1"
"32";"14";"0";"1";"5";"1";"1";"1";"1";"[12,22,32]";"0";"0";"1"
"33";"36";"0";"1";"25";"1";"1";"1";"1";"[27]";"0";"0";"1"
"34";"23";"0";"1";"40";"1";"1";"1";"2";"[7,14,38]";"0";"0";"1"
"35";"9";"0";"1";"14";"1";"1";"1";"1";"[26,35,40]";"0";"0";"1"
"36";"35";"0";"1";"13";"1";"1";"1";"1";"[1,3,9,21,23,37]";"0";"0";"1"
"37";"27";"0";"1";"15";"1";"1";"1";"2";"[6,21,24,29,30,31,32,34]";"0";"0";"1"
"38";"39";"0";"1";"10";"1";"1";"1";"2";"[3,9,29,37]";"0";"0";"1"
"39";"4";"0";"1";"34";"1";"1";"1";"2";"[6,15,22,24,29,30,31,32]";"0";"0";"1"
"40";"30";"0";"1";"6";"1";"1";"1";"1";"[8,15,24,30,34]";"0";"0";"1"
"41";"2";"5";"1";"33";"1";"1";"1";"2";"[4,28]";"2";"0";"1"
"42";"20";"6";"1";"16";"1";"1";"1";"1";"[3,11,18,27]";"1";"0";"1"
"43";"3";"6";"1";"38";"1";"1";"1";"2";"[2,4,20,36,39,40]";"2";"0";"1"
"44";"10";"6";"1";"28";"1";"1";"1";"1";"[7,33]";"1";"0";"1"
"45";"18";"6";"1";"18";"1";"1";"1";"1";"[3,11,16,27]";"1";"0";"1"
"46";"2";"6";"1";"33";"1";"1";"1";"2";"[4,28]";"2";"0";"1"
"47";"20";"7";"1";"16";"1";"1";"1";"1";"[3,11,18,27]";"1";"0";"1"
"48";"3";"7";"1";"38";"1";"1";"1";"2";"[2,4,20,36,39,40]";"2";"0";"1"
"49";"10";"7";"1";"28";"1";"1";"1";"1";"[7,33]";"1";"0";"1"
"50";"37";"7";"1";"1";"1";"1";"1";"1";"[3,9,13,23]";"1";"0";"1"
"51";"12";"7";"1";"36";"1";"1";"1";"1";"[21,38,39]";"1";"0";"1"
"52";"18";"7";"1";"18";"1";"1";"1";"1";"[3,11,16,27]";"1";"0";"1"
"53";"33";"7";"1";"12";"1";"1";"1";"1";"[5,22]";"1";"0";"1"
"54";"24";"8";"1";"32";"1";"1";"1";"1";"[5,15,19,22,24,29,34]";"1";"0";"1"
"55";"37";"8";"1";"1";"1";"1";"1";"1";"[3,9,13,23]";"1";"0";"1"
"56";"34";"8";"1";"9";"1";"1";"1";"1";"[1,3,10,13,29,37]";"1";"0";"1"
"57";"12";"8";"1";"36";"1";"1";"1";"1";"[21,38,39]";"1";"0";"1"
"58";"35";"8";"1";"13";"1";"1";"1";"1";"[1,3,9,21,23,37]";"1";"0";"1"
"59";"33";"8";"1";"12";"1";"1";"1";"1";"[5,22]";"1";"0";"1"
"60";"4";"8";"1";"34";"1";"1";"1";"2";"[6,15,22,24,29,30,31,32]";"2";"0";"1"
"61";"31";"8";"1";"31";"1";"1";"1";"1";"[15,19,24,30,34]";"1";"0";"1"
"62";"28";"8";"1";"24";"1";"1";"1";"1";"[6,15,29,30,31,32,34]";"1";"0";"1"
"63";"24";"9";"1";"32";"1";"1";"1";"1";"[5,15,19,22,24,29,34]";"1";"0";"1"
"64";"39";"9";"1";"10";"1";"1";"1";"2";"[3,9,29,37]";"1";"0";"1"
"65";"34";"9";"1";"9";"1";"1";"1";"1";"[1,3,10,13,29,37]";"1";"0";"1"
"66";"35";"9";"1";"13";"1";"1";"1";"1";"[1,3,9,21,23,37]";"1";"0";"1"
"67";"4";"9";"1";"34";"1";"1";"1";"2";"[6,15,22,24,29,30,31,32]";"2";"0";"1"
"68";"31";"9";"1";"31";"1";"1";"1";"1";"[15,19,24,30,34]";"1";"0";"1"
"69";"28";"9";"1";"24";"1";"1";"1";"1";"[6,15,29,30,31,32,34]";"1";"0";"1"
"70";"39";"10";"1";"10";"1";"1";"1";"2";"[3,9,29,37]";"1";"0";"1"
"71";"21";"10";"1";"7";"1";"1";"1";"1";"[28,40]";"1";"0";"1"
"72";"7";"10";"1";"35";"1";"1";"1";"1";"[14,26]";"1";"0";"1"
"73";"27";"10";"1";"15";"1";"1";"1";"2";"[6,21,24,29,30,31,32,34]";"2";"0";"1"
"74";"9";"11";"1";"14";"1";"1";"1";"1";"[26,35,40]";"1";"0";"1"
"75";"26";"11";"1";"23";"1";"1";"1";"1";"[1,13,21]";"1";"0";"1"
"76";"32";"11";"1";"4";"1";"1";"1";"1";"[2,33,38]";"1";"0";"1"
"77";"36";"11";"1";"25";"1";"1";"1";"1";"[27]";"2";"0";"1"
"78";"21";"11";"1";"7";"1";"1";"1";"1";"[28,40]";"1";"0";"1"
"79";"8";"11";"1";"29";"1";"1";"1";"1";"[9,10,15,24,32,34,37]";"1";"0";"1"
"80";"38";"11";"1";"17";"1";"1";"1";"1";"[19]";"1";"0";"1"
"81";"25";"11";"1";"3";"1";"1";"1";"1";"[1,9,10,13,16,18]";"1";"0";"1"
"82";"27";"11";"1";"15";"1";"1";"1";"2";"[6,21,24,29,30,31,32,34]";"2";"0";"1"
"83";"7";"11";"1";"35";"1";"1";"1";"1";"[14,26]";"1";"0";"1"
"84";"17";"12";"1";"30";"1";"1";"1";"1";"[6,15,19,24,31,34,37]";"1";"0";"1"
"85";"13";"12";"1";"37";"1";"1";"1";"1";"[9,10,13,29,30]";"1";"0";"1"
"86";"9";"12";"1";"14";"1";"1";"1";"1";"[26,35,40]";"1";"0";"1"
"87";"1";"12";"1";"2";"1";"1";"1";"1";"[4,38]";"1";"0";"1"
"88";"26";"12";"1";"23";"1";"1";"1";"1";"[1,13,21]";"1";"0";"1"
"89";"32";"12";"1";"4";"1";"1";"1";"1";"[2,33,38]";"1";"0";"1"
"90";"36";"12";"1";"25";"1";"1";"1";"1";"[27]";"2";"0";"1"
"91";"15";"12";"1";"21";"1";"1";"1";"1";"[13,15,23,36,39]";"1";"0";"1"
"92";"8";"12";"1";"29";"1";"1";"1";"1";"[9,10,15,24,32,34,37]";"1";"0";"1"
"93";"38";"12";"1";"17";"1";"1";"1";"1";"[19]";"1";"0";"1"
"94";"25";"12";"1";"3";"1";"1";"1";"1";"[1,9,10,13,16,18]";"1";"0";"1"
"95";"17";"13";"1";"30";"1";"1";"1";"1";"[6,15,19,24,31,34,37]";"1";"0";"1"
"96";"13";"13";"1";"37";"1";"1";"1";"1";"[9,10,13,29,30]";"1";"0";"1"
"97";"22";"13";"1";"39";"1";"1";"1";"2";"[21,36,38]";"2";"0";"1"
"98";"11";"13";"1";"22";"1";"1";"1";"1";"[5,12,32,34]";"1";"0";"1"
"99";"1";"13";"1";"2";"1";"1";"1";"1";"[4,38]";"1";"0";"1"
"100";"19";"13";"1";"27";"1";"1";"1";"2";"[16,18,20,25]";"2";"0";"1"
"101";"16";"13";"1";"26";"1";"1";"1";"2";"[14,35]";"2";"0";"1"
"102";"15";"13";"1";"21";"1";"1";"1";"1";"[13,15,23,36,39]";"1";"0";"1"
"103";"30";"13";"1";"6";"1";"1";"1";"1";"[8,15,24,30,34]";"1";"0";"1"
"104";"22";"14";"1";"39";"1";"1";"1";"2";"[21,36,38]";"2";"0";"1"
"105";"11";"14";"1";"22";"1";"1";"1";"1";"[5,12,32,34]";"1";"0";"1"
"106";"14";"14";"1";"5";"1";"1";"1";"1";"[12,22,32]";"1";"0";"1"
"107";"19";"14";"1";"27";"1";"1";"1";"2";"[16,18,20,25]";"2";"0";"1"
"108";"16";"14";"1";"26";"1";"1";"1";"2";"[14,35]";"2";"0";"1"
"109";"30";"14";"1";"6";"1";"1";"1";"1";"[8,15,24,30,34]";"1";"0";"1"
"110";"14";"15";"1";"5";"1";"1";"1";"1";"[12,22,32]";"1";"0";"1"
"111";"6";"16";"1";"8";"1";"1";"1";"1";"[6,20]";"1";"0";"1"
"112";"5";"16";"1";"20";"1";"1";"1";"2";"[8,27,38]";"2";"0";"1"
"113";"23";"16";"1";"40";"1";"1";"1";"2";"[7,14,38]";"2";"0";"1"
"114";"6";"17";"1";"8";"1";"1";"1";"1";"[6,20]";"1";"0";"1"
"115";"5";"17";"1";"20";"1";"1";"1";"2";"[8,27,38]";"2";"0";"1"
"116";"29";"17";"1";"11";"1";"1";"1";"1";"[16,18]";"1";"0";"1"
"117";"23";"17";"1";"40";"1";"1";"1";"2";"[7,14,38]";"2";"0";"1"
"118";"29";"18";"1";"11";"1";"1";"1";"1";"[16,18]";"1";"0";"1"
"119";"40";"27";"1";"19";"1";"1";"1";"1";"[17,30,31,32]";"1";"0";"1"
"120";"40";"28";"1";"19";"1";"1";"1";"1";"[17,30,31,32]";"1";"0";"1"
"121";"3";"2";"1";"38";"1";"1";"2";"2";"[2,4,20,36,39,40]";"2";"0";"1"
"122";"17";"3";"1";"30";"1";"1";"2";"1";"[6,15,19,24,31,34,37]";"1";"0";"1"
"123";"3";"3";"1";"38";"1";"1";"2";"2";"[2,4,20,36,39,40]";"2";"0";"1"
"124";"12";"4";"1";"36";"1";"1";"2";"1";"[21,38,39]";"1";"0";"1"
"125";"17";"4";"1";"30";"1";"1";"2";"1";"[6,15,19,24,31,34,37]";"1";"0";"1"
"126";"5";"4";"1";"20";"1";"1";"2";"2";"[8,27,38]";"2";"0";"1"
"127";"34";"4";"1";"9";"1";"1";"2";"1";"[1,3,10,13,29,37]";"1";"0";"1"
"128";"12";"5";"1";"36";"1";"1";"2";"1";"[21,38,39]";"1";"0";"1"
"129";"24";"5";"1";"32";"1";"1";"2";"1";"[5,15,19,22,24,29,34]";"1";"0";"1"
"130";"5";"5";"1";"20";"1";"1";"2";"2";"[8,27,38]";"2";"0";"1"
"131";"34";"5";"1";"9";"1";"1";"2";"1";"[1,3,10,13,29,37]";"1";"0";"1"
"132";"10";"6";"1";"28";"1";"1";"2";"1";"[7,33]";"1";"0";"1"
"133";"24";"6";"1";"32";"1";"1";"2";"1";"[5,15,19,22,24,29,34]";"1";"0";"1"
"134";"38";"6";"1";"17";"1";"1";"2";"1";"[19]";"1";"0";"1"
"135";"15";"6";"1";"21";"1";"1";"2";"1";"[13,15,23,36,39]";"1";"0";"1"
"136";"9";"7";"1";"14";"1";"1";"2";"1";"[26,35,40]";"1";"0";"1"
"137";"10";"7";"1";"28";"1";"1";"2";"1";"[7,33]";"1";"0";"1"
"138";"36";"7";"1";"25";"1";"1";"2";"1";"[27]";"1";"0";"1"
"139";"20";"7";"1";"16";"1";"1";"2";"1";"[3,11,18,27]";"1";"0";"1"
"140";"38";"7";"1";"17";"1";"1";"2";"1";"[19]";"1";"0";"1"
"141";"33";"7";"1";"12";"1";"1";"2";"1";"[5,22]";"1";"0";"1"
"142";"21";"7";"1";"7";"1";"1";"2";"1";"[28,40]";"1";"0";"1"
"143";"15";"7";"1";"21";"1";"1";"2";"1";"[13,15,23,36,39]";"1";"0";"1"
"144";"13";"8";"1";"37";"1";"1";"2";"1";"[9,10,13,29,30]";"1";"0";"1"
"145";"23";"8";"1";"40";"1";"1";"2";"2";"[7,14,38]";"2";"0";"1"
"146";"14";"8";"1";"5";"1";"1";"2";"1";"[12,22,32]";"1";"0";"1"
"147";"32";"8";"1";"4";"1";"1";"2";"1";"[2,33,38]";"1";"0";"1"
"148";"37";"8";"1";"1";"1";"1";"2";"1";"[3,9,13,23]";"1";"0";"1"
"149";"9";"8";"1";"14";"1";"1";"2";"1";"[26,35,40]";"1";"0";"1"
"150";"36";"8";"1";"25";"1";"1";"2";"1";"[27]";"1";"0";"1"
"151";"20";"8";"1";"16";"1";"1";"2";"1";"[3,11,18,27]";"1";"0";"1"
"152";"26";"8";"1";"23";"1";"1";"2";"1";"[1,13,21]";"1";"0";"1"
"153";"33";"8";"1";"12";"1";"1";"2";"1";"[5,22]";"1";"0";"1"
"154";"39";"8";"1";"10";"1";"1";"2";"2";"[3,9,29,37]";"1";"0";"1"
"155";"2";"8";"1";"33";"1";"1";"2";"2";"[4,28]";"1";"0";"1"
"156";"21";"8";"1";"7";"1";"1";"2";"1";"[28,40]";"1";"0";"1"
"157";"13";"9";"1";"37";"1";"1";"2";"1";"[9,10,13,29,30]";"1";"0";"1"
"158";"23";"9";"1";"40";"1";"1";"2";"2";"[7,14,38]";"2";"0";"1"
"159";"14";"9";"1";"5";"1";"1";"2";"1";"[12,22,32]";"1";"0";"1"
"160";"32";"9";"1";"4";"1";"1";"2";"1";"[2,33,38]";"1";"0";"1"
"161";"37";"9";"1";"1";"1";"1";"2";"1";"[3,9,13,23]";"1";"0";"1"
"162";"8";"9";"1";"29";"1";"1";"2";"1";"[9,10,15,24,32,34,37]";"1";"0";"1"
"163";"26";"9";"1";"23";"1";"1";"2";"1";"[1,13,21]";"1";"0";"1"
"164";"29";"9";"1";"11";"1";"1";"2";"1";"[16,18]";"1";"0";"1"
"165";"31";"9";"1";"31";"1";"1";"2";"1";"[15,19,24,30,34]";"1";"0";"1"
"166";"19";"9";"1";"27";"1";"1";"2";"2";"[16,18,20,25]";"2";"0";"1"
"167";"40";"9";"1";"19";"1";"1";"2";"1";"[17,30,31,32]";"1";"0";"1"
"168";"39";"9";"1";"10";"1";"1";"2";"2";"[3,9,29,37]";"1";"0";"1"
"169";"25";"9";"1";"3";"1";"1";"2";"1";"[1,9,10,13,16,18]";"1";"0";"1"
"170";"2";"9";"1";"33";"1";"1";"2";"2";"[4,28]";"1";"0";"1"
"171";"30";"9";"1";"6";"1";"1";"2";"1";"[8,15,24,30,34]";"1";"0";"1"
"172";"8";"10";"1";"29";"1";"1";"2";"1";"[9,10,15,24,32,34,37]";"1";"0";"1"
"173";"7";"10";"1";"35";"1";"1";"2";"1";"[14,26]";"1";"0";"1"
"174";"29";"10";"1";"11";"1";"1";"2";"1";"[16,18]";"1";"0";"1"
"175";"31";"10";"1";"31";"1";"1";"2";"1";"[15,19,24,30,34]";"1";"0";"1"
"176";"19";"10";"1";"27";"1";"1";"2";"2";"[16,18,20,25]";"2";"0";"1"
"177";"40";"10";"1";"19";"1";"1";"2";"1";"[17,30,31,32]";"1";"0";"1"
"178";"25";"10";"1";"3";"1";"1";"2";"1";"[1,9,10,13,16,18]";"1";"0";"1"
"179";"18";"10";"1";"18";"1";"1";"2";"1";"[3,11,16,27]";"1";"0";"1"
"180";"30";"10";"1";"6";"1";"1";"2";"1";"[8,15,24,30,34]";"1";"0";"1"
"181";"7";"11";"1";"35";"1";"1";"2";"1";"[14,26]";"1";"0";"1"
"182";"1";"11";"1";"2";"1";"1";"2";"1";"[4,38]";"1";"0";"1"
"183";"18";"11";"1";"18";"1";"1";"2";"1";"[3,11,16,27]";"1";"0";"1"
"184";"16";"11";"1";"26";"1";"1";"2";"2";"[14,35]";"1";"0";"1"
"185";"1";"12";"1";"2";"1";"1";"2";"1";"[4,38]";"1";"0";"1"
"186";"4";"12";"1";"34";"1";"1";"2";"2";"[6,15,22,24,29,30,31,32]";"2";"0";"1"
"187";"16";"12";"1";"26";"1";"1";"2";"2";"[14,35]";"1";"0";"1"
"188";"4";"13";"1";"34";"1";"1";"2";"2";"[6,15,22,24,29,30,31,32]";"2";"0";"1"
"189";"22";"13";"1";"39";"1";"1";"2";"2";"[21,36,38]";"2";"0";"1"
"190";"22";"14";"1";"39";"1";"1";"2";"2";"[21,36,38]";"2";"0";"1"
"191";"27";"16";"1";"15";"1";"1";"2";"2";"[6,21,24,29,30,31,32,34]";"2";"0";"1"
"192";"27";"17";"1";"15";"1";"1";"2";"2";"[6,21,24,29,30,31,32,34]";"2";"0";"1"
"193";"11";"17";"1";"22";"1";"1";"2";"1";"[5,12,32,34]";"1";"0";"1"
"194";"6";"17";"1";"8";"1";"1";"2";"1";"[6,20]";"2";"0";"1"
"195";"35";"17";"1";"13";"1";"1";"2";"1";"[1,3,9,21,23,37]";"1";"0";"1"
"196";"11";"18";"1";"22";"1";"1";"2";"1";"[5,12,32,34]";"1";"0";"1"
"197";"6";"18";"1";"8";"1";"1";"2";"1";"[6,20]";"2";"0";"1"
"198";"35";"18";"1";"13";"1";"1";"2";"1";"[1,3,9,21,23,37]";"1";"0";"1"
"199";"27";"19";"1";"15";"1";"1";"2";"2";"[6,21,24,29,30,31,32,34]";"2";"2";"1"
"200";"28";"21";"1";"24";"1";"1";"2";"1";"[6,15,29,30,31,32,34]";"1";"0";"1"
"201";"28";"22";"1";"24";"1";"1";"2";"1";"[6,15,29,30,31,32,34]";"1";"0";"1"
"202";"36";"2";"1";"25";"1";"1";"3";"1";"[27]";"1";"0";"1"
"203";"36";"3";"1";"25";"1";"1";"3";"1";"[27]";"1";"0";"1"
"204";"17";"3";"1";"30";"1";"1";"3";"1";"[6,15,19,24,31,34,37]";"1";"0";"1"
"205";"3";"3";"1";"38";"1";"1";"3";"2";"[2,4,20,36,39,40]";"2";"0";"1"
"206";"12";"4";"1";"36";"1";"1";"3";"1";"[21,38,39]";"1";"0";"1"
"207";"17";"4";"1";"30";"1";"1";"3";"1";"[6,15,19,24,31,34,37]";"1";"0";"1"
"208";"3";"4";"1";"38";"1";"1";"3";"2";"[2,4,20,36,39,40]";"2";"0";"1"
"209";"20";"5";"1";"16";"1";"1";"3";"1";"[3,11,18,27]";"1";"0";"1"
"210";"12";"5";"1";"36";"1";"1";"3";"1";"[21,38,39]";"1";"0";"1"
"211";"10";"5";"1";"28";"1";"1";"3";"1";"[7,33]";"1";"0";"1"
"212";"19";"5";"1";"27";"1";"1";"3";"2";"[16,18,20,25]";"2";"0";"1"
"213";"7";"5";"1";"35";"1";"1";"3";"1";"[14,26]";"1";"0";"1"
"214";"13";"5";"1";"37";"1";"1";"3";"1";"[9,10,13,29,30]";"1";"0";"1"
"215";"20";"6";"1";"16";"1";"1";"3";"1";"[3,11,18,27]";"1";"0";"1"
"216";"34";"6";"1";"9";"1";"1";"3";"1";"[1,3,10,13,29,37]";"1";"0";"1"
"217";"10";"6";"1";"28";"1";"1";"3";"1";"[7,33]";"1";"0";"1"
"218";"27";"6";"1";"15";"1";"1";"3";"2";"[6,21,24,29,30,31,32,34]";"0";"3";"1"
"219";"19";"6";"1";"27";"1";"1";"3";"2";"[16,18,20,25]";"2";"0";"1"
"220";"15";"6";"1";"21";"1";"1";"3";"1";"[13,15,23,36,39]";"1";"0";"1"
"221";"7";"6";"1";"35";"1";"1";"3";"1";"[14,26]";"1";"0";"1"
"222";"13";"6";"1";"37";"1";"1";"3";"1";"[9,10,13,29,30]";"1";"0";"1"
"223";"27";"7";"1";"15";"1";"1";"3";"2";"[6,21,24,29,30,31,32,34]";"0";"3";"1"
"224";"34";"7";"1";"9";"1";"1";"3";"1";"[1,3,10,13,29,37]";"1";"0";"1"
"225";"39";"7";"1";"10";"1";"1";"3";"2";"[3,9,29,37]";"1";"0";"1"
"226";"11";"7";"1";"22";"1";"1";"3";"1";"[5,12,32,34]";"2";"0";"1"
"227";"24";"7";"1";"32";"1";"1";"3";"1";"[5,15,19,22,24,29,34]";"1";"0";"1"
"228";"15";"7";"1";"21";"1";"1";"3";"1";"[13,15,23,36,39]";"1";"0";"1"
"229";"16";"8";"1";"26";"1";"1";"3";"2";"[14,35]";"1";"0";"1"
"230";"18";"8";"1";"18";"1";"1";"3";"1";"[3,11,16,27]";"1";"0";"1"
"231";"8";"8";"1";"29";"1";"1";"3";"1";"[9,10,15,24,32,34,37]";"1";"0";"1"
"232";"14";"8";"1";"5";"1";"1";"3";"1";"[12,22,32]";"1";"0";"1"
"233";"39";"8";"1";"10";"1";"1";"3";"2";"[3,9,29,37]";"1";"0";"1"
"234";"27";"8";"1";"15";"1";"1";"3";"2";"[6,21,24,29,30,31,32,34]";"0";"1";"1"
"235";"33";"8";"1";"12";"1";"1";"3";"1";"[5,22]";"1";"0";"1"
"236";"11";"8";"1";"22";"1";"1";"3";"1";"[5,12,32,34]";"2";"0";"1"
"237";"24";"8";"1";"32";"1";"1";"3";"1";"[5,15,19,22,24,29,34]";"1";"0";"1"
"238";"23";"8";"1";"40";"1";"1";"3";"2";"[7,14,38]";"2";"0";"1"
"239";"16";"9";"1";"26";"1";"1";"3";"2";"[14,35]";"1";"0";"1"
"240";"27";"9";"1";"15";"1";"1";"3";"2";"[6,21,24,29,30,31,32,34]";"0";"2";"1"
"241";"18";"9";"1";"18";"1";"1";"3";"1";"[3,11,16,27]";"1";"0";"1"
"242";"8";"9";"1";"29";"1";"1";"3";"1";"[9,10,15,24,32,34,37]";"1";"0";"1"
"243";"14";"9";"1";"5";"1";"1";"3";"1";"[12,22,32]";"1";"0";"1"
"244";"25";"9";"1";"3";"1";"1";"3";"1";"[1,9,10,13,16,18]";"1";"0";"1"
"245";"33";"9";"1";"12";"1";"1";"3";"1";"[5,22]";"1";"0";"1"
"246";"26";"9";"1";"23";"1";"1";"3";"1";"[1,13,21]";"1";"0";"1"
"247";"23";"9";"1";"40";"1";"1";"3";"2";"[7,14,38]";"2";"0";"1"
"248";"27";"9";"1";"15";"1";"1";"3";"2";"[6,21,24,29,30,31,32,34]";"0";"1";"1"
"249";"2";"10";"1";"33";"1";"1";"3";"2";"[4,28]";"1";"0";"1"
"250";"9";"10";"1";"14";"1";"1";"3";"1";"[26,35,40]";"1";"0";"1"
"251";"31";"10";"1";"31";"1";"1";"3";"1";"[15,19,24,30,34]";"1";"0";"1"
"252";"25";"10";"1";"3";"1";"1";"3";"1";"[1,9,10,13,16,18]";"1";"0";"1"
"253";"27";"10";"1";"15";"1";"1";"3";"2";"[6,21,24,29,30,31,32,34]";"0";"2";"1"
"254";"26";"10";"1";"23";"1";"1";"3";"1";"[1,13,21]";"1";"0";"1"
"255";"35";"10";"1";"13";"1";"1";"3";"1";"[1,3,9,21,23,37]";"1";"0";"1"
"256";"2";"11";"1";"33";"1";"1";"3";"2";"[4,28]";"1";"0";"1"
"257";"32";"11";"1";"4";"1";"1";"3";"1";"[2,33,38]";"2";"0";"1"
"258";"9";"11";"1";"14";"1";"1";"3";"1";"[26,35,40]";"1";"0";"1"
"259";"31";"11";"1";"31";"1";"1";"3";"1";"[15,19,24,30,34]";"1";"0";"1"
"260";"35";"11";"1";"13";"1";"1";"3";"1";"[1,3,9,21,23,37]";"1";"0";"1"
"261";"5";"12";"1";"20";"1";"1";"3";"2";"[8,27,38]";"2";"0";"1"
"262";"30";"12";"1";"6";"1";"1";"3";"1";"[8,15,24,30,34]";"1";"0";"1"
"263";"32";"12";"1";"4";"1";"1";"3";"1";"[2,33,38]";"2";"0";"1"
"264";"6";"12";"1";"8";"1";"1";"3";"1";"[6,20]";"2";"0";"1"
"265";"28";"12";"1";"24";"1";"1";"3";"1";"[6,15,29,30,31,32,34]";"1";"0";"1"
"266";"5";"13";"1";"20";"1";"1";"3";"2";"[8,27,38]";"2";"0";"1"
"267";"30";"13";"1";"6";"1";"1";"3";"1";"[8,15,24,30,34]";"1";"0";"1"
"268";"40";"13";"1";"19";"1";"1";"3";"1";"[17,30,31,32]";"2";"0";"1"
"269";"6";"13";"1";"8";"1";"1";"3";"1";"[6,20]";"2";"0";"1"
"270";"28";"13";"1";"24";"1";"1";"3";"1";"[6,15,29,30,31,32,34]";"1";"0";"1"
"271";"1";"13";"1";"2";"1";"1";"3";"1";"[4,38]";"1";"0";"1"
"272";"21";"13";"1";"7";"1";"1";"3";"1";"[28,40]";"1";"0";"1"
"273";"22";"14";"1";"39";"1";"1";"3";"2";"[21,36,38]";"2";"0";"1"
"274";"40";"14";"1";"19";"1";"1";"3";"1";"[17,30,31,32]";"2";"0";"1"
"275";"38";"14";"1";"17";"1";"1";"3";"1";"[19]";"1";"0";"1"
"276";"1";"14";"1";"2";"1";"1";"3";"1";"[4,38]";"1";"0";"1"
"277";"21";"14";"1";"7";"1";"1";"3";"1";"[28,40]";"1";"0";"1"
"278";"22";"15";"1";"39";"1";"1";"3";"2";"[21,36,38]";"2";"0";"1"
"279";"38";"15";"1";"17";"1";"1";"3";"1";"[19]";"1";"0";"1"
"280";"29";"16";"1";"11";"1";"1";"3";"1";"[16,18]";"1";"0";"1"
"281";"27";"17";"1";"15";"1";"1";"3";"2";"[6,21,24,29,30,31,32,34]";"2";"2";"1"
"282";"37";"17";"1";"1";"1";"1";"3";"1";"[3,9,13,23]";"1";"0";"1"
"283";"29";"17";"1";"11";"1";"1";"3";"1";"[16,18]";"1";"0";"1"
"284";"27";"18";"1";"15";"1";"1";"3";"2";"[6,21,24,29,30,31,32,34]";"2";"2";"1"
"285";"37";"18";"1";"1";"1";"1";"3";"1";"[3,9,13,23]";"1";"0";"1"
"286";"7";"22";"1";"35";"1";"1";"3";"1";"[14,26]";"1";"1";"1"
"287";"4";"23";"1";"34";"1";"1";"3";"2";"[6,15,22,24,29,30,31,32]";"1";"0";"1"
"288";"38";"23";"1";"17";"1";"1";"3";"1";"[19]";"1";"1";"1"
"289";"4";"24";"1";"34";"1";"1";"3";"2";"[6,15,22,24,29,30,31,32]";"1";"0";"1"
"290";"10";"1";"1";"28";"1";"1";"4";"1";"[7,33]";"1";"0";"1"
"291";"10";"2";"1";"28";"1";"1";"4";"1";"[7,33]";"1";"0";"1"
"292";"33";"2";"1";"12";"1";"1";"4";"1";"[5,22]";"2";"0";"1"
"293";"17";"3";"1";"30";"1";"1";"4";"1";"[6,15,19,24,31,34,37]";"1";"0";"1"
"294";"34";"3";"1";"9";"1";"1";"4";"1";"[1,3,10,13,29,37]";"1";"0";"1"
"295";"32";"3";"1";"4";"1";"1";"4";"1";"[2,33,38]";"2";"0";"1"
"296";"3";"3";"1";"38";"1";"1";"4";"2";"[2,4,20,36,39,40]";"2";"0";"1"
"297";"35";"3";"1";"13";"1";"1";"4";"1";"[1,3,9,21,23,37]";"1";"0";"1"
"298";"20";"3";"1";"16";"1";"1";"4";"1";"[3,11,18,27]";"1";"0";"1"
"299";"13";"3";"1";"37";"1";"1";"4";"1";"[9,10,13,29,30]";"1";"0";"1"
"300";"12";"3";"1";"36";"1";"1";"4";"1";"[21,38,39]";"1";"0";"1"
"301";"27";"3";"1";"15";"1";"1";"4";"2";"[6,21,24,29,30,31,32,34]";"0";"2";"1"
"302";"33";"3";"1";"12";"1";"1";"4";"1";"[5,22]";"2";"0";"1"
"303";"17";"4";"1";"30";"1";"1";"4";"1";"[6,15,19,24,31,34,37]";"1";"0";"1"
"304";"34";"4";"1";"9";"1";"1";"4";"1";"[1,3,10,13,29,37]";"1";"0";"1"
"305";"7";"4";"1";"35";"1";"1";"4";"1";"[14,26]";"1";"0";"1"
"306";"32";"4";"1";"4";"1";"1";"4";"1";"[2,33,38]";"2";"0";"1"
"307";"3";"4";"1";"38";"1";"1";"4";"2";"[2,4,20,36,39,40]";"2";"0";"1"
"308";"35";"4";"1";"13";"1";"1";"4";"1";"[1,3,9,21,23,37]";"1";"0";"1"
"309";"20";"4";"1";"16";"1";"1";"4";"1";"[3,11,18,27]";"1";"0";"1"
"310";"36";"4";"1";"25";"1";"1";"4";"1";"[27]";"2";"0";"1"
"311";"13";"4";"1";"37";"1";"1";"4";"1";"[9,10,13,29,30]";"1";"0";"1"
"312";"12";"4";"1";"36";"1";"1";"4";"1";"[21,38,39]";"1";"0";"1"
"313";"27";"4";"1";"15";"1";"1";"4";"2";"[6,21,24,29,30,31,32,34]";"0";"1";"1"
"314";"15";"4";"1";"21";"1";"1";"4";"1";"[13,15,23,36,39]";"0";"2";"1"
"315";"7";"5";"1";"35";"1";"1";"4";"1";"[14,26]";"1";"0";"1"
"316";"39";"5";"1";"10";"1";"1";"4";"2";"[3,9,29,37]";"1";"0";"1"
"317";"36";"5";"1";"25";"1";"1";"4";"1";"[27]";"2";"0";"1"
"318";"31";"5";"1";"31";"1";"1";"4";"1";"[15,19,24,30,34]";"2";"0";"1"
"319";"27";"5";"1";"15";"1";"1";"4";"2";"[6,21,24,29,30,31,32,34]";"0";"4";"1"
"320";"12";"5";"1";"36";"1";"1";"4";"1";"[21,38,39]";"1";"1";"1"
"321";"6";"5";"1";"8";"1";"1";"4";"1";"[6,20]";"1";"0";"1"
"322";"15";"6";"1";"21";"1";"1";"4";"1";"[13,15,23,36,39]";"0";"1";"1"
"323";"1";"6";"1";"2";"1";"1";"4";"1";"[4,38]";"2";"0";"1"
"324";"39";"6";"1";"10";"1";"1";"4";"2";"[3,9,29,37]";"1";"0";"1"
"325";"37";"6";"1";"1";"1";"1";"4";"1";"[3,9,13,23]";"1";"0";"1"
"326";"31";"6";"1";"31";"1";"1";"4";"1";"[15,19,24,30,34]";"2";"0";"1"
"327";"27";"6";"1";"15";"1";"1";"4";"2";"[6,21,24,29,30,31,32,34]";"0";"5";"1"
"328";"28";"6";"1";"24";"1";"1";"4";"1";"[6,15,29,30,31,32,34]";"1";"0";"1"
"329";"6";"6";"1";"8";"1";"1";"4";"1";"[6,20]";"1";"0";"1"
"330";"1";"7";"1";"2";"1";"1";"4";"1";"[4,38]";"2";"0";"1"
"331";"14";"7";"1";"5";"1";"1";"4";"1";"[12,22,32]";"1";"0";"1"
"332";"26";"7";"1";"23";"1";"1";"4";"1";"[1,13,21]";"1";"0";"1"
"333";"37";"7";"1";"1";"1";"1";"4";"1";"[3,9,13,23]";"1";"0";"1"
"334";"27";"7";"1";"15";"1";"1";"4";"2";"[6,21,24,29,30,31,32,34]";"0";"5";"1"
"335";"12";"7";"1";"36";"1";"1";"4";"1";"[21,38,39]";"1";"3";"1"
"336";"28";"7";"1";"24";"1";"1";"4";"1";"[6,15,29,30,31,32,34]";"1";"0";"1"
"337";"19";"8";"1";"27";"1";"1";"4";"2";"[16,18,20,25]";"2";"0";"1"
"338";"21";"8";"1";"7";"1";"1";"4";"1";"[28,40]";"1";"0";"1"
"339";"2";"8";"1";"33";"1";"1";"4";"2";"[4,28]";"1";"0";"1"
"340";"14";"8";"1";"5";"1";"1";"4";"1";"[12,22,32]";"1";"0";"1"
"341";"26";"8";"1";"23";"1";"1";"4";"1";"[1,13,21]";"1";"0";"1"
"342";"18";"8";"1";"18";"1";"1";"4";"1";"[3,11,16,27]";"1";"0";"1"
"343";"15";"8";"1";"21";"1";"1";"4";"1";"[13,15,23,36,39]";"0";"3";"1"
"344";"19";"9";"1";"27";"1";"1";"4";"2";"[16,18,20,25]";"2";"0";"1"
"345";"21";"9";"1";"7";"1";"1";"4";"1";"[28,40]";"1";"0";"1"
"346";"2";"9";"1";"33";"1";"1";"4";"2";"[4,28]";"1";"0";"1"
"347";"18";"9";"1";"18";"1";"1";"4";"1";"[3,11,16,27]";"1";"0";"1"
"348";"9";"9";"1";"14";"1";"1";"4";"1";"[26,35,40]";"1";"0";"1"
"349";"22";"10";"1";"39";"1";"1";"4";"2";"[21,36,38]";"1";"0";"1"
"350";"16";"10";"1";"26";"1";"1";"4";"2";"[14,35]";"1";"0";"1"
"351";"9";"10";"1";"14";"1";"1";"4";"1";"[26,35,40]";"1";"0";"1"
"352";"15";"11";"1";"21";"1";"1";"4";"1";"[13,15,23,36,39]";"0";"4";"1"
"353";"22";"11";"1";"39";"1";"1";"4";"2";"[21,36,38]";"1";"0";"1"
"354";"16";"11";"1";"26";"1";"1";"4";"2";"[14,35]";"1";"0";"1"
"355";"27";"11";"1";"15";"1";"1";"4";"2";"[6,21,24,29,30,31,32,34]";"2";"5";"1"
"356";"25";"12";"1";"3";"1";"1";"4";"1";"[1,9,10,13,16,18]";"1";"0";"1"
"357";"27";"12";"1";"15";"1";"1";"4";"2";"[6,21,24,29,30,31,32,34]";"2";"5";"1"
"358";"15";"12";"1";"21";"1";"1";"4";"1";"[13,15,23,36,39]";"0";"5";"1"
"359";"8";"13";"1";"29";"1";"1";"4";"1";"[9,10,15,24,32,34,37]";"1";"0";"1"
"360";"23";"13";"1";"40";"1";"1";"4";"2";"[7,14,38]";"2";"0";"1"
"361";"11";"13";"1";"22";"1";"1";"4";"1";"[5,12,32,34]";"2";"0";"1"
"362";"25";"13";"1";"3";"1";"1";"4";"1";"[1,9,10,13,16,18]";"1";"0";"1"
"363";"8";"14";"1";"29";"1";"1";"4";"1";"[9,10,15,24,32,34,37]";"1";"0";"1"
"364";"23";"14";"1";"40";"1";"1";"4";"2";"[7,14,38]";"2";"0";"1"
"365";"11";"14";"1";"22";"1";"1";"4";"1";"[5,12,32,34]";"2";"0";"1"
"366";"30";"14";"1";"6";"1";"1";"4";"1";"[8,15,24,30,34]";"1";"0";"1"
"367";"30";"15";"1";"6";"1";"1";"4";"1";"[8,15,24,30,34]";"1";"0";"1"
"368";"15";"15";"1";"21";"1";"1";"4";"1";"[13,15,23,36,39]";"1";"5";"1"
"369";"15";"16";"1";"21";"1";"1";"4";"1";"[13,15,23,36,39]";"1";"5";"1"
"370";"40";"17";"1";"19";"1";"1";"4";"1";"[17,30,31,32]";"1";"0";"1"
"371";"38";"18";"1";"17";"1";"1";"4";"1";"[19]";"2";"0";"1"
"372";"40";"18";"1";"19";"1";"1";"4";"1";"[17,30,31,32]";"1";"0";"1"
"373";"5";"19";"1";"20";"1";"1";"4";"2";"[8,27,38]";"2";"0";"1"
"374";"38";"19";"1";"17";"1";"1";"4";"1";"[19]";"2";"0";"1"
"375";"5";"20";"1";"20";"1";"1";"4";"2";"[8,27,38]";"2";"0";"1"
"376";"4";"22";"1";"34";"1";"1";"4";"2";"[6,15,22,24,29,30,31,32]";"1";"0";"1"
"377";"4";"23";"1";"34";"1";"1";"4";"2";"[6,15,22,24,29,30,31,32]";"1";"0";"1"
"378";"9";"23";"1";"14";"1";"1";"4";"1";"[26,35,40]";"1";"2";"1"
"379";"24";"23";"1";"32";"1";"1";"4";"1";"[5,15,19,22,24,29,34]";"1";"0";"1"
"380";"9";"24";"1";"14";"1";"1";"4";"1";"[26,35,40]";"1";"3";"1"
"381";"24";"24";"1";"32";"1";"1";"4";"1";"[5,15,19,22,24,29,34]";"1";"0";"1"
"382";"29";"26";"1";"11";"1";"1";"4";"1";"[16,18]";"1";"0";"1"
"383";"29";"27";"1";"11";"1";"1";"4";"1";"[16,18]";"1";"0";"1"
"384";"9";"0";"1";"14";"1";"1";"5";"1";"[26,35,40]";"0";"7";"1"
"385";"17";"2";"1";"30";"1";"1";"5";"1";"[6,15,19,24,31,34,37]";"1";"0";"1"
"386";"12";"2";"1";"36";"1";"1";"5";"1";"[21,38,39]";"1";"0";"1"
"387";"36";"2";"1";"25";"1";"1";"5";"1";"[27]";"1";"0";"1"
"388";"35";"3";"1";"13";"1";"1";"5";"1";"[1,3,9,21,23,37]";"1";"0";"1"
"389";"34";"3";"1";"9";"1";"1";"5";"1";"[1,3,10,13,29,37]";"1";"0";"1"
"390";"17";"3";"1";"30";"1";"1";"5";"1";"[6,15,19,24,31,34,37]";"1";"0";"1"
"391";"38";"3";"1";"17";"1";"1";"5";"1";"[19]";"1";"0";"1"
"392";"10";"3";"1";"28";"1";"1";"5";"1";"[7,33]";"1";"0";"1"
"393";"12";"3";"1";"36";"1";"1";"5";"1";"[21,38,39]";"1";"0";"1"
"394";"36";"3";"1";"25";"1";"1";"5";"1";"[27]";"1";"0";"1"
"395";"35";"4";"1";"13";"1";"1";"5";"1";"[1,3,9,21,23,37]";"1";"0";"1"
"396";"32";"4";"1";"4";"1";"1";"5";"1";"[2,33,38]";"1";"0";"1"
"397";"34";"4";"1";"9";"1";"1";"5";"1";"[1,3,10,13,29,37]";"1";"0";"1"
"398";"13";"4";"1";"37";"1";"1";"5";"1";"[9,10,13,29,30]";"1";"0";"1"
"399";"28";"4";"1";"24";"1";"1";"5";"1";"[6,15,29,30,31,32,34]";"1";"0";"1"
"400";"5";"4";"1";"20";"1";"1";"5";"2";"[8,27,38]";"0";"2";"1"
"401";"38";"4";"1";"17";"1";"1";"5";"1";"[19]";"1";"0";"1"
"402";"10";"4";"1";"28";"1";"1";"5";"1";"[7,33]";"1";"0";"1"
"403";"24";"4";"1";"32";"1";"1";"5";"1";"[5,15,19,22,24,29,34]";"0";"3";"1"
"404";"20";"5";"1";"16";"1";"1";"5";"1";"[3,11,18,27]";"1";"0";"1"
"405";"32";"5";"1";"4";"1";"1";"5";"1";"[2,33,38]";"1";"0";"1"
"406";"31";"5";"1";"31";"1";"1";"5";"1";"[15,19,24,30,34]";"1";"0";"1"
"407";"13";"5";"1";"37";"1";"1";"5";"1";"[9,10,13,29,30]";"1";"0";"1"
"408";"3";"5";"1";"38";"1";"1";"5";"2";"[2,4,20,36,39,40]";"2";"0";"1"
"409";"25";"5";"1";"3";"1";"1";"5";"1";"[1,9,10,13,16,18]";"1";"0";"1"
"410";"28";"5";"1";"24";"1";"1";"5";"1";"[6,15,29,30,31,32,34]";"1";"0";"1"
"411";"5";"5";"1";"20";"1";"1";"5";"2";"[8,27,38]";"0";"3";"1"
"412";"20";"6";"1";"16";"1";"1";"5";"1";"[3,11,18,27]";"1";"0";"1"
"413";"31";"6";"1";"31";"1";"1";"5";"1";"[15,19,24,30,34]";"1";"0";"1"
"414";"2";"6";"1";"33";"1";"1";"5";"2";"[4,28]";"1";"0";"1"
"415";"3";"6";"1";"38";"1";"1";"5";"2";"[2,4,20,36,39,40]";"2";"0";"1"
"416";"25";"6";"1";"3";"1";"1";"5";"1";"[1,9,10,13,16,18]";"1";"0";"1"
"417";"7";"6";"1";"35";"1";"1";"5";"1";"[14,26]";"1";"0";"1"
"418";"24";"6";"1";"32";"1";"1";"5";"1";"[5,15,19,22,24,29,34]";"0";"2";"1"
"419";"15";"6";"1";"21";"1";"1";"5";"1";"[13,15,23,36,39]";"1";"0";"1"
"420";"27";"7";"1";"15";"1";"1";"5";"2";"[6,21,24,29,30,31,32,34]";"0";"3";"1"
"421";"2";"7";"1";"33";"1";"1";"5";"2";"[4,28]";"1";"0";"1"
"422";"7";"7";"1";"35";"1";"1";"5";"1";"[14,26]";"1";"0";"1"
"423";"5";"7";"1";"20";"1";"1";"5";"2";"[8,27,38]";"0";"4";"1"
"424";"15";"7";"1";"21";"1";"1";"5";"1";"[13,15,23,36,39]";"1";"0";"1"
"425";"27";"7";"1";"15";"1";"1";"5";"2";"[6,21,24,29,30,31,32,34]";"0";"2";"1"
"426";"26";"8";"1";"23";"1";"1";"5";"1";"[1,13,21]";"1";"0";"1"
"427";"33";"8";"1";"12";"1";"1";"5";"1";"[5,22]";"2";"0";"1"
"428";"27";"8";"1";"15";"1";"1";"5";"2";"[6,21,24,29,30,31,32,34]";"0";"1";"1"
"429";"19";"8";"1";"27";"1";"1";"5";"2";"[16,18,20,25]";"2";"0";"1"
"430";"8";"8";"1";"29";"1";"1";"5";"1";"[9,10,15,24,32,34,37]";"1";"0";"1"
"431";"18";"8";"1";"18";"1";"1";"5";"1";"[3,11,16,27]";"1";"0";"1"
"432";"26";"9";"1";"23";"1";"1";"5";"1";"[1,13,21]";"1";"0";"1"
"433";"33";"9";"1";"12";"1";"1";"5";"1";"[5,22]";"2";"0";"1"
"434";"24";"9";"1";"32";"1";"1";"5";"1";"[5,15,19,22,24,29,34]";"0";"3";"1"
"435";"39";"9";"1";"10";"1";"1";"5";"2";"[3,9,29,37]";"1";"0";"1"
"436";"16";"9";"1";"26";"1";"1";"5";"2";"[14,35]";"1";"0";"1"
"437";"19";"9";"1";"27";"1";"1";"5";"2";"[16,18,20,25]";"2";"0";"1"
"438";"27";"9";"1";"15";"1";"1";"5";"2";"[6,21,24,29,30,31,32,34]";"0";"4";"1"
"439";"14";"9";"1";"5";"1";"1";"5";"1";"[12,22,32]";"1";"0";"1"
"440";"30";"9";"1";"6";"1";"1";"5";"1";"[8,15,24,30,34]";"1";"0";"1"
"441";"8";"9";"1";"29";"1";"1";"5";"1";"[9,10,15,24,32,34,37]";"1";"0";"1"
"442";"18";"9";"1";"18";"1";"1";"5";"1";"[3,11,16,27]";"1";"0";"1"
"443";"11";"9";"1";"22";"1";"1";"5";"1";"[5,12,32,34]";"1";"0";"1"
"444";"39";"10";"1";"10";"1";"1";"5";"2";"[3,9,29,37]";"1";"0";"1"
"445";"6";"10";"1";"8";"1";"1";"5";"1";"[6,20]";"1";"0";"1"
"446";"16";"10";"1";"26";"1";"1";"5";"2";"[14,35]";"1";"0";"1"
"447";"14";"10";"1";"5";"1";"1";"5";"1";"[12,22,32]";"1";"0";"1"
"448";"30";"10";"1";"6";"1";"1";"5";"1";"[8,15,24,30,34]";"1";"0";"1"
"449";"11";"10";"1";"22";"1";"1";"5";"1";"[5,12,32,34]";"1";"0";"1"
"450";"22";"11";"1";"39";"1";"1";"5";"2";"[21,36,38]";"2";"0";"1"
"451";"24";"11";"1";"32";"1";"1";"5";"1";"[5,15,19,22,24,29,34]";"0";"4";"1"
"452";"6";"11";"1";"8";"1";"1";"5";"1";"[6,20]";"1";"0";"1"
"453";"37";"11";"1";"1";"1";"1";"5";"1";"[3,9,13,23]";"1";"0";"1"
"454";"29";"12";"1";"11";"1";"1";"5";"1";"[16,18]";"1";"0";"1"
"455";"22";"12";"1";"39";"1";"1";"5";"2";"[21,36,38]";"2";"0";"1"
"456";"9";"12";"1";"14";"1";"1";"5";"1";"[26,35,40]";"2";"7";"1"
"457";"5";"12";"1";"20";"1";"1";"5";"2";"[8,27,38]";"0";"5";"1"
"458";"37";"12";"1";"1";"1";"1";"5";"1";"[3,9,13,23]";"1";"0";"1"
"459";"29";"13";"1";"11";"1";"1";"5";"1";"[16,18]";"1";"0";"1"
"460";"24";"13";"1";"32";"1";"1";"5";"1";"[5,15,19,22,24,29,34]";"1";"4";"1"
"461";"9";"13";"1";"14";"1";"1";"5";"1";"[26,35,40]";"2";"7";"1"
"462";"24";"14";"1";"32";"1";"1";"5";"1";"[5,15,19,22,24,29,34]";"1";"4";"1"
"463";"1";"14";"1";"2";"1";"1";"5";"1";"[4,38]";"1";"0";"1"
"464";"1";"15";"1";"2";"1";"1";"5";"1";"[4,38]";"1";"0";"1"
"465";"23";"15";"1";"40";"1";"1";"5";"2";"[7,14,38]";"2";"0";"1"
"466";"40";"16";"1";"19";"1";"1";"5";"1";"[17,30,31,32]";"1";"0";"1"
"467";"23";"16";"1";"40";"1";"1";"5";"2";"[7,14,38]";"2";"0";"1"
"468";"40";"17";"1";"19";"1";"1";"5";"1";"[17,30,31,32]";"1";"0";"1"
"469";"5";"18";"1";"20";"1";"1";"5";"2";"[8,27,38]";"2";"5";"1"
"470";"5";"19";"1";"20";"1";"1";"5";"2";"[8,27,38]";"2";"5";"1"
"471";"27";"20";"1";"15";"1";"1";"5";"2";"[6,21,24,29,30,31,32,34]";"2";"4";"1"
"472";"4";"21";"1";"34";"1";"1";"5";"2";"[6,15,22,24,29,30,31,32]";"2";"0";"1"
"473";"27";"21";"1";"15";"1";"1";"5";"2";"[6,21,24,29,30,31,32,34]";"2";"4";"1"
"474";"4";"22";"1";"34";"1";"1";"5";"2";"[6,15,22,24,29,30,31,32]";"2";"0";"1"
"475";"21";"23";"1";"7";"1";"1";"5";"1";"[28,40]";"1";"0";"1"
"476";"21";"24";"1";"7";"1";"1";"5";"1";"[28,40]";"1";"0";"1"
"477";"10";"1";"1";"28";"1";"1";"6";"1";"[7,33]";"1";"0";"1"
"478";"33";"2";"1";"12";"1";"1";"6";"1";"[5,22]";"1";"0";"1"
"479";"17";"2";"1";"30";"1";"1";"6";"1";"[6,15,19,24,31,34,37]";"1";"0";"1"
"480";"34";"2";"1";"9";"1";"1";"6";"1";"[1,3,10,13,29,37]";"1";"0";"1"
"481";"12";"2";"1";"36";"1";"1";"6";"1";"[21,38,39]";"1";"0";"1"
"482";"13";"2";"1";"37";"1";"1";"6";"1";"[9,10,13,29,30]";"1";"0";"1"
"483";"32";"2";"1";"4";"1";"1";"6";"1";"[2,33,38]";"1";"0";"1"
"484";"10";"2";"1";"28";"1";"1";"6";"1";"[7,33]";"1";"0";"1"
"485";"35";"2";"1";"13";"1";"1";"6";"1";"[1,3,9,21,23,37]";"0";"1";"1"
"486";"33";"3";"1";"12";"1";"1";"6";"1";"[5,22]";"1";"0";"1"
"487";"17";"3";"1";"30";"1";"1";"6";"1";"[6,15,19,24,31,34,37]";"1";"0";"1"
"488";"34";"3";"1";"9";"1";"1";"6";"1";"[1,3,10,13,29,37]";"1";"0";"1"
"489";"12";"3";"1";"36";"1";"1";"6";"1";"[21,38,39]";"1";"0";"1"
"490";"13";"3";"1";"37";"1";"1";"6";"1";"[9,10,13,29,30]";"1";"0";"1"
"491";"32";"3";"1";"4";"1";"1";"6";"1";"[2,33,38]";"1";"0";"1"
"492";"3";"4";"1";"38";"1";"1";"6";"2";"[2,4,20,36,39,40]";"2";"0";"1"
"493";"35";"4";"1";"13";"1";"1";"6";"1";"[1,3,9,21,23,37]";"0";"6";"1"
"494";"31";"4";"1";"31";"1";"1";"6";"1";"[15,19,24,30,34]";"1";"0";"1"
"495";"2";"5";"1";"33";"1";"1";"6";"2";"[4,28]";"1";"0";"1"
"496";"3";"5";"1";"38";"1";"1";"6";"2";"[2,4,20,36,39,40]";"2";"0";"1"
"497";"8";"5";"1";"29";"1";"1";"6";"1";"[9,10,15,24,32,34,37]";"1";"0";"1"
"498";"31";"5";"1";"31";"1";"1";"6";"1";"[15,19,24,30,34]";"1";"0";"1"
"499";"26";"5";"1";"23";"1";"1";"6";"1";"[1,13,21]";"1";"0";"1"
"500";"39";"5";"1";"10";"1";"1";"6";"2";"[3,9,29,37]";"1";"0";"1"
"501";"2";"6";"1";"33";"1";"1";"6";"2";"[4,28]";"1";"0";"1"
"502";"8";"6";"1";"29";"1";"1";"6";"1";"[9,10,15,24,32,34,37]";"1";"0";"1"
"503";"26";"6";"1";"23";"1";"1";"6";"1";"[1,13,21]";"1";"0";"1"
"504";"39";"6";"1";"10";"1";"1";"6";"2";"[3,9,29,37]";"1";"0";"1"
"505";"35";"7";"1";"13";"1";"1";"6";"1";"[1,3,9,21,23,37]";"1";"6";"1"
"506";"9";"7";"1";"14";"1";"1";"6";"1";"[26,35,40]";"1";"0";"1"
"507";"36";"7";"1";"25";"1";"1";"6";"1";"[27]";"1";"0";"1"
"508";"28";"7";"1";"24";"1";"1";"6";"1";"[6,15,29,30,31,32,34]";"1";"0";"1"
"509";"16";"7";"1";"26";"1";"1";"6";"2";"[14,35]";"1";"0";"1"
"510";"7";"8";"1";"35";"1";"1";"6";"1";"[14,26]";"2";"0";"1"
"511";"35";"8";"1";"13";"1";"1";"6";"1";"[1,3,9,21,23,37]";"1";"6";"1"
"512";"9";"8";"1";"14";"1";"1";"6";"1";"[26,35,40]";"1";"0";"1"
"513";"36";"8";"1";"25";"1";"1";"6";"1";"[27]";"1";"0";"1"
"514";"28";"8";"1";"24";"1";"1";"6";"1";"[6,15,29,30,31,32,34]";"1";"0";"1"
"515";"37";"8";"1";"1";"1";"1";"6";"1";"[3,9,13,23]";"1";"0";"1"
"516";"16";"8";"1";"26";"1";"1";"6";"2";"[14,35]";"1";"0";"1"
"517";"7";"9";"1";"35";"1";"1";"6";"1";"[14,26]";"2";"0";"1"
"518";"14";"9";"1";"5";"1";"1";"6";"1";"[12,22,32]";"1";"0";"1"
"519";"37";"9";"1";"1";"1";"1";"6";"1";"[3,9,13,23]";"1";"0";"1"
"520";"20";"9";"1";"16";"1";"1";"6";"1";"[3,11,18,27]";"2";"0";"1"
"521";"15";"9";"1";"21";"1";"1";"6";"1";"[13,15,23,36,39]";"1";"0";"1"
"522";"14";"10";"1";"5";"1";"1";"6";"1";"[12,22,32]";"1";"0";"1"
"523";"38";"10";"1";"17";"1";"1";"6";"1";"[19]";"1";"0";"1"
"524";"30";"10";"1";"6";"1";"1";"6";"1";"[8,15,24,30,34]";"1";"0";"1"
"525";"15";"10";"1";"21";"1";"1";"6";"1";"[13,15,23,36,39]";"1";"0";"1"
"526";"20";"10";"1";"16";"1";"1";"6";"1";"[3,11,18,27]";"2";"0";"1"
"527";"18";"11";"1";"18";"1";"1";"6";"1";"[3,11,16,27]";"1";"0";"1"
"528";"38";"11";"1";"17";"1";"1";"6";"1";"[19]";"1";"0";"1"
"529";"30";"11";"1";"6";"1";"1";"6";"1";"[8,15,24,30,34]";"1";"0";"1"
"530";"22";"11";"1";"39";"1";"1";"6";"2";"[21,36,38]";"1";"0";"1"
"531";"6";"11";"1";"8";"1";"1";"6";"1";"[6,20]";"2";"0";"1"
"532";"5";"12";"1";"20";"1";"1";"6";"2";"[8,27,38]";"2";"0";"1"
"533";"18";"12";"1";"18";"1";"1";"6";"1";"[3,11,16,27]";"1";"0";"1"
"534";"27";"12";"1";"15";"1";"1";"6";"2";"[6,21,24,29,30,31,32,34]";"2";"0";"1"
"535";"15";"12";"1";"21";"1";"1";"6";"1";"[13,15,23,36,39]";"1";"4";"1"
"536";"22";"12";"1";"39";"1";"1";"6";"2";"[21,36,38]";"1";"0";"1"
"537";"23";"12";"1";"40";"1";"1";"6";"2";"[7,14,38]";"2";"0";"1"
"538";"6";"12";"1";"8";"1";"1";"6";"1";"[6,20]";"2";"0";"1"
"539";"5";"13";"1";"20";"1";"1";"6";"2";"[8,27,38]";"2";"0";"1"
"540";"27";"13";"1";"15";"1";"1";"6";"2";"[6,21,24,29,30,31,32,34]";"2";"0";"1"
"541";"19";"13";"1";"27";"1";"1";"6";"2";"[16,18,20,25]";"2";"0";"1"
"542";"15";"13";"1";"21";"1";"1";"6";"1";"[13,15,23,36,39]";"1";"6";"1"
"543";"23";"13";"1";"40";"1";"1";"6";"2";"[7,14,38]";"2";"0";"1"
"544";"11";"14";"1";"22";"1";"1";"6";"1";"[5,12,32,34]";"1";"0";"1"
"545";"19";"14";"1";"27";"1";"1";"6";"2";"[16,18,20,25]";"2";"0";"1"
"546";"27";"14";"1";"15";"1";"1";"6";"2";"[6,21,24,29,30,31,32,34]";"2";"3";"1"
"547";"40";"14";"1";"19";"1";"1";"6";"1";"[17,30,31,32]";"1";"0";"1"
"548";"11";"15";"1";"22";"1";"1";"6";"1";"[5,12,32,34]";"1";"0";"1"
"549";"29";"15";"1";"11";"1";"1";"6";"1";"[16,18]";"1";"0";"1"
"550";"40";"15";"1";"19";"1";"1";"6";"1";"[17,30,31,32]";"1";"0";"1"
"551";"27";"15";"1";"15";"1";"1";"6";"2";"[6,21,24,29,30,31,32,34]";"2";"5";"1"
"552";"29";"16";"1";"11";"1";"1";"6";"1";"[16,18]";"1";"0";"1"
"553";"38";"16";"1";"17";"1";"1";"6";"1";"[19]";"1";"4";"1"
"554";"38";"17";"1";"17";"1";"1";"6";"1";"[19]";"1";"3";"1"
"555";"25";"18";"1";"3";"1";"1";"6";"1";"[1,9,10,13,16,18]";"1";"0";"1"
"556";"1";"18";"1";"2";"1";"1";"6";"1";"[4,38]";"1";"0";"1"
"557";"38";"18";"1";"17";"1";"1";"6";"1";"[19]";"1";"4";"1"
"558";"4";"19";"1";"34";"1";"1";"6";"2";"[6,15,22,24,29,30,31,32]";"1";"0";"1"
"559";"24";"19";"1";"32";"1";"1";"6";"1";"[5,15,19,22,24,29,34]";"1";"0";"1"
"560";"27";"19";"1";"15";"1";"1";"6";"2";"[6,21,24,29,30,31,32,34]";"2";"3";"1"
"561";"21";"19";"1";"7";"1";"1";"6";"1";"[28,40]";"1";"0";"1"
"562";"25";"19";"1";"3";"1";"1";"6";"1";"[1,9,10,13,16,18]";"1";"0";"1"
"563";"27";"19";"1";"15";"1";"1";"6";"2";"[6,21,24,29,30,31,32,34]";"2";"4";"1"
"564";"1";"19";"1";"2";"1";"1";"6";"1";"[4,38]";"1";"0";"1"
"565";"4";"20";"1";"34";"1";"1";"6";"2";"[6,15,22,24,29,30,31,32]";"1";"0";"1"
"566";"24";"20";"1";"32";"1";"1";"6";"1";"[5,15,19,22,24,29,34]";"1";"0";"1"
"567";"38";"20";"1";"17";"1";"1";"6";"1";"[19]";"1";"5";"1"
"568";"21";"20";"1";"7";"1";"1";"6";"1";"[28,40]";"1";"0";"1"
"569";"27";"0";"1";"15";"1";"1";"7";"2";"[6,21,24,29,30,31,32,34]";"0";"6";"1"
"570";"10";"2";"1";"28";"1";"1";"7";"1";"[7,33]";"1";"0";"1"
"571";"34";"2";"1";"9";"1";"1";"7";"1";"[1,3,10,13,29,37]";"1";"0";"1"
"572";"20";"2";"1";"16";"1";"1";"7";"1";"[3,11,18,27]";"2";"0";"1"
"573";"3";"2";"1";"38";"1";"1";"7";"2";"[2,4,20,36,39,40]";"2";"0";"1"
"574";"12";"2";"1";"36";"1";"1";"7";"1";"[21,38,39]";"1";"0";"1"
"575";"27";"2";"1";"15";"1";"1";"7";"2";"[6,21,24,29,30,31,32,34]";"0";"8";"1"
"576";"36";"2";"1";"25";"1";"1";"7";"1";"[27]";"2";"0";"1"
"577";"10";"3";"1";"28";"1";"1";"7";"1";"[7,33]";"1";"0";"1"
"578";"33";"3";"1";"12";"1";"1";"7";"1";"[5,22]";"1";"0";"1"
"579";"17";"3";"1";"30";"1";"1";"7";"1";"[6,15,19,24,31,34,37]";"1";"0";"1"
"580";"15";"3";"1";"21";"1";"1";"7";"1";"[13,15,23,36,39]";"1";"0";"1"
"581";"22";"3";"1";"39";"1";"1";"7";"2";"[21,36,38]";"1";"0";"1"
"582";"34";"3";"1";"9";"1";"1";"7";"1";"[1,3,10,13,29,37]";"1";"0";"1"
"583";"20";"3";"1";"16";"1";"1";"7";"1";"[3,11,18,27]";"2";"0";"1"
"584";"39";"3";"1";"10";"1";"1";"7";"2";"[3,9,29,37]";"1";"0";"1"
"585";"3";"3";"1";"38";"1";"1";"7";"2";"[2,4,20,36,39,40]";"2";"0";"1"
"586";"32";"3";"1";"4";"1";"1";"7";"1";"[2,33,38]";"2";"0";"1"
"587";"12";"3";"1";"36";"1";"1";"7";"1";"[21,38,39]";"1";"0";"1"
"588";"36";"3";"1";"25";"1";"1";"7";"1";"[27]";"2";"0";"1"
"589";"26";"4";"1";"23";"1";"1";"7";"1";"[1,13,21]";"1";"0";"1"
"590";"9";"4";"1";"14";"1";"1";"7";"1";"[26,35,40]";"1";"0";"1"
"591";"33";"4";"1";"12";"1";"1";"7";"1";"[5,22]";"1";"0";"1"
"592";"37";"4";"1";"1";"1";"1";"7";"1";"[3,9,13,23]";"1";"0";"1"
"593";"17";"4";"1";"30";"1";"1";"7";"1";"[6,15,19,24,31,34,37]";"1";"0";"1"
"594";"15";"4";"1";"21";"1";"1";"7";"1";"[13,15,23,36,39]";"1";"0";"1"
"595";"13";"4";"1";"37";"1";"1";"7";"1";"[9,10,13,29,30]";"1";"0";"1"
"596";"22";"4";"1";"39";"1";"1";"7";"2";"[21,36,38]";"1";"0";"1"
"597";"39";"4";"1";"10";"1";"1";"7";"2";"[3,9,29,37]";"1";"0";"1"
"598";"32";"4";"1";"4";"1";"1";"7";"1";"[2,33,38]";"2";"0";"1"
"599";"26";"5";"1";"23";"1";"1";"7";"1";"[1,13,21]";"1";"0";"1"
"600";"9";"5";"1";"14";"1";"1";"7";"1";"[26,35,40]";"1";"0";"1"
"601";"37";"5";"1";"1";"1";"1";"7";"1";"[3,9,13,23]";"1";"0";"1"
"602";"2";"5";"1";"33";"1";"1";"7";"2";"[4,28]";"1";"0";"1"
"603";"13";"5";"1";"37";"1";"1";"7";"1";"[9,10,13,29,30]";"1";"0";"1"
"604";"24";"5";"1";"32";"1";"1";"7";"1";"[5,15,19,22,24,29,34]";"1";"0";"1"
"605";"28";"6";"1";"24";"1";"1";"7";"1";"[6,15,29,30,31,32,34]";"1";"0";"1"
"606";"14";"6";"1";"5";"1";"1";"7";"1";"[12,22,32]";"0";"5";"1"
"607";"2";"6";"1";"33";"1";"1";"7";"2";"[4,28]";"1";"0";"1"
"608";"31";"6";"1";"31";"1";"1";"7";"1";"[15,19,24,30,34]";"1";"0";"1"
"609";"24";"6";"1";"32";"1";"1";"7";"1";"[5,15,19,22,24,29,34]";"1";"0";"1"
"610";"7";"6";"1";"35";"1";"1";"7";"1";"[14,26]";"1";"0";"1"
"611";"25";"6";"1";"3";"1";"1";"7";"1";"[1,9,10,13,16,18]";"1";"0";"1"
"612";"27";"6";"1";"15";"1";"1";"7";"2";"[6,21,24,29,30,31,32,34]";"2";"8";"1"
"613";"28";"7";"1";"24";"1";"1";"7";"1";"[6,15,29,30,31,32,34]";"1";"0";"1"
"614";"31";"7";"1";"31";"1";"1";"7";"1";"[15,19,24,30,34]";"1";"0";"1"
"615";"14";"7";"1";"5";"1";"1";"7";"1";"[12,22,32]";"0";"3";"1"
"616";"7";"7";"1";"35";"1";"1";"7";"1";"[14,26]";"1";"0";"1"
"617";"25";"7";"1";"3";"1";"1";"7";"1";"[1,9,10,13,16,18]";"1";"0";"1"
"618";"27";"7";"1";"15";"1";"1";"7";"2";"[6,21,24,29,30,31,32,34]";"2";"8";"1"
"619";"40";"8";"1";"19";"1";"1";"7";"1";"[17,30,31,32]";"1";"0";"1"
"620";"21";"8";"1";"7";"1";"1";"7";"1";"[28,40]";"1";"0";"1"
"621";"16";"8";"1";"26";"1";"1";"7";"2";"[14,35]";"1";"0";"1"
"622";"11";"8";"1";"22";"1";"1";"7";"1";"[5,12,32,34]";"2";"0";"1"
"623";"38";"8";"1";"17";"1";"1";"7";"1";"[19]";"1";"0";"1"
"624";"35";"8";"1";"13";"1";"1";"7";"1";"[1,3,9,21,23,37]";"1";"0";"1"
"625";"14";"9";"1";"5";"1";"1";"7";"1";"[12,22,32]";"0";"1";"1"
"626";"6";"9";"1";"8";"1";"1";"7";"1";"[6,20]";"2";"0";"1"
"627";"40";"9";"1";"19";"1";"1";"7";"1";"[17,30,31,32]";"1";"0";"1"
"628";"21";"9";"1";"7";"1";"1";"7";"1";"[28,40]";"1";"0";"1"
"629";"16";"9";"1";"26";"1";"1";"7";"2";"[14,35]";"1";"0";"1"
"630";"23";"9";"1";"40";"1";"1";"7";"2";"[7,14,38]";"1";"0";"1"
"631";"38";"9";"1";"17";"1";"1";"7";"1";"[19]";"1";"0";"1"
"632";"11";"9";"1";"22";"1";"1";"7";"1";"[5,12,32,34]";"2";"0";"1"
"633";"35";"9";"1";"13";"1";"1";"7";"1";"[1,3,9,21,23,37]";"1";"0";"1"
"634";"6";"10";"1";"8";"1";"1";"7";"1";"[6,20]";"2";"0";"1"
"635";"23";"10";"1";"40";"1";"1";"7";"2";"[7,14,38]";"1";"0";"1"
"636";"14";"11";"1";"5";"1";"1";"7";"1";"[12,22,32]";"0";"6";"1"
"637";"19";"12";"1";"27";"1";"1";"7";"2";"[16,18,20,25]";"1";"0";"1"
"638";"18";"12";"1";"18";"1";"1";"7";"1";"[3,11,16,27]";"1";"0";"1"
"639";"19";"13";"1";"27";"1";"1";"7";"2";"[16,18,20,25]";"1";"0";"1"
"640";"18";"13";"1";"18";"1";"1";"7";"1";"[3,11,16,27]";"1";"0";"1"
"641";"8";"14";"1";"29";"1";"1";"7";"1";"[9,10,15,24,32,34,37]";"2";"0";"1"
"642";"14";"14";"1";"5";"1";"1";"7";"1";"[12,22,32]";"0";"7";"1"
"643";"30";"14";"1";"6";"1";"1";"7";"1";"[8,15,24,30,34]";"1";"0";"1"
"644";"8";"15";"1";"29";"1";"1";"7";"1";"[9,10,15,24,32,34,37]";"2";"0";"1"
"645";"30";"15";"1";"6";"1";"1";"7";"1";"[8,15,24,30,34]";"1";"0";"1"
"646";"1";"17";"1";"2";"1";"1";"7";"1";"[4,38]";"1";"0";"1"
"647";"29";"17";"1";"11";"1";"1";"7";"1";"[16,18]";"1";"0";"1"
"648";"1";"18";"1";"2";"1";"1";"7";"1";"[4,38]";"1";"0";"1"
"649";"29";"18";"1";"11";"1";"1";"7";"1";"[16,18]";"1";"0";"1"
"650";"27";"18";"1";"15";"1";"1";"7";"2";"[6,21,24,29,30,31,32,34]";"2";"5";"1"
"651";"24";"19";"1";"32";"1";"1";"7";"1";"[5,15,19,22,24,29,34]";"1";"7";"1"
"652";"27";"19";"1";"15";"1";"1";"7";"2";"[6,21,24,29,30,31,32,34]";"2";"4";"1"
"653";"5";"20";"1";"20";"1";"1";"7";"2";"[8,27,38]";"2";"0";"1"
"654";"27";"20";"1";"15";"1";"1";"7";"2";"[6,21,24,29,30,31,32,34]";"2";"3";"1"
"655";"27";"21";"1";"15";"1";"1";"7";"2";"[6,21,24,29,30,31,32,34]";"2";"2";"1"
"656";"5";"21";"1";"20";"1";"1";"7";"2";"[8,27,38]";"2";"0";"1"
"657";"14";"21";"1";"5";"1";"1";"7";"1";"[12,22,32]";"1";"7";"1"
"658";"27";"21";"1";"15";"1";"1";"7";"2";"[6,21,24,29,30,31,32,34]";"2";"1";"1"
"659";"14";"22";"1";"5";"1";"1";"7";"1";"[12,22,32]";"1";"7";"1"
"660";"27";"22";"1";"15";"1";"1";"7";"2";"[6,21,24,29,30,31,32,34]";"2";"2";"1"
"661";"4";"23";"1";"34";"1";"1";"7";"2";"[6,15,22,24,29,30,31,32]";"1";"0";"1"
"662";"4";"24";"1";"34";"1";"1";"7";"2";"[6,15,22,24,29,30,31,32]";"1";"0";"1"
"663";"27";"0";"1";"15";"1";"1";"8";"2";"[6,21,24,29,30,31,32,34]";"0";"7";"1"
"664";"3";"1";"1";"38";"1";"1";"8";"2";"[2,4,20,36,39,40]";"2";"0";"1"
"665";"2";"1";"1";"33";"1";"1";"8";"2";"[4,28]";"0";"1";"1"
"666";"34";"1";"1";"9";"1";"1";"8";"1";"[1,3,10,13,29,37]";"1";"0";"1"
"667";"10";"1";"1";"28";"1";"1";"8";"1";"[7,33]";"1";"0";"1"
"668";"12";"2";"1";"36";"1";"1";"8";"1";"[21,38,39]";"1";"0";"1"
"669";"3";"2";"1";"38";"1";"1";"8";"2";"[2,4,20,36,39,40]";"2";"0";"1"
"670";"17";"2";"1";"30";"1";"1";"8";"1";"[6,15,19,24,31,34,37]";"1";"0";"1"
"671";"7";"2";"1";"35";"1";"1";"8";"1";"[14,26]";"1";"0";"1"
"672";"33";"2";"1";"12";"1";"1";"8";"1";"[5,22]";"1";"0";"1"
"673";"18";"2";"1";"18";"1";"1";"8";"1";"[3,11,16,27]";"1";"0";"1"
"674";"36";"2";"1";"25";"1";"1";"8";"1";"[27]";"1";"0";"1"
"675";"34";"2";"1";"9";"1";"1";"8";"1";"[1,3,10,13,29,37]";"1";"0";"1"
"676";"10";"2";"1";"28";"1";"1";"8";"1";"[7,33]";"1";"0";"1"
"677";"12";"3";"1";"36";"1";"1";"8";"1";"[21,38,39]";"1";"0";"1"
"678";"13";"3";"1";"37";"1";"1";"8";"1";"[9,10,13,29,30]";"1";"0";"1"
"679";"22";"3";"1";"39";"1";"1";"8";"2";"[21,36,38]";"2";"0";"1"
"680";"17";"3";"1";"30";"1";"1";"8";"1";"[6,15,19,24,31,34,37]";"1";"0";"1"
"681";"9";"3";"1";"14";"1";"1";"8";"1";"[26,35,40]";"1";"0";"1"
"682";"31";"3";"1";"31";"1";"1";"8";"1";"[15,19,24,30,34]";"2";"0";"1"
"683";"35";"3";"1";"13";"1";"1";"8";"1";"[1,3,9,21,23,37]";"1";"0";"1"
"684";"20";"3";"1";"16";"1";"1";"8";"1";"[3,11,18,27]";"1";"0";"1"
"685";"7";"3";"1";"35";"1";"1";"8";"1";"[14,26]";"1";"0";"1"
"686";"33";"3";"1";"12";"1";"1";"8";"1";"[5,22]";"1";"0";"1"
"687";"18";"3";"1";"18";"1";"1";"8";"1";"[3,11,16,27]";"1";"0";"1"
"688";"36";"3";"1";"25";"1";"1";"8";"1";"[27]";"1";"0";"1"
"689";"2";"3";"1";"33";"1";"1";"8";"2";"[4,28]";"0";"2";"1"
"690";"21";"4";"1";"7";"1";"1";"8";"1";"[28,40]";"1";"0";"1"
"691";"13";"4";"1";"37";"1";"1";"8";"1";"[9,10,13,29,30]";"1";"0";"1"
"692";"22";"4";"1";"39";"1";"1";"8";"2";"[21,36,38]";"2";"0";"1"
"693";"31";"4";"1";"31";"1";"1";"8";"1";"[15,19,24,30,34]";"2";"0";"1"
"694";"9";"4";"1";"14";"1";"1";"8";"1";"[26,35,40]";"1";"0";"1"
"695";"35";"4";"1";"13";"1";"1";"8";"1";"[1,3,9,21,23,37]";"1";"0";"1"
"696";"20";"4";"1";"16";"1";"1";"8";"1";"[3,11,18,27]";"1";"0";"1"
"697";"25";"4";"1";"3";"1";"1";"8";"1";"[1,9,10,13,16,18]";"1";"0";"1"
"698";"19";"4";"1";"27";"1";"1";"8";"2";"[16,18,20,25]";"2";"0";"1"
"699";"21";"5";"1";"7";"1";"1";"8";"1";"[28,40]";"1";"0";"1"
"700";"14";"5";"1";"5";"1";"1";"8";"1";"[12,22,32]";"1";"0";"1"
"701";"25";"5";"1";"3";"1";"1";"8";"1";"[1,9,10,13,16,18]";"1";"0";"1"
"702";"16";"5";"1";"26";"1";"1";"8";"2";"[14,35]";"1";"0";"1"
"703";"2";"5";"1";"33";"1";"1";"8";"2";"[4,28]";"0";"1";"1"
"704";"28";"5";"1";"24";"1";"1";"8";"1";"[6,15,29,30,31,32,34]";"1";"0";"1"
"705";"26";"5";"1";"23";"1";"1";"8";"1";"[1,13,21]";"1";"0";"1"
"706";"19";"5";"1";"27";"1";"1";"8";"2";"[16,18,20,25]";"2";"0";"1"
"707";"14";"6";"1";"5";"1";"1";"8";"1";"[12,22,32]";"1";"0";"1"
"708";"2";"6";"1";"33";"1";"1";"8";"2";"[4,28]";"0";"2";"1"
"709";"16";"6";"1";"26";"1";"1";"8";"2";"[14,35]";"1";"0";"1"
"710";"28";"6";"1";"24";"1";"1";"8";"1";"[6,15,29,30,31,32,34]";"1";"0";"1"
"711";"26";"6";"1";"23";"1";"1";"8";"1";"[1,13,21]";"1";"0";"1"
"712";"27";"7";"1";"15";"1";"1";"8";"2";"[6,21,24,29,30,31,32,34]";"2";"7";"1"
"713";"2";"7";"1";"33";"1";"1";"8";"2";"[4,28]";"0";"3";"1"
"714";"15";"7";"1";"21";"1";"1";"8";"1";"[13,15,23,36,39]";"1";"0";"1"
"715";"27";"8";"1";"15";"1";"1";"8";"2";"[6,21,24,29,30,31,32,34]";"2";"7";"1"
"716";"32";"8";"1";"4";"1";"1";"8";"1";"[2,33,38]";"2";"0";"1"
"717";"2";"8";"1";"33";"1";"1";"8";"2";"[4,28]";"0";"8";"1"
"718";"1";"8";"1";"2";"1";"1";"8";"1";"[4,38]";"2";"0";"1"
"719";"39";"8";"1";"10";"1";"1";"8";"2";"[3,9,29,37]";"1";"0";"1"
"720";"15";"8";"1";"21";"1";"1";"8";"1";"[13,15,23,36,39]";"1";"0";"1"
"721";"8";"9";"1";"29";"1";"1";"8";"1";"[9,10,15,24,32,34,37]";"2";"0";"1"
"722";"32";"9";"1";"4";"1";"1";"8";"1";"[2,33,38]";"2";"0";"1"
"723";"1";"9";"1";"2";"1";"1";"8";"1";"[4,38]";"2";"0";"1"
"724";"30";"9";"1";"6";"1";"1";"8";"1";"[8,15,24,30,34]";"2";"0";"1"
"725";"39";"9";"1";"10";"1";"1";"8";"2";"[3,9,29,37]";"1";"0";"1"
"726";"23";"9";"1";"40";"1";"1";"8";"2";"[7,14,38]";"2";"0";"1"
"727";"8";"10";"1";"29";"1";"1";"8";"1";"[9,10,15,24,32,34,37]";"2";"0";"1"
"728";"30";"10";"1";"6";"1";"1";"8";"1";"[8,15,24,30,34]";"2";"0";"1"
"729";"6";"10";"1";"8";"1";"1";"8";"1";"[6,20]";"2";"0";"1"
"730";"23";"10";"1";"40";"1";"1";"8";"2";"[7,14,38]";"2";"0";"1"
"731";"37";"11";"1";"1";"1";"1";"8";"1";"[3,9,13,23]";"1";"0";"1"
"732";"2";"11";"1";"33";"1";"1";"8";"2";"[4,28]";"0";"9";"1"
"733";"6";"11";"1";"8";"1";"1";"8";"1";"[6,20]";"2";"0";"1"
"734";"24";"12";"1";"32";"1";"1";"8";"1";"[5,15,19,22,24,29,34]";"0";"6";"1"
"735";"29";"12";"1";"11";"1";"1";"8";"1";"[16,18]";"1";"0";"1"
"736";"37";"12";"1";"1";"1";"1";"8";"1";"[3,9,13,23]";"1";"0";"1"
"737";"5";"13";"1";"20";"1";"1";"8";"2";"[8,27,38]";"2";"0";"1"
"738";"29";"13";"1";"11";"1";"1";"8";"1";"[16,18]";"1";"0";"1"
"739";"24";"13";"1";"32";"1";"1";"8";"1";"[5,15,19,22,24,29,34]";"0";"7";"1"
"740";"11";"14";"1";"22";"1";"1";"8";"1";"[5,12,32,34]";"1";"0";"1"
"741";"5";"14";"1";"20";"1";"1";"8";"2";"[8,27,38]";"2";"0";"1"
"742";"11";"15";"1";"22";"1";"1";"8";"1";"[5,12,32,34]";"1";"0";"1"
"743";"40";"15";"1";"19";"1";"1";"8";"1";"[17,30,31,32]";"1";"0";"1"
"744";"24";"15";"1";"32";"1";"1";"8";"1";"[5,15,19,22,24,29,34]";"0";"6";"1"
"745";"38";"15";"1";"17";"1";"1";"8";"1";"[19]";"1";"0";"1"
"746";"24";"16";"1";"32";"1";"1";"8";"1";"[5,15,19,22,24,29,34]";"0";"5";"1"
"747";"40";"16";"1";"19";"1";"1";"8";"1";"[17,30,31,32]";"1";"0";"1"
"748";"38";"16";"1";"17";"1";"1";"8";"1";"[19]";"1";"0";"1"
"749";"2";"16";"1";"33";"1";"1";"8";"2";"[4,28]";"1";"9";"1"
"750";"4";"16";"1";"34";"1";"1";"8";"2";"[6,15,22,24,29,30,31,32]";"2";"0";"1"
"751";"2";"17";"1";"33";"1";"1";"8";"2";"[4,28]";"1";"9";"1"
"752";"24";"17";"1";"32";"1";"1";"8";"1";"[5,15,19,22,24,29,34]";"0";"6";"1"
"753";"4";"17";"1";"34";"1";"1";"8";"2";"[6,15,22,24,29,30,31,32]";"2";"0";"1"
"754";"24";"18";"1";"32";"1";"1";"8";"1";"[5,15,19,22,24,29,34]";"0";"7";"1"
"755";"24";"19";"1";"32";"1";"1";"8";"1";"[5,15,19,22,24,29,34]";"1";"7";"1"
"756";"24";"20";"1";"32";"1";"1";"8";"1";"[5,15,19,22,24,29,34]";"1";"7";"1"
"757";"34";"1";"1";"9";"1";"1";"9";"1";"[1,3,10,13,29,37]";"1";"0";"1"
"758";"32";"2";"1";"4";"1";"1";"9";"1";"[2,33,38]";"1";"0";"1"
"759";"35";"2";"1";"13";"1";"1";"9";"1";"[1,3,9,21,23,37]";"1";"0";"1"
"760";"12";"2";"1";"36";"1";"1";"9";"1";"[21,38,39]";"1";"0";"1"
"761";"34";"2";"1";"9";"1";"1";"9";"1";"[1,3,10,13,29,37]";"1";"0";"1"
"762";"32";"3";"1";"4";"1";"1";"9";"1";"[2,33,38]";"1";"0";"1"
"763";"35";"3";"1";"13";"1";"1";"9";"1";"[1,3,9,21,23,37]";"1";"0";"1"
"764";"17";"3";"1";"30";"1";"1";"9";"1";"[6,15,19,24,31,34,37]";"1";"0";"1"
"765";"3";"3";"1";"38";"1";"1";"9";"2";"[2,4,20,36,39,40]";"2";"0";"1"
"766";"13";"3";"1";"37";"1";"1";"9";"1";"[9,10,13,29,30]";"1";"0";"1"
"767";"7";"3";"1";"35";"1";"1";"9";"1";"[14,26]";"1";"0";"1"
"768";"12";"3";"1";"36";"1";"1";"9";"1";"[21,38,39]";"1";"0";"1"
"769";"36";"4";"1";"25";"1";"1";"9";"1";"[27]";"1";"0";"1"
"770";"17";"4";"1";"30";"1";"1";"9";"1";"[6,15,19,24,31,34,37]";"1";"0";"1"
"771";"33";"4";"1";"12";"1";"1";"9";"1";"[5,22]";"1";"0";"1"
"772";"3";"4";"1";"38";"1";"1";"9";"2";"[2,4,20,36,39,40]";"2";"0";"1"
"773";"28";"4";"1";"24";"1";"1";"9";"1";"[6,15,29,30,31,32,34]";"1";"0";"1"
"774";"13";"4";"1";"37";"1";"1";"9";"1";"[9,10,13,29,30]";"1";"0";"1"
"775";"18";"4";"1";"18";"1";"1";"9";"1";"[3,11,16,27]";"1";"0";"1"
"776";"7";"4";"1";"35";"1";"1";"9";"1";"[14,26]";"1";"0";"1"
"777";"22";"4";"1";"39";"1";"1";"9";"2";"[21,36,38]";"2";"0";"1"
"778";"36";"5";"1";"25";"1";"1";"9";"1";"[27]";"1";"0";"1"
"779";"16";"5";"1";"26";"1";"1";"9";"2";"[14,35]";"1";"0";"1"
"780";"25";"5";"1";"3";"1";"1";"9";"1";"[1,9,10,13,16,18]";"1";"0";"1"
"781";"2";"5";"1";"33";"1";"1";"9";"2";"[4,28]";"1";"0";"1"
"782";"33";"5";"1";"12";"1";"1";"9";"1";"[5,22]";"1";"0";"1"
"783";"27";"5";"1";"15";"1";"1";"9";"2";"[6,21,24,29,30,31,32,34]";"0";"9";"1"
"784";"28";"5";"1";"24";"1";"1";"9";"1";"[6,15,29,30,31,32,34]";"1";"0";"1"
"785";"18";"5";"1";"18";"1";"1";"9";"1";"[3,11,16,27]";"1";"0";"1"
"786";"9";"5";"1";"14";"1";"1";"9";"1";"[26,35,40]";"1";"0";"1"
"787";"19";"5";"1";"27";"1";"1";"9";"2";"[16,18,20,25]";"1";"0";"1"
"788";"22";"5";"1";"39";"1";"1";"9";"2";"[21,36,38]";"2";"0";"1"
"789";"6";"6";"1";"8";"1";"1";"9";"1";"[6,20]";"2";"0";"1"
"790";"16";"6";"1";"26";"1";"1";"9";"2";"[14,35]";"1";"0";"1"
"791";"38";"6";"1";"17";"1";"1";"9";"1";"[19]";"1";"0";"1"
"792";"25";"6";"1";"3";"1";"1";"9";"1";"[1,9,10,13,16,18]";"1";"0";"1"
"793";"2";"6";"1";"33";"1";"1";"9";"2";"[4,28]";"1";"0";"1"
"794";"9";"6";"1";"14";"1";"1";"9";"1";"[26,35,40]";"1";"0";"1"
"795";"19";"6";"1";"27";"1";"1";"9";"2";"[16,18,20,25]";"1";"0";"1"
"796";"10";"7";"1";"28";"1";"1";"9";"1";"[7,33]";"1";"0";"1"
"797";"6";"7";"1";"8";"1";"1";"9";"1";"[6,20]";"2";"0";"1"
"798";"39";"7";"1";"10";"1";"1";"9";"2";"[3,9,29,37]";"1";"0";"1"
"799";"27";"7";"1";"15";"1";"1";"9";"2";"[6,21,24,29,30,31,32,34]";"2";"9";"1"
"800";"1";"7";"1";"2";"1";"1";"9";"1";"[4,38]";"2";"0";"1"
"801";"38";"7";"1";"17";"1";"1";"9";"1";"[19]";"1";"0";"1"
"802";"24";"7";"1";"32";"1";"1";"9";"1";"[5,15,19,22,24,29,34]";"0";"7";"1"
"803";"23";"7";"1";"40";"1";"1";"9";"2";"[7,14,38]";"2";"0";"1"
"804";"11";"8";"1";"22";"1";"1";"9";"1";"[5,12,32,34]";"1";"0";"1"
"805";"10";"8";"1";"28";"1";"1";"9";"1";"[7,33]";"1";"0";"1"
"806";"39";"8";"1";"10";"1";"1";"9";"2";"[3,9,29,37]";"1";"0";"1"
"807";"5";"8";"1";"20";"1";"1";"9";"2";"[8,27,38]";"2";"0";"1"
"808";"27";"8";"1";"15";"1";"1";"9";"2";"[6,21,24,29,30,31,32,34]";"2";"9";"1"
"809";"1";"8";"1";"2";"1";"1";"9";"1";"[4,38]";"2";"0";"1"
"810";"24";"8";"1";"32";"1";"1";"9";"1";"[5,15,19,22,24,29,34]";"0";"6";"1"
"811";"26";"8";"1";"23";"1";"1";"9";"1";"[1,13,21]";"1";"0";"1"
"812";"8";"8";"1";"29";"1";"1";"9";"1";"[9,10,15,24,32,34,37]";"1";"0";"1"
"813";"23";"8";"1";"40";"1";"1";"9";"2";"[7,14,38]";"2";"0";"1"
"814";"11";"9";"1";"22";"1";"1";"9";"1";"[5,12,32,34]";"1";"0";"1"
"815";"31";"9";"1";"31";"1";"1";"9";"1";"[15,19,24,30,34]";"1";"0";"1"
"816";"24";"9";"1";"32";"1";"1";"9";"1";"[5,15,19,22,24,29,34]";"0";"5";"1"
"817";"5";"9";"1";"20";"1";"1";"9";"2";"[8,27,38]";"2";"0";"1"
"818";"26";"9";"1";"23";"1";"1";"9";"1";"[1,13,21]";"1";"0";"1"
"819";"8";"9";"1";"29";"1";"1";"9";"1";"[9,10,15,24,32,34,37]";"1";"0";"1"
"820";"29";"9";"1";"11";"1";"1";"9";"1";"[16,18]";"2";"0";"1"
"821";"31";"10";"1";"31";"1";"1";"9";"1";"[15,19,24,30,34]";"1";"0";"1"
"822";"24";"10";"1";"32";"1";"1";"9";"1";"[5,15,19,22,24,29,34]";"0";"6";"1"
"823";"30";"10";"1";"6";"1";"1";"9";"1";"[8,15,24,30,34]";"1";"0";"1"
"824";"29";"10";"1";"11";"1";"1";"9";"1";"[16,18]";"2";"0";"1"
"825";"24";"11";"1";"32";"1";"1";"9";"1";"[5,15,19,22,24,29,34]";"0";"7";"1"
"826";"30";"11";"1";"6";"1";"1";"9";"1";"[8,15,24,30,34]";"1";"0";"1"
"827";"24";"12";"1";"32";"1";"1";"9";"1";"[5,15,19,22,24,29,34]";"0";"8";"1"
"828";"20";"12";"1";"16";"1";"1";"9";"1";"[3,11,18,27]";"2";"0";"1"
"829";"20";"13";"1";"16";"1";"1";"9";"1";"[3,11,18,27]";"2";"0";"1"
"830";"15";"13";"1";"21";"1";"1";"9";"1";"[13,15,23,36,39]";"1";"0";"1"
"831";"24";"14";"1";"32";"1";"1";"9";"1";"[5,15,19,22,24,29,34]";"0";"1";"1"
"832";"15";"14";"1";"21";"1";"1";"9";"1";"[13,15,23,36,39]";"1";"0";"1"
"833";"24";"15";"1";"32";"1";"1";"9";"1";"[5,15,19,22,24,29,34]";"0";"2";"1"
"834";"14";"16";"1";"5";"1";"1";"9";"1";"[12,22,32]";"1";"0";"1"
"835";"24";"16";"1";"32";"1";"1";"9";"1";"[5,15,19,22,24,29,34]";"0";"4";"1"
"836";"37";"17";"1";"1";"1";"1";"9";"1";"[3,9,13,23]";"1";"0";"1"
"837";"21";"17";"1";"7";"1";"1";"9";"1";"[28,40]";"1";"0";"1"
"838";"4";"17";"1";"34";"1";"1";"9";"2";"[6,15,22,24,29,30,31,32]";"2";"0";"1"
"839";"14";"17";"1";"5";"1";"1";"9";"1";"[12,22,32]";"1";"0";"1"
"840";"37";"18";"1";"1";"1";"1";"9";"1";"[3,9,13,23]";"1";"0";"1"
"841";"21";"18";"1";"7";"1";"1";"9";"1";"[28,40]";"1";"0";"1"
"842";"4";"18";"1";"34";"1";"1";"9";"2";"[6,15,22,24,29,30,31,32]";"2";"0";"1"
"843";"24";"18";"1";"32";"1";"1";"9";"1";"[5,15,19,22,24,29,34]";"0";"6";"1"
"844";"24";"19";"1";"32";"1";"1";"9";"1";"[5,15,19,22,24,29,34]";"0";"7";"1"
"845";"24";"20";"1";"32";"1";"1";"9";"1";"[5,15,19,22,24,29,34]";"0";"8";"1"
"846";"24";"22";"1";"32";"1";"1";"9";"1";"[5,15,19,22,24,29,34]";"0";"9";"1"
"847";"24";"26";"1";"32";"1";"1";"9";"1";"[5,15,19,22,24,29,34]";"2";"9";"1"
"848";"40";"26";"1";"19";"1";"1";"9";"1";"[17,30,31,32]";"1";"0";"1"
"849";"27";"26";"1";"15";"1";"1";"9";"2";"[6,21,24,29,30,31,32,34]";"2";"7";"1"
"850";"24";"27";"1";"32";"1";"1";"9";"1";"[5,15,19,22,24,29,34]";"2";"9";"1"
"851";"2";"27";"1";"33";"1";"1";"9";"2";"[4,28]";"1";"1";"1"
"852";"40";"27";"1";"19";"1";"1";"9";"1";"[17,30,31,32]";"1";"0";"1"
"853";"27";"0";"1";"15";"1";"1";"10";"2";"[6,21,24,29,30,31,32,34]";"0";"6";"1"
"854";"27";"1";"1";"15";"1";"1";"10";"2";"[6,21,24,29,30,31,32,34]";"0";"5";"1"
"855";"10";"1";"1";"28";"1";"1";"10";"1";"[7,33]";"1";"0";"1"
"856";"27";"2";"1";"15";"1";"1";"10";"2";"[6,21,24,29,30,31,32,34]";"0";"3";"1"
"857";"16";"2";"1";"26";"1";"1";"10";"2";"[14,35]";"1";"0";"1"
"858";"3";"2";"1";"38";"1";"1";"10";"2";"[2,4,20,36,39,40]";"2";"0";"1"
"859";"13";"2";"1";"37";"1";"1";"10";"1";"[9,10,13,29,30]";"1";"0";"1"
"860";"32";"2";"1";"4";"1";"1";"10";"1";"[2,33,38]";"1";"0";"1"
"861";"34";"2";"1";"9";"1";"1";"10";"1";"[1,3,10,13,29,37]";"1";"0";"1"
"862";"10";"2";"1";"28";"1";"1";"10";"1";"[7,33]";"1";"0";"1"
"863";"12";"2";"1";"36";"1";"1";"10";"1";"[21,38,39]";"1";"0";"1"
"864";"2";"2";"1";"33";"1";"1";"10";"2";"[4,28]";"1";"0";"1"
"865";"27";"2";"1";"15";"1";"1";"10";"2";"[6,21,24,29,30,31,32,34]";"0";"1";"1"
"866";"35";"3";"1";"13";"1";"1";"10";"1";"[1,3,9,21,23,37]";"1";"0";"1"
"867";"19";"3";"1";"27";"1";"1";"10";"2";"[16,18,20,25]";"1";"0";"1"
"868";"7";"3";"1";"35";"1";"1";"10";"1";"[14,26]";"1";"0";"1"
"869";"3";"3";"1";"38";"1";"1";"10";"2";"[2,4,20,36,39,40]";"2";"0";"1"
"870";"16";"3";"1";"26";"1";"1";"10";"2";"[14,35]";"1";"0";"1"
"871";"13";"3";"1";"37";"1";"1";"10";"1";"[9,10,13,29,30]";"1";"0";"1"
"872";"32";"3";"1";"4";"1";"1";"10";"1";"[2,33,38]";"1";"0";"1"
"873";"17";"3";"1";"30";"1";"1";"10";"1";"[6,15,19,24,31,34,37]";"1";"0";"1"
"874";"34";"3";"1";"9";"1";"1";"10";"1";"[1,3,10,13,29,37]";"1";"0";"1"
"875";"12";"3";"1";"36";"1";"1";"10";"1";"[21,38,39]";"1";"0";"1"
"876";"2";"3";"1";"33";"1";"1";"10";"2";"[4,28]";"1";"0";"1"
"877";"35";"4";"1";"13";"1";"1";"10";"1";"[1,3,9,21,23,37]";"1";"0";"1"
"878";"39";"4";"1";"10";"1";"1";"10";"2";"[3,9,29,37]";"1";"0";"1"
"879";"8";"4";"1";"29";"1";"1";"10";"1";"[9,10,15,24,32,34,37]";"2";"0";"1"
"880";"2";"4";"1";"33";"1";"1";"10";"2";"[4,28]";"1";"1";"1"
"881";"19";"4";"1";"27";"1";"1";"10";"2";"[16,18,20,25]";"1";"0";"1"
"882";"7";"4";"1";"35";"1";"1";"10";"1";"[14,26]";"1";"0";"1"
"883";"31";"4";"1";"31";"1";"1";"10";"1";"[15,19,24,30,34]";"2";"0";"1"
"884";"37";"4";"1";"1";"1";"1";"10";"1";"[3,9,13,23]";"1";"0";"1"
"885";"17";"4";"1";"30";"1";"1";"10";"1";"[6,15,19,24,31,34,37]";"1";"0";"1"
"886";"20";"4";"1";"16";"1";"1";"10";"1";"[3,11,18,27]";"1";"0";"1"
"887";"25";"4";"1";"3";"1";"1";"10";"1";"[1,9,10,13,16,18]";"1";"0";"1"
"888";"24";"4";"1";"32";"1";"1";"10";"1";"[5,15,19,22,24,29,34]";"1";"0";"1"
"889";"26";"4";"1";"23";"1";"1";"10";"1";"[1,13,21]";"1";"0";"1"
"890";"28";"4";"1";"24";"1";"1";"10";"1";"[6,15,29,30,31,32,34]";"1";"0";"1"
"891";"39";"5";"1";"10";"1";"1";"10";"2";"[3,9,29,37]";"1";"0";"1"
"892";"8";"5";"1";"29";"1";"1";"10";"1";"[9,10,15,24,32,34,37]";"2";"0";"1"
"893";"21";"5";"1";"7";"1";"1";"10";"1";"[28,40]";"1";"0";"1"
"894";"31";"5";"1";"31";"1";"1";"10";"1";"[15,19,24,30,34]";"2";"0";"1"
"895";"2";"5";"1";"33";"1";"1";"10";"2";"[4,28]";"1";"2";"1"
"896";"37";"5";"1";"1";"1";"1";"10";"1";"[3,9,13,23]";"1";"0";"1"
"897";"20";"5";"1";"16";"1";"1";"10";"1";"[3,11,18,27]";"1";"0";"1"
"898";"25";"5";"1";"3";"1";"1";"10";"1";"[1,9,10,13,16,18]";"1";"0";"1"
"899";"24";"5";"1";"32";"1";"1";"10";"1";"[5,15,19,22,24,29,34]";"1";"0";"1"
"900";"26";"5";"1";"23";"1";"1";"10";"1";"[1,13,21]";"1";"0";"1"
"901";"28";"5";"1";"24";"1";"1";"10";"1";"[6,15,29,30,31,32,34]";"1";"0";"1"
"902";"1";"6";"1";"2";"1";"1";"10";"1";"[4,38]";"1";"0";"1"
"903";"21";"6";"1";"7";"1";"1";"10";"1";"[28,40]";"1";"0";"1"
"904";"27";"6";"1";"15";"1";"1";"10";"2";"[6,21,24,29,30,31,32,34]";"0";"9";"1"
"905";"1";"7";"1";"2";"1";"1";"10";"1";"[4,38]";"1";"0";"1"
"906";"2";"7";"1";"33";"1";"1";"10";"2";"[4,28]";"1";"3";"1"
"907";"38";"7";"1";"17";"1";"1";"10";"1";"[19]";"1";"0";"1"
"908";"9";"7";"1";"14";"1";"1";"10";"1";"[26,35,40]";"1";"0";"1"
"909";"27";"7";"1";"15";"1";"1";"10";"2";"[6,21,24,29,30,31,32,34]";"0";"10";"1"
"910";"33";"8";"1";"12";"1";"1";"10";"1";"[5,22]";"1";"0";"1"
"911";"2";"8";"1";"33";"1";"1";"10";"2";"[4,28]";"1";"4";"1"
"912";"11";"8";"1";"22";"1";"1";"10";"1";"[5,12,32,34]";"2";"0";"1"
"913";"38";"8";"1";"17";"1";"1";"10";"1";"[19]";"1";"0";"1"
"914";"9";"8";"1";"14";"1";"1";"10";"1";"[26,35,40]";"1";"0";"1"
"915";"14";"8";"1";"5";"1";"1";"10";"1";"[12,22,32]";"0";"1";"1"
"916";"30";"8";"1";"6";"1";"1";"10";"1";"[8,15,24,30,34]";"1";"0";"1"
"917";"6";"8";"1";"8";"1";"1";"10";"1";"[6,20]";"1";"0";"1"
"918";"2";"9";"1";"33";"1";"1";"10";"2";"[4,28]";"1";"5";"1"
"919";"23";"9";"1";"40";"1";"1";"10";"2";"[7,14,38]";"2";"0";"1"
"920";"33";"9";"1";"12";"1";"1";"10";"1";"[5,22]";"1";"0";"1"
"921";"11";"9";"1";"22";"1";"1";"10";"1";"[5,12,32,34]";"2";"0";"1"
"922";"30";"9";"1";"6";"1";"1";"10";"1";"[8,15,24,30,34]";"1";"0";"1"
"923";"6";"9";"1";"8";"1";"1";"10";"1";"[6,20]";"1";"0";"1"
"924";"23";"10";"1";"40";"1";"1";"10";"2";"[7,14,38]";"2";"0";"1"
"925";"22";"10";"1";"39";"1";"1";"10";"2";"[21,36,38]";"1";"0";"1"
"926";"18";"10";"1";"18";"1";"1";"10";"1";"[3,11,16,27]";"1";"0";"1"
"927";"29";"10";"1";"11";"1";"1";"10";"1";"[16,18]";"1";"0";"1"
"928";"15";"10";"1";"21";"1";"1";"10";"1";"[13,15,23,36,39]";"1";"0";"1"
"929";"2";"10";"1";"33";"1";"1";"10";"2";"[4,28]";"1";"7";"1"
"930";"40";"10";"1";"19";"1";"1";"10";"1";"[17,30,31,32]";"1";"0";"1"
"931";"22";"11";"1";"39";"1";"1";"10";"2";"[21,36,38]";"1";"0";"1"
"932";"18";"11";"1";"18";"1";"1";"10";"1";"[3,11,16,27]";"1";"0";"1"
"933";"29";"11";"1";"11";"1";"1";"10";"1";"[16,18]";"1";"0";"1"
"934";"15";"11";"1";"21";"1";"1";"10";"1";"[13,15,23,36,39]";"1";"0";"1"
"935";"2";"11";"1";"33";"1";"1";"10";"2";"[4,28]";"1";"8";"1"
"936";"14";"11";"1";"5";"1";"1";"10";"1";"[12,22,32]";"0";"8";"1"
"937";"40";"11";"1";"19";"1";"1";"10";"1";"[17,30,31,32]";"1";"0";"1"
"938";"2";"12";"1";"33";"1";"1";"10";"2";"[4,28]";"1";"9";"1"
"939";"36";"12";"1";"25";"1";"1";"10";"1";"[27]";"2";"0";"1"
"940";"27";"13";"1";"15";"1";"1";"10";"2";"[6,21,24,29,30,31,32,34]";"0";"8";"1"
"941";"2";"13";"1";"33";"1";"1";"10";"2";"[4,28]";"1";"10";"1"
"942";"36";"13";"1";"25";"1";"1";"10";"1";"[27]";"2";"0";"1"
"943";"5";"13";"1";"20";"1";"1";"10";"2";"[8,27,38]";"2";"0";"1"
"944";"4";"13";"1";"34";"1";"1";"10";"2";"[6,15,22,24,29,30,31,32]";"1";"0";"1"
"945";"27";"14";"1";"15";"1";"1";"10";"2";"[6,21,24,29,30,31,32,34]";"0";"9";"1"
"946";"5";"14";"1";"20";"1";"1";"10";"2";"[8,27,38]";"2";"0";"1"
"947";"4";"14";"1";"34";"1";"1";"10";"2";"[6,15,22,24,29,30,31,32]";"1";"0";"1"
"948";"27";"15";"1";"15";"1";"1";"10";"2";"[6,21,24,29,30,31,32,34]";"0";"8";"1"
"949";"27";"16";"1";"15";"1";"1";"10";"2";"[6,21,24,29,30,31,32,34]";"0";"9";"1"
"950";"27";"19";"1";"15";"1";"1";"10";"2";"[6,21,24,29,30,31,32,34]";"2";"9";"1"
"951";"14";"19";"1";"5";"1";"1";"10";"1";"[12,22,32]";"0";"5";"1"
"952";"27";"20";"1";"15";"1";"1";"10";"2";"[6,21,24,29,30,31,32,34]";"2";"9";"1"
"953";"14";"21";"1";"5";"1";"1";"10";"1";"[12,22,32]";"0";"8";"1"
"954";"14";"23";"1";"5";"1";"1";"10";"1";"[12,22,32]";"1";"8";"1"
"955";"14";"24";"1";"5";"1";"1";"10";"1";"[12,22,32]";"1";"8";"1"
"956";"10";"1";"1";"28";"1";"1";"11";"1";"[7,33]";"1";"0";"1"
"957";"20";"1";"1";"16";"1";"1";"11";"1";"[3,11,18,27]";"1";"0";"1"
"958";"34";"1";"1";"9";"1";"1";"11";"1";"[1,3,10,13,29,37]";"1";"0";"1"
"959";"36";"1";"1";"25";"1";"1";"11";"1";"[27]";"1";"0";"1"
"960";"10";"2";"1";"28";"1";"1";"11";"1";"[7,33]";"1";"0";"1"
"961";"20";"2";"1";"16";"1";"1";"11";"1";"[3,11,18,27]";"1";"0";"1"
"962";"13";"2";"1";"37";"1";"1";"11";"1";"[9,10,13,29,30]";"1";"0";"1"
"963";"34";"2";"1";"9";"1";"1";"11";"1";"[1,3,10,13,29,37]";"1";"0";"1"
"964";"32";"2";"1";"4";"1";"1";"11";"1";"[2,33,38]";"1";"0";"1"
"965";"33";"2";"1";"12";"1";"1";"11";"1";"[5,22]";"2";"0";"1"
"966";"36";"2";"1";"25";"1";"1";"11";"1";"[27]";"1";"0";"1"
"967";"35";"2";"1";"13";"1";"1";"11";"1";"[1,3,9,21,23,37]";"1";"0";"1"
"968";"3";"2";"1";"38";"1";"1";"11";"2";"[2,4,20,36,39,40]";"2";"0";"1"
"969";"15";"2";"1";"21";"1";"1";"11";"1";"[13,15,23,36,39]";"1";"0";"1"
"970";"37";"3";"1";"1";"1";"1";"11";"1";"[3,9,13,23]";"1";"0";"1"
"971";"2";"3";"1";"33";"1";"1";"11";"2";"[4,28]";"1";"0";"1"
"972";"16";"3";"1";"26";"1";"1";"11";"2";"[14,35]";"1";"0";"1"
"973";"13";"3";"1";"37";"1";"1";"11";"1";"[9,10,13,29,30]";"1";"0";"1"
"974";"32";"3";"1";"4";"1";"1";"11";"1";"[2,33,38]";"1";"0";"1"
"975";"33";"3";"1";"12";"1";"1";"11";"1";"[5,22]";"2";"0";"1"
"976";"18";"3";"1";"18";"1";"1";"11";"1";"[3,11,16,27]";"1";"0";"1"
"977";"35";"3";"1";"13";"1";"1";"11";"1";"[1,3,9,21,23,37]";"1";"0";"1"
"978";"12";"3";"1";"36";"1";"1";"11";"1";"[21,38,39]";"1";"0";"1"
"979";"24";"3";"1";"32";"1";"1";"11";"1";"[5,15,19,22,24,29,34]";"1";"0";"1"
"980";"7";"3";"1";"35";"1";"1";"11";"1";"[14,26]";"1";"0";"1"
"981";"3";"3";"1";"38";"1";"1";"11";"2";"[2,4,20,36,39,40]";"2";"0";"1"
"982";"15";"3";"1";"21";"1";"1";"11";"1";"[13,15,23,36,39]";"1";"0";"1"
"983";"25";"3";"1";"3";"1";"1";"11";"1";"[1,9,10,13,16,18]";"1";"0";"1"
"984";"8";"3";"1";"29";"1";"1";"11";"1";"[9,10,15,24,32,34,37]";"1";"0";"1"
"985";"37";"4";"1";"1";"1";"1";"11";"1";"[3,9,13,23]";"1";"0";"1"
"986";"2";"4";"1";"33";"1";"1";"11";"2";"[4,28]";"1";"0";"1"
"987";"14";"4";"1";"5";"1";"1";"11";"1";"[12,22,32]";"0";"9";"1"
"988";"26";"4";"1";"23";"1";"1";"11";"1";"[1,13,21]";"1";"0";"1"
"989";"16";"4";"1";"26";"1";"1";"11";"2";"[14,35]";"1";"0";"1"
"990";"30";"4";"1";"6";"1";"1";"11";"1";"[8,15,24,30,34]";"2";"0";"1"
"991";"39";"4";"1";"10";"1";"1";"11";"2";"[3,9,29,37]";"1";"0";"1"
"992";"18";"4";"1";"18";"1";"1";"11";"1";"[3,11,16,27]";"1";"0";"1"
"993";"9";"4";"1";"14";"1";"1";"11";"1";"[26,35,40]";"1";"0";"1"
"994";"11";"4";"1";"22";"1";"1";"11";"1";"[5,12,32,34]";"1";"0";"1"
"995";"12";"4";"1";"36";"1";"1";"11";"1";"[21,38,39]";"1";"0";"1"
"996";"24";"4";"1";"32";"1";"1";"11";"1";"[5,15,19,22,24,29,34]";"1";"0";"1"
"997";"27";"4";"1";"15";"1";"1";"11";"2";"[6,21,24,29,30,31,32,34]";"0";"11";"1"
"998";"7";"4";"1";"35";"1";"1";"11";"1";"[14,26]";"1";"0";"1"
"999";"25";"4";"1";"3";"1";"1";"11";"1";"[1,9,10,13,16,18]";"1";"0";"1"
"1000";"8";"4";"1";"29";"1";"1";"11";"1";"[9,10,15,24,32,34,37]";"1";"0";"1"
"1001";"26";"5";"1";"23";"1";"1";"11";"1";"[1,13,21]";"1";"0";"1"
"1002";"38";"5";"1";"17";"1";"1";"11";"1";"[19]";"1";"0";"1"
"1003";"30";"5";"1";"6";"1";"1";"11";"1";"[8,15,24,30,34]";"2";"0";"1"
"1004";"39";"5";"1";"10";"1";"1";"11";"2";"[3,9,29,37]";"1";"0";"1"
"1005";"9";"5";"1";"14";"1";"1";"11";"1";"[26,35,40]";"1";"0";"1"
"1006";"14";"5";"1";"5";"1";"1";"11";"1";"[12,22,32]";"0";"7";"1"
"1007";"22";"5";"1";"39";"1";"1";"11";"2";"[21,36,38]";"1";"0";"1"
"1008";"11";"5";"1";"22";"1";"1";"11";"1";"[5,12,32,34]";"1";"0";"1"
"1009";"17";"6";"1";"30";"1";"1";"11";"1";"[6,15,19,24,31,34,37]";"1";"0";"1"
"1010";"31";"6";"1";"31";"1";"1";"11";"1";"[15,19,24,30,34]";"1";"0";"1"
"1011";"38";"6";"1";"17";"1";"1";"11";"1";"[19]";"1";"0";"1"
"1012";"23";"6";"1";"40";"1";"1";"11";"2";"[7,14,38]";"2";"0";"1"
"1013";"22";"6";"1";"39";"1";"1";"11";"2";"[21,36,38]";"1";"0";"1"
"1014";"14";"6";"1";"5";"1";"1";"11";"1";"[12,22,32]";"0";"5";"1"
"1015";"17";"7";"1";"30";"1";"1";"11";"1";"[6,15,19,24,31,34,37]";"1";"0";"1"
"1016";"31";"7";"1";"31";"1";"1";"11";"1";"[15,19,24,30,34]";"1";"0";"1"
"1017";"8";"7";"1";"29";"1";"1";"11";"1";"[9,10,15,24,32,34,37]";"1";"1";"1"
"1018";"23";"7";"1";"40";"1";"1";"11";"2";"[7,14,38]";"2";"0";"1"
"1019";"14";"7";"1";"5";"1";"1";"11";"1";"[12,22,32]";"0";"4";"1"
"1020";"27";"8";"1";"15";"1";"1";"11";"2";"[6,21,24,29,30,31,32,34]";"0";"11";"1"
"1021";"19";"8";"1";"27";"1";"1";"11";"2";"[16,18,20,25]";"1";"0";"1"
"1022";"27";"8";"1";"15";"1";"1";"11";"2";"[6,21,24,29,30,31,32,34]";"0";"8";"1"
"1023";"8";"9";"1";"29";"1";"1";"11";"1";"[9,10,15,24,32,34,37]";"1";"2";"1"
"1024";"28";"9";"1";"24";"1";"1";"11";"1";"[6,15,29,30,31,32,34]";"1";"0";"1"
"1025";"19";"9";"1";"27";"1";"1";"11";"2";"[16,18,20,25]";"1";"0";"1"
"1026";"27";"9";"1";"15";"1";"1";"11";"2";"[6,21,24,29,30,31,32,34]";"0";"9";"1"
"1027";"14";"9";"1";"5";"1";"1";"11";"1";"[12,22,32]";"0";"2";"1"
"1028";"8";"10";"1";"29";"1";"1";"11";"1";"[9,10,15,24,32,34,37]";"1";"3";"1"
"1029";"28";"10";"1";"24";"1";"1";"11";"1";"[6,15,29,30,31,32,34]";"1";"0";"1"
"1030";"29";"10";"1";"11";"1";"1";"11";"1";"[16,18]";"1";"0";"1"
"1031";"14";"10";"1";"5";"1";"1";"11";"1";"[12,22,32]";"0";"1";"1"
"1032";"6";"10";"1";"8";"1";"1";"11";"1";"[6,20]";"2";"0";"1"
"1033";"8";"10";"1";"29";"1";"1";"11";"1";"[9,10,15,24,32,34,37]";"1";"4";"1"
"1034";"1";"11";"1";"2";"1";"1";"11";"1";"[4,38]";"1";"0";"1"
"1035";"27";"11";"1";"15";"1";"1";"11";"2";"[6,21,24,29,30,31,32,34]";"0";"8";"1"
"1036";"29";"11";"1";"11";"1";"1";"11";"1";"[16,18]";"1";"0";"1"
"1037";"6";"11";"1";"8";"1";"1";"11";"1";"[6,20]";"2";"0";"1"
"1038";"1";"12";"1";"2";"1";"1";"11";"1";"[4,38]";"1";"0";"1"
"1039";"8";"12";"1";"29";"1";"1";"11";"1";"[9,10,15,24,32,34,37]";"1";"5";"1"
"1040";"14";"12";"1";"5";"1";"1";"11";"1";"[12,22,32]";"0";"2";"1"
"1041";"27";"12";"1";"15";"1";"1";"11";"2";"[6,21,24,29,30,31,32,34]";"0";"11";"1"
"1042";"8";"13";"1";"29";"1";"1";"11";"1";"[9,10,15,24,32,34,37]";"1";"6";"1"
"1043";"27";"13";"1";"15";"1";"1";"11";"2";"[6,21,24,29,30,31,32,34]";"0";"11";"1"
"1044";"40";"13";"1";"19";"1";"1";"11";"1";"[17,30,31,32]";"1";"0";"1"
"1045";"5";"13";"1";"20";"1";"1";"11";"2";"[8,27,38]";"2";"0";"1"
"1046";"8";"14";"1";"29";"1";"1";"11";"1";"[9,10,15,24,32,34,37]";"1";"7";"1"
"1047";"14";"14";"1";"5";"1";"1";"11";"1";"[12,22,32]";"0";"1";"1"
"1048";"40";"14";"1";"19";"1";"1";"11";"1";"[17,30,31,32]";"1";"0";"1"
"1049";"5";"14";"1";"20";"1";"1";"11";"2";"[8,27,38]";"2";"0";"1"
"1050";"8";"14";"1";"29";"1";"1";"11";"1";"[9,10,15,24,32,34,37]";"1";"8";"1"
"1051";"14";"15";"1";"5";"1";"1";"11";"1";"[12,22,32]";"0";"2";"1"
"1052";"4";"16";"1";"34";"1";"1";"11";"2";"[6,15,22,24,29,30,31,32]";"1";"0";"1"
"1053";"8";"16";"1";"29";"1";"1";"11";"1";"[9,10,15,24,32,34,37]";"1";"9";"1"
"1054";"27";"16";"1";"15";"1";"1";"11";"2";"[6,21,24,29,30,31,32,34]";"2";"11";"1"
"1055";"14";"16";"1";"5";"1";"1";"11";"1";"[12,22,32]";"0";"3";"1"
"1056";"4";"17";"1";"34";"1";"1";"11";"2";"[6,15,22,24,29,30,31,32]";"1";"0";"1"
"1057";"8";"17";"1";"29";"1";"1";"11";"1";"[9,10,15,24,32,34,37]";"1";"10";"1"
"1058";"27";"17";"1";"15";"1";"1";"11";"2";"[6,21,24,29,30,31,32,34]";"2";"11";"1"
"1059";"8";"18";"1";"29";"1";"1";"11";"1";"[9,10,15,24,32,34,37]";"1";"11";"1"
"1060";"14";"18";"1";"5";"1";"1";"11";"1";"[12,22,32]";"0";"9";"1"
"1061";"8";"19";"1";"29";"1";"1";"11";"1";"[9,10,15,24,32,34,37]";"1";"11";"1"
"1062";"14";"20";"1";"5";"1";"1";"11";"1";"[12,22,32]";"1";"9";"1"
"1063";"14";"21";"1";"5";"1";"1";"11";"1";"[12,22,32]";"1";"9";"1"
"1064";"8";"23";"1";"29";"1";"1";"11";"1";"[9,10,15,24,32,34,37]";"1";"11";"1"
"1065";"27";"26";"1";"15";"1";"1";"11";"2";"[6,21,24,29,30,31,32,34]";"2";"9";"1"
"1066";"27";"27";"1";"15";"1";"1";"11";"2";"[6,21,24,29,30,31,32,34]";"2";"10";"1"
"1067";"33";"29";"1";"12";"1";"1";"11";"1";"[5,22]";"2";"9";"1"
"1068";"21";"30";"1";"7";"1";"1";"11";"1";"[28,40]";"0";"0";"1"
"1069";"0";"30";"1";"7";"1";"1";"11";"1";"[28,40]";"1";"0";"0"
"1070";"10";"2";"1";"28";"1";"1";"12";"1";"[7,33]";"1";"0";"1"
"1071";"20";"2";"1";"16";"1";"1";"12";"1";"[3,11,18,27]";"1";"0";"1"
"1072";"27";"2";"1";"15";"1";"1";"12";"2";"[6,21,24,29,30,31,32,34]";"0";"9";"1"
"1073";"34";"2";"1";"9";"1";"1";"12";"1";"[1,3,10,13,29,37]";"1";"0";"1"
"1074";"22";"3";"1";"39";"1";"1";"12";"2";"[21,36,38]";"2";"0";"1"
"1075";"35";"3";"1";"13";"1";"1";"12";"1";"[1,3,9,21,23,37]";"1";"0";"1"
"1076";"12";"3";"1";"36";"1";"1";"12";"1";"[21,38,39]";"1";"0";"1"
"1077";"15";"3";"1";"21";"1";"1";"12";"1";"[13,15,23,36,39]";"1";"0";"1"
"1078";"10";"3";"1";"28";"1";"1";"12";"1";"[7,33]";"1";"0";"1"
"1079";"27";"3";"1";"15";"1";"1";"12";"2";"[6,21,24,29,30,31,32,34]";"0";"10";"1"
"1080";"33";"3";"1";"12";"1";"1";"12";"1";"[5,22]";"1";"0";"1"
"1081";"20";"3";"1";"16";"1";"1";"12";"1";"[3,11,18,27]";"1";"0";"1"
"1082";"34";"3";"1";"9";"1";"1";"12";"1";"[1,3,10,13,29,37]";"1";"0";"1"
"1083";"37";"4";"1";"1";"1";"1";"12";"1";"[3,9,13,23]";"1";"0";"1"
"1084";"24";"4";"1";"32";"1";"1";"12";"1";"[5,15,19,22,24,29,34]";"1";"0";"1"
"1085";"11";"4";"1";"22";"1";"1";"12";"1";"[5,12,32,34]";"1";"0";"1"
"1086";"17";"4";"1";"30";"1";"1";"12";"1";"[6,15,19,24,31,34,37]";"1";"0";"1"
"1087";"22";"4";"1";"39";"1";"1";"12";"2";"[21,36,38]";"2";"0";"1"
"1088";"12";"4";"1";"36";"1";"1";"12";"1";"[21,38,39]";"1";"0";"1"
"1089";"35";"4";"1";"13";"1";"1";"12";"1";"[1,3,9,21,23,37]";"1";"0";"1"
"1090";"21";"4";"1";"7";"1";"1";"12";"1";"[28,40]";"1";"0";"1"
"1091";"15";"4";"1";"21";"1";"1";"12";"1";"[13,15,23,36,39]";"1";"0";"1"
"1092";"13";"4";"1";"37";"1";"1";"12";"1";"[9,10,13,29,30]";"1";"0";"1"
"1093";"33";"4";"1";"12";"1";"1";"12";"1";"[5,22]";"1";"0";"1"
"1094";"37";"5";"1";"1";"1";"1";"12";"1";"[3,9,13,23]";"1";"0";"1"
"1095";"7";"5";"1";"35";"1";"1";"12";"1";"[14,26]";"1";"0";"1"
"1096";"3";"5";"1";"38";"1";"1";"12";"2";"[2,4,20,36,39,40]";"2";"0";"1"
"1097";"24";"5";"1";"32";"1";"1";"12";"1";"[5,15,19,22,24,29,34]";"1";"0";"1"
"1098";"23";"5";"1";"40";"1";"1";"12";"2";"[7,14,38]";"2";"0";"1"
"1099";"27";"5";"1";"15";"1";"1";"12";"2";"[6,21,24,29,30,31,32,34]";"0";"11";"1"
"1100";"18";"5";"1";"18";"1";"1";"12";"1";"[3,11,16,27]";"1";"0";"1"
"1101";"19";"5";"1";"27";"1";"1";"12";"2";"[16,18,20,25]";"1";"0";"1"
"1102";"11";"5";"1";"22";"1";"1";"12";"1";"[5,12,32,34]";"1";"0";"1"
"1103";"17";"5";"1";"30";"1";"1";"12";"1";"[6,15,19,24,31,34,37]";"1";"0";"1"
"1104";"30";"5";"1";"6";"1";"1";"12";"1";"[8,15,24,30,34]";"1";"0";"1"
"1105";"21";"5";"1";"7";"1";"1";"12";"1";"[28,40]";"1";"0";"1"
"1106";"26";"5";"1";"23";"1";"1";"12";"1";"[1,13,21]";"1";"0";"1"
"1107";"31";"5";"1";"31";"1";"1";"12";"1";"[15,19,24,30,34]";"1";"0";"1"
"1108";"25";"5";"1";"3";"1";"1";"12";"1";"[1,9,10,13,16,18]";"1";"0";"1"
"1109";"14";"5";"1";"5";"1";"1";"12";"1";"[12,22,32]";"0";"8";"1"
"1110";"39";"5";"1";"10";"1";"1";"12";"2";"[3,9,29,37]";"1";"0";"1"
"1111";"38";"5";"1";"17";"1";"1";"12";"1";"[19]";"1";"0";"1"
"1112";"8";"5";"1";"29";"1";"1";"12";"1";"[9,10,15,24,32,34,37]";"1";"0";"1"
"1113";"13";"5";"1";"37";"1";"1";"12";"1";"[9,10,13,29,30]";"1";"0";"1"
"1114";"32";"6";"1";"4";"1";"1";"12";"1";"[2,33,38]";"2";"0";"1"
"1115";"29";"6";"1";"11";"1";"1";"12";"1";"[16,18]";"1";"0";"1"
"1116";"7";"6";"1";"35";"1";"1";"12";"1";"[14,26]";"1";"0";"1"
"1117";"3";"6";"1";"38";"1";"1";"12";"2";"[2,4,20,36,39,40]";"2";"0";"1"
"1118";"23";"6";"1";"40";"1";"1";"12";"2";"[7,14,38]";"2";"0";"1"
"1119";"18";"6";"1";"18";"1";"1";"12";"1";"[3,11,16,27]";"1";"0";"1"
"1120";"19";"6";"1";"27";"1";"1";"12";"2";"[16,18,20,25]";"1";"0";"1"
"1121";"30";"6";"1";"6";"1";"1";"12";"1";"[8,15,24,30,34]";"1";"0";"1"
"1122";"26";"6";"1";"23";"1";"1";"12";"1";"[1,13,21]";"1";"0";"1"
"1123";"31";"6";"1";"31";"1";"1";"12";"1";"[15,19,24,30,34]";"1";"0";"1"
"1124";"25";"6";"1";"3";"1";"1";"12";"1";"[1,9,10,13,16,18]";"1";"0";"1"
"1125";"39";"6";"1";"10";"1";"1";"12";"2";"[3,9,29,37]";"1";"0";"1"
"1126";"16";"6";"1";"26";"1";"1";"12";"2";"[14,35]";"1";"0";"1"
"1127";"38";"6";"1";"17";"1";"1";"12";"1";"[19]";"1";"0";"1"
"1128";"8";"6";"1";"29";"1";"1";"12";"1";"[9,10,15,24,32,34,37]";"1";"0";"1"
"1129";"14";"6";"1";"5";"1";"1";"12";"1";"[12,22,32]";"0";"5";"1"
"1130";"32";"7";"1";"4";"1";"1";"12";"1";"[2,33,38]";"2";"0";"1"
"1131";"29";"7";"1";"11";"1";"1";"12";"1";"[16,18]";"1";"0";"1"
"1132";"9";"7";"1";"14";"1";"1";"12";"1";"[26,35,40]";"1";"0";"1"
"1133";"6";"7";"1";"8";"1";"1";"12";"1";"[6,20]";"2";"0";"1"
"1134";"16";"7";"1";"26";"1";"1";"12";"2";"[14,35]";"1";"0";"1"
"1135";"14";"7";"1";"5";"1";"1";"12";"1";"[12,22,32]";"0";"4";"1"
"1136";"5";"8";"1";"20";"1";"1";"12";"2";"[8,27,38]";"2";"0";"1"
"1137";"9";"8";"1";"14";"1";"1";"12";"1";"[26,35,40]";"1";"0";"1"
"1138";"6";"8";"1";"8";"1";"1";"12";"1";"[6,20]";"2";"0";"1"
"1139";"14";"8";"1";"5";"1";"1";"12";"1";"[12,22,32]";"0";"3";"1"
"1140";"36";"9";"1";"25";"1";"1";"12";"1";"[27]";"1";"0";"1"
"1141";"5";"9";"1";"20";"1";"1";"12";"2";"[8,27,38]";"2";"0";"1"
"1142";"36";"10";"1";"25";"1";"1";"12";"1";"[27]";"1";"0";"1"
"1143";"27";"10";"1";"15";"1";"1";"12";"2";"[6,21,24,29,30,31,32,34]";"1";"11";"1"
"1144";"1";"11";"1";"2";"1";"1";"12";"1";"[4,38]";"1";"0";"1"
"1145";"27";"11";"1";"15";"1";"1";"12";"2";"[6,21,24,29,30,31,32,34]";"1";"11";"1"
"1146";"1";"12";"1";"2";"1";"1";"12";"1";"[4,38]";"1";"0";"1"
"1147";"14";"12";"1";"5";"1";"1";"12";"1";"[12,22,32]";"0";"6";"1"
"1148";"14";"14";"1";"5";"1";"1";"12";"1";"[12,22,32]";"0";"8";"1"
"1149";"2";"14";"1";"33";"1";"1";"12";"2";"[4,28]";"1";"0";"1"
"1150";"2";"15";"1";"33";"1";"1";"12";"2";"[4,28]";"1";"0";"1"
"1151";"14";"16";"1";"5";"1";"1";"12";"1";"[12,22,32]";"0";"9";"1"
"1152";"14";"17";"1";"5";"1";"1";"12";"1";"[12,22,32]";"0";"1";"1"
"1153";"14";"18";"1";"5";"1";"1";"12";"1";"[12,22,32]";"0";"2";"1"
"1154";"4";"19";"1";"34";"1";"1";"12";"2";"[6,15,22,24,29,30,31,32]";"1";"0";"1"
"1155";"14";"19";"1";"5";"1";"1";"12";"1";"[12,22,32]";"0";"11";"1"
"1156";"4";"20";"1";"34";"1";"1";"12";"2";"[6,15,22,24,29,30,31,32]";"1";"0";"1"
"1157";"14";"21";"1";"5";"1";"1";"12";"1";"[12,22,32]";"1";"11";"1"
"1158";"14";"22";"1";"5";"1";"1";"12";"1";"[12,22,32]";"1";"11";"1"
"1159";"28";"22";"1";"24";"1";"1";"12";"1";"[6,15,29,30,31,32,34]";"1";"0";"1"
"1160";"28";"23";"1";"24";"1";"1";"12";"1";"[6,15,29,30,31,32,34]";"1";"0";"1"
"1161";"40";"27";"1";"19";"1";"1";"12";"1";"[17,30,31,32]";"1";"0";"1"
"1162";"40";"28";"1";"19";"1";"1";"12";"1";"[17,30,31,32]";"1";"0";"1"
"1163";"25";"0";"1";"15";"1";"2";"12";"1";"[6,21,24,29,30,31,32,34]";"1";"11";"1"
"1164";"10";"0";"1";"40";"1";"2";"12";"2";"[7,14,38]";"2";"0";"1"
"1165";"13";"0";"1";"13";"1";"2";"12";"2";"[1,3,9,21,23,37]";"1";"0";"1"
"1166";"34";"0";"1";"31";"1";"2";"12";"2";"[15,19,24,30,34]";"1";"0";"1"
"1167";"40";"0";"1";"24";"1";"2";"12";"1";"[6,15,29,30,31,32,34]";"1";"0";"1"
"1168";"2";"0";"1";"9";"1";"2";"12";"2";"[1,3,10,13,29,37]";"1";"0";"1"
"1169";"12";"0";"1";"28";"1";"2";"12";"2";"[7,33]";"1";"0";"1"
"1170";"24";"0";"1";"25";"1";"2";"12";"1";"[27]";"1";"0";"1"
"1171";"18";"0";"1";"2";"1";"2";"12";"2";"[4,38]";"1";"0";"1"
"1172";"6";"0";"1";"12";"1";"2";"12";"1";"[5,22]";"1";"0";"1"
"1173";"17";"0";"1";"19";"1";"2";"12";"1";"[17,30,31,32]";"1";"0";"1"
"1174";"28";"0";"1";"33";"1";"2";"12";"2";"[4,28]";"1";"0";"1"
"1175";"16";"0";"1";"27";"1";"2";"12";"1";"[16,18,20,25]";"1";"0";"1"
"1176";"3";"0";"1";"37";"1";"2";"12";"1";"[9,10,13,29,30]";"1";"0";"1"
"1177";"31";"0";"1";"23";"1";"2";"12";"2";"[1,13,21]";"1";"0";"1"
"1178";"33";"0";"1";"35";"1";"2";"12";"2";"[14,26]";"1";"0";"1"
"1179";"27";"0";"1";"29";"1";"2";"12";"2";"[9,10,15,24,32,34,37]";"1";"0";"1"
"1180";"21";"0";"1";"18";"1";"2";"12";"2";"[3,11,16,27]";"1";"0";"1"
"1181";"5";"0";"1";"4";"1";"2";"12";"2";"[2,33,38]";"2";"0";"1"
"1182";"37";"0";"1";"8";"1";"2";"12";"2";"[6,20]";"2";"0";"1"
"1183";"11";"0";"1";"39";"1";"2";"12";"1";"[21,36,38]";"2";"0";"1"
"1184";"14";"0";"1";"11";"1";"2";"12";"2";"[16,18]";"1";"0";"1"
"1185";"26";"0";"1";"38";"1";"2";"12";"2";"[2,4,20,36,39,40]";"2";"0";"1"
"1186";"22";"0";"1";"21";"1";"2";"12";"2";"[13,15,23,36,39]";"1";"0";"1"
"1187";"30";"0";"1";"3";"1";"2";"12";"2";"[1,9,10,13,16,18]";"1";"0";"1"
"1188";"36";"0";"1";"10";"1";"2";"12";"2";"[3,9,29,37]";"1";"0";"1"
"1189";"23";"0";"1";"22";"1";"2";"12";"2";"[5,12,32,34]";"1";"0";"1"
"1190";"19";"0";"1";"26";"1";"2";"12";"1";"[14,35]";"1";"0";"1"
"1191";"7";"0";"1";"1";"1";"2";"12";"2";"[3,9,13,23]";"1";"0";"1"
"1192";"15";"0";"1";"6";"1";"2";"12";"1";"[8,15,24,30,34]";"1";"0";"1"
"1193";"39";"0";"1";"17";"1";"2";"12";"2";"[19]";"1";"0";"1"
"1194";"20";"0";"1";"34";"1";"2";"12";"2";"[6,15,22,24,29,30,31,32]";"1";"0";"1"
"1195";"4";"0";"1";"14";"1";"2";"12";"2";"[26,35,40]";"1";"0";"1"
"1196";"29";"0";"1";"7";"1";"2";"12";"1";"[28,40]";"1";"0";"1"
"1197";"38";"0";"1";"5";"1";"2";"12";"2";"[12,22,32]";"1";"11";"1"
"1198";"32";"0";"1";"36";"1";"2";"12";"1";"[21,38,39]";"1";"0";"1"
"1199";"8";"0";"1";"20";"1";"2";"12";"1";"[8,27,38]";"2";"0";"1"
"1200";"35";"0";"1";"32";"1";"2";"12";"2";"[5,15,19,22,24,29,34]";"1";"0";"1"
"1201";"1";"0";"1";"30";"1";"2";"12";"2";"[6,15,19,24,31,34,37]";"1";"0";"1"
"1202";"9";"0";"1";"16";"1";"2";"12";"2";"[3,11,18,27]";"1";"0";"1"
"1203";"28";"2";"1";"33";"1";"2";"1";"2";"[4,28]";"2";"0";"1"
"1204";"28";"3";"1";"33";"1";"2";"1";"2";"[4,28]";"2";"0";"1"
"1205";"13";"3";"1";"13";"1";"2";"1";"2";"[1,3,9,21,23,37]";"2";"0";"1"
"1206";"33";"3";"1";"35";"1";"2";"1";"2";"[14,26]";"2";"0";"1"
"1207";"30";"3";"1";"3";"1";"2";"1";"2";"[1,9,10,13,16,18]";"2";"0";"1"
"1208";"15";"3";"1";"6";"1";"2";"1";"1";"[8,15,24,30,34]";"1";"0";"1"
"1209";"10";"4";"1";"40";"1";"2";"1";"2";"[7,14,38]";"2";"0";"1"
"1210";"13";"4";"1";"13";"1";"2";"1";"2";"[1,3,9,21,23,37]";"2";"0";"1"
"1211";"3";"4";"1";"37";"1";"2";"1";"1";"[9,10,13,29,30]";"1";"0";"1"
"1212";"34";"4";"1";"31";"1";"2";"1";"2";"[15,19,24,30,34]";"2";"0";"1"
"1213";"29";"4";"1";"7";"1";"2";"1";"1";"[28,40]";"1";"0";"1"
"1214";"20";"4";"1";"34";"1";"2";"1";"2";"[6,15,22,24,29,30,31,32]";"2";"0";"1"
"1215";"33";"4";"1";"35";"1";"2";"1";"2";"[14,26]";"2";"0";"1"
"1216";"2";"4";"1";"9";"1";"2";"1";"2";"[1,3,10,13,29,37]";"2";"0";"1"
"1217";"24";"4";"1";"25";"1";"2";"1";"1";"[27]";"1";"0";"1"
"1218";"12";"4";"1";"28";"1";"2";"1";"2";"[7,33]";"2";"0";"1"
"1219";"30";"4";"1";"3";"1";"2";"1";"2";"[1,9,10,13,16,18]";"2";"0";"1"
"1220";"35";"4";"1";"32";"1";"2";"1";"2";"[5,15,19,22,24,29,34]";"2";"0";"1"
"1221";"15";"4";"1";"6";"1";"2";"1";"1";"[8,15,24,30,34]";"1";"0";"1"
"1222";"26";"5";"1";"38";"1";"2";"1";"2";"[2,4,20,36,39,40]";"2";"0";"1"
"1223";"25";"5";"1";"15";"1";"2";"1";"1";"[6,21,24,29,30,31,32,34]";"1";"0";"1"
"1224";"10";"5";"1";"40";"1";"2";"1";"2";"[7,14,38]";"2";"0";"1"
"1225";"3";"5";"1";"37";"1";"2";"1";"1";"[9,10,13,29,30]";"1";"0";"1"
"1226";"29";"5";"1";"7";"1";"2";"1";"1";"[28,40]";"1";"0";"1"
"1227";"20";"5";"1";"34";"1";"2";"1";"2";"[6,15,22,24,29,30,31,32]";"2";"0";"1"
"1228";"34";"5";"1";"31";"1";"2";"1";"2";"[15,19,24,30,34]";"2";"0";"1"
"1229";"5";"5";"1";"4";"1";"2";"1";"2";"[2,33,38]";"2";"0";"1"
"1230";"22";"5";"1";"21";"1";"2";"1";"2";"[13,15,23,36,39]";"2";"0";"1"
"1231";"2";"5";"1";"9";"1";"2";"1";"2";"[1,3,10,13,29,37]";"2";"0";"1"
"1232";"24";"5";"1";"25";"1";"2";"1";"1";"[27]";"1";"0";"1"
"1233";"11";"5";"1";"39";"1";"2";"1";"1";"[21,36,38]";"1";"0";"1"
"1234";"12";"5";"1";"28";"1";"2";"1";"2";"[7,33]";"2";"0";"1"
"1235";"17";"5";"1";"19";"1";"2";"1";"1";"[17,30,31,32]";"1";"0";"1"
"1236";"35";"5";"1";"32";"1";"2";"1";"2";"[5,15,19,22,24,29,34]";"2";"0";"1"
"1237";"26";"6";"1";"38";"1";"2";"1";"2";"[2,4,20,36,39,40]";"2";"0";"1"
"1238";"21";"6";"1";"18";"1";"2";"1";"2";"[3,11,16,27]";"2";"0";"1"
"1239";"25";"6";"1";"15";"1";"2";"1";"1";"[6,21,24,29,30,31,32,34]";"1";"0";"1"
"1240";"32";"6";"1";"36";"1";"2";"1";"1";"[21,38,39]";"2";"0";"1"
"1241";"37";"6";"1";"8";"1";"2";"1";"2";"[6,20]";"2";"0";"1"
"1242";"36";"6";"1";"10";"1";"2";"1";"2";"[3,9,29,37]";"2";"0";"1"
"1243";"5";"6";"1";"4";"1";"2";"1";"2";"[2,33,38]";"2";"0";"1"
"1244";"22";"6";"1";"21";"1";"2";"1";"2";"[13,15,23,36,39]";"2";"0";"1"
"1245";"11";"6";"1";"39";"1";"2";"1";"1";"[21,36,38]";"1";"0";"1"
"1246";"27";"6";"1";"29";"1";"2";"1";"2";"[9,10,15,24,32,34,37]";"2";"0";"1"
"1247";"17";"6";"1";"19";"1";"2";"1";"1";"[17,30,31,32]";"1";"0";"1"
"1248";"21";"7";"1";"18";"1";"2";"1";"2";"[3,11,16,27]";"2";"0";"1"
"1249";"38";"7";"1";"5";"1";"2";"1";"2";"[12,22,32]";"2";"0";"1"
"1250";"6";"7";"1";"12";"1";"2";"1";"1";"[5,22]";"1";"0";"1"
"1251";"32";"7";"1";"36";"1";"2";"1";"1";"[21,38,39]";"2";"0";"1"
"1252";"37";"7";"1";"8";"1";"2";"1";"2";"[6,20]";"2";"0";"1"
"1253";"36";"7";"1";"10";"1";"2";"1";"2";"[3,9,29,37]";"2";"0";"1"
"1254";"18";"7";"1";"2";"1";"2";"1";"2";"[4,38]";"2";"0";"1"
"1255";"9";"7";"1";"16";"1";"2";"1";"2";"[3,11,18,27]";"2";"0";"1"
"1256";"27";"7";"1";"29";"1";"2";"1";"2";"[9,10,15,24,32,34,37]";"2";"0";"1"
"1257";"8";"7";"1";"20";"1";"2";"1";"1";"[8,27,38]";"1";"0";"1"
"1258";"16";"7";"1";"27";"1";"2";"1";"1";"[16,18,20,25]";"1";"0";"1"
"1259";"38";"8";"1";"5";"1";"2";"1";"2";"[12,22,32]";"2";"0";"1"
"1260";"6";"8";"1";"12";"1";"2";"1";"1";"[5,22]";"1";"0";"1"
"1261";"18";"8";"1";"2";"1";"2";"1";"2";"[4,38]";"2";"0";"1"
"1262";"9";"8";"1";"16";"1";"2";"1";"2";"[3,11,18,27]";"2";"0";"1"
"1263";"8";"8";"1";"20";"1";"2";"1";"1";"[8,27,38]";"1";"0";"1"
"1264";"31";"8";"1";"23";"1";"2";"1";"2";"[1,13,21]";"2";"0";"1"
"1265";"16";"8";"1";"27";"1";"2";"1";"1";"[16,18,20,25]";"1";"0";"1"
"1266";"40";"9";"1";"24";"1";"2";"1";"1";"[6,15,29,30,31,32,34]";"1";"0";"1"
"1267";"14";"9";"1";"11";"1";"2";"1";"2";"[16,18]";"2";"0";"1"
"1268";"23";"9";"1";"22";"1";"2";"1";"2";"[5,12,32,34]";"1";"0";"1"
"1269";"31";"9";"1";"23";"1";"2";"1";"2";"[1,13,21]";"2";"0";"1"
"1270";"40";"10";"1";"24";"1";"2";"1";"1";"[6,15,29,30,31,32,34]";"1";"0";"1"
"1271";"14";"10";"1";"11";"1";"2";"1";"2";"[16,18]";"2";"0";"1"
"1272";"1";"10";"1";"30";"1";"2";"1";"2";"[6,15,19,24,31,34,37]";"2";"0";"1"
"1273";"23";"10";"1";"22";"1";"2";"1";"2";"[5,12,32,34]";"1";"0";"1"
"1274";"19";"10";"1";"26";"1";"2";"1";"1";"[14,35]";"2";"0";"1"
"1275";"39";"10";"1";"17";"1";"2";"1";"2";"[19]";"2";"0";"1"
"1276";"7";"11";"1";"1";"1";"2";"1";"2";"[3,9,13,23]";"2";"0";"1"
"1277";"1";"11";"1";"30";"1";"2";"1";"2";"[6,15,19,24,31,34,37]";"2";"0";"1"
"1278";"19";"11";"1";"26";"1";"2";"1";"1";"[14,35]";"2";"0";"1"
"1279";"39";"11";"1";"17";"1";"2";"1";"2";"[19]";"2";"0";"1"
"1280";"7";"12";"1";"1";"1";"2";"1";"2";"[3,9,13,23]";"2";"0";"1"
"1281";"4";"16";"1";"14";"1";"2";"1";"2";"[26,35,40]";"2";"0";"1"
"1282";"4";"17";"1";"14";"1";"2";"1";"2";"[26,35,40]";"2";"0";"1"
"1283";"30";"1";"1";"3";"1";"2";"2";"2";"[1,9,10,13,16,18]";"2";"0";"1"
"1284";"33";"2";"1";"35";"1";"2";"2";"2";"[14,26]";"2";"0";"1"
"1285";"3";"2";"1";"37";"1";"2";"2";"1";"[9,10,13,29,30]";"1";"0";"1"
"1286";"12";"2";"1";"28";"1";"2";"2";"2";"[7,33]";"2";"0";"1"
"1287";"30";"2";"1";"3";"1";"2";"2";"2";"[1,9,10,13,16,18]";"2";"0";"1"
"1288";"18";"3";"1";"2";"1";"2";"2";"2";"[4,38]";"2";"0";"1"
"1289";"40";"3";"1";"24";"1";"2";"2";"1";"[6,15,29,30,31,32,34]";"1";"0";"1"
"1290";"33";"3";"1";"35";"1";"2";"2";"2";"[14,26]";"2";"0";"1"
"1291";"3";"3";"1";"37";"1";"2";"2";"1";"[9,10,13,29,30]";"1";"0";"1"
"1292";"12";"3";"1";"28";"1";"2";"2";"2";"[7,33]";"2";"0";"1"
"1293";"19";"3";"1";"26";"1";"2";"2";"1";"[14,35]";"2";"0";"1"
"1294";"32";"3";"1";"36";"1";"2";"2";"1";"[21,38,39]";"1";"0";"1"
"1295";"28";"4";"1";"33";"1";"2";"2";"2";"[4,28]";"2";"0";"1"
"1296";"26";"4";"1";"38";"1";"2";"2";"2";"[2,4,20,36,39,40]";"2";"0";"1"
"1297";"18";"4";"1";"2";"1";"2";"2";"2";"[4,38]";"2";"0";"1"
"1298";"40";"4";"1";"24";"1";"2";"2";"1";"[6,15,29,30,31,32,34]";"1";"0";"1"
"1299";"17";"4";"1";"19";"1";"2";"2";"1";"[17,30,31,32]";"1";"0";"1"
"1300";"23";"4";"1";"22";"1";"2";"2";"2";"[5,12,32,34]";"2";"0";"1"
"1301";"36";"4";"1";"10";"1";"2";"2";"2";"[3,9,29,37]";"2";"0";"1"
"1302";"19";"4";"1";"26";"1";"2";"2";"1";"[14,35]";"2";"0";"1"
"1303";"32";"4";"1";"36";"1";"2";"2";"1";"[21,38,39]";"1";"0";"1"
"1304";"21";"4";"1";"18";"1";"2";"2";"2";"[3,11,16,27]";"2";"0";"1"
"1305";"39";"5";"1";"17";"1";"2";"2";"2";"[19]";"1";"0";"1"
"1306";"28";"5";"1";"33";"1";"2";"2";"2";"[4,28]";"2";"0";"1"
"1307";"26";"5";"1";"38";"1";"2";"2";"2";"[2,4,20,36,39,40]";"2";"0";"1"
"1308";"6";"5";"1";"12";"1";"2";"2";"1";"[5,22]";"1";"0";"1"
"1309";"17";"5";"1";"19";"1";"2";"2";"1";"[17,30,31,32]";"1";"0";"1"
"1310";"23";"5";"1";"22";"1";"2";"2";"2";"[5,12,32,34]";"2";"0";"1"
"1311";"11";"5";"1";"39";"1";"2";"2";"1";"[21,36,38]";"2";"0";"1"
"1312";"36";"5";"1";"10";"1";"2";"2";"2";"[3,9,29,37]";"2";"0";"1"
"1313";"13";"5";"1";"13";"1";"2";"2";"2";"[1,3,9,21,23,37]";"2";"0";"1"
"1314";"21";"5";"1";"18";"1";"2";"2";"2";"[3,11,16,27]";"2";"0";"1"
"1315";"22";"6";"1";"21";"1";"2";"2";"2";"[13,15,23,36,39]";"2";"0";"1"
"1316";"39";"6";"1";"17";"1";"2";"2";"2";"[19]";"1";"0";"1"
"1317";"6";"6";"1";"12";"1";"2";"2";"1";"[5,22]";"1";"0";"1"
"1318";"24";"6";"1";"25";"1";"2";"2";"1";"[27]";"1";"0";"1"
"1319";"11";"6";"1";"39";"1";"2";"2";"1";"[21,36,38]";"2";"0";"1"
"1320";"10";"6";"1";"40";"1";"2";"2";"2";"[7,14,38]";"2";"0";"1"
"1321";"13";"6";"1";"13";"1";"2";"2";"2";"[1,3,9,21,23,37]";"2";"0";"1"
"1322";"8";"6";"1";"20";"1";"2";"2";"1";"[8,27,38]";"1";"0";"1"
"1323";"22";"7";"1";"21";"1";"2";"2";"2";"[13,15,23,36,39]";"2";"0";"1"
"1324";"5";"7";"1";"4";"1";"2";"2";"2";"[2,33,38]";"2";"0";"1"
"1325";"20";"7";"1";"34";"1";"2";"2";"2";"[6,15,22,24,29,30,31,32]";"2";"0";"1"
"1326";"24";"7";"1";"25";"1";"2";"2";"1";"[27]";"1";"0";"1"
"1327";"2";"7";"1";"9";"1";"2";"2";"2";"[1,3,10,13,29,37]";"2";"0";"1"
"1328";"10";"7";"1";"40";"1";"2";"2";"2";"[7,14,38]";"2";"0";"1"
"1329";"8";"7";"1";"20";"1";"2";"2";"1";"[8,27,38]";"1";"0";"1"
"1330";"5";"8";"1";"4";"1";"2";"2";"2";"[2,33,38]";"2";"0";"1"
"1331";"29";"8";"1";"7";"1";"2";"2";"1";"[28,40]";"1";"0";"1"
"1332";"20";"8";"1";"34";"1";"2";"2";"2";"[6,15,22,24,29,30,31,32]";"2";"0";"1"
"1333";"2";"8";"1";"9";"1";"2";"2";"2";"[1,3,10,13,29,37]";"2";"0";"1"
"1334";"16";"8";"1";"27";"1";"2";"2";"1";"[16,18,20,25]";"2";"0";"1"
"1335";"7";"8";"1";"1";"1";"2";"2";"2";"[3,9,13,23]";"2";"0";"1"
"1336";"25";"9";"1";"15";"1";"2";"2";"1";"[6,21,24,29,30,31,32,34]";"2";"0";"1"
"1337";"29";"9";"1";"7";"1";"2";"2";"1";"[28,40]";"1";"0";"1"
"1338";"37";"9";"1";"8";"1";"2";"2";"2";"[6,20]";"1";"0";"1"
"1339";"34";"9";"1";"31";"1";"2";"2";"2";"[15,19,24,30,34]";"2";"0";"1"
"1340";"16";"9";"1";"27";"1";"2";"2";"1";"[16,18,20,25]";"2";"0";"1"
"1341";"31";"9";"1";"23";"1";"2";"2";"2";"[1,13,21]";"1";"0";"1"
"1342";"7";"9";"1";"1";"1";"2";"2";"2";"[3,9,13,23]";"2";"0";"1"
"1343";"25";"10";"1";"15";"1";"2";"2";"1";"[6,21,24,29,30,31,32,34]";"2";"0";"1"
"1344";"37";"10";"1";"8";"1";"2";"2";"2";"[6,20]";"1";"0";"1"
"1345";"34";"10";"1";"31";"1";"2";"2";"2";"[15,19,24,30,34]";"2";"0";"1"
"1346";"31";"10";"1";"23";"1";"2";"2";"2";"[1,13,21]";"1";"0";"1"
"1347";"15";"11";"1";"6";"1";"2";"2";"1";"[8,15,24,30,34]";"1";"0";"1"
"1348";"1";"11";"1";"30";"1";"2";"2";"2";"[6,15,19,24,31,34,37]";"2";"0";"1"
"1349";"27";"11";"1";"29";"1";"2";"2";"2";"[9,10,15,24,32,34,37]";"2";"0";"1"
"1350";"15";"12";"1";"6";"1";"2";"2";"1";"[8,15,24,30,34]";"1";"0";"1"
"1351";"38";"12";"1";"5";"1";"2";"2";"2";"[12,22,32]";"2";"0";"1"
"1352";"1";"12";"1";"30";"1";"2";"2";"2";"[6,15,19,24,31,34,37]";"2";"0";"1"
"1353";"27";"12";"1";"29";"1";"2";"2";"2";"[9,10,15,24,32,34,37]";"2";"0";"1"
"1354";"38";"13";"1";"5";"1";"2";"2";"2";"[12,22,32]";"2";"0";"1"
"1355";"14";"13";"1";"11";"1";"2";"2";"2";"[16,18]";"2";"0";"1"
"1356";"14";"14";"1";"11";"1";"2";"2";"2";"[16,18]";"2";"0";"1"
"1357";"4";"15";"1";"14";"1";"2";"2";"2";"[26,35,40]";"2";"0";"1"
"1358";"35";"15";"1";"32";"1";"2";"2";"2";"[5,15,19,22,24,29,34]";"2";"0";"1"
"1359";"4";"16";"1";"14";"1";"2";"2";"2";"[26,35,40]";"2";"0";"1"
"1360";"35";"16";"1";"32";"1";"2";"2";"2";"[5,15,19,22,24,29,34]";"2";"0";"1"
"1361";"9";"17";"1";"16";"1";"2";"2";"2";"[3,11,18,27]";"2";"0";"1"
"1362";"9";"18";"1";"16";"1";"2";"2";"2";"[3,11,18,27]";"2";"0";"1"
"1363";"36";"1";"1";"10";"1";"2";"3";"2";"[3,9,29,37]";"1";"0";"1"
"1364";"10";"1";"1";"40";"1";"2";"3";"2";"[7,14,38]";"2";"0";"1"
"1365";"32";"2";"1";"36";"1";"2";"3";"1";"[21,38,39]";"1";"0";"1"
"1366";"12";"2";"1";"28";"1";"2";"3";"2";"[7,33]";"2";"0";"1"
"1367";"36";"2";"1";"10";"1";"2";"3";"2";"[3,9,29,37]";"1";"0";"1"
"1368";"33";"2";"1";"35";"1";"2";"3";"2";"[14,26]";"2";"0";"1"
"1369";"39";"2";"1";"17";"1";"2";"3";"2";"[19]";"1";"0";"1"
"1370";"10";"2";"1";"40";"1";"2";"3";"2";"[7,14,38]";"2";"0";"1"
"1371";"24";"2";"1";"25";"1";"2";"3";"1";"[27]";"2";"0";"1"
"1372";"17";"3";"1";"19";"1";"2";"3";"1";"[17,30,31,32]";"1";"0";"1"
"1373";"31";"3";"1";"23";"1";"2";"3";"2";"[1,13,21]";"2";"0";"1"
"1374";"32";"3";"1";"36";"1";"2";"3";"1";"[21,38,39]";"1";"0";"1"
"1375";"12";"3";"1";"28";"1";"2";"3";"2";"[7,33]";"2";"0";"1"
"1376";"28";"3";"1";"33";"1";"2";"3";"2";"[4,28]";"2";"0";"1"
"1377";"22";"3";"1";"21";"1";"2";"3";"2";"[13,15,23,36,39]";"2";"0";"1"
"1378";"27";"3";"1";"29";"1";"2";"3";"2";"[9,10,15,24,32,34,37]";"0";"3";"1"
"1379";"13";"3";"1";"13";"1";"2";"3";"2";"[1,3,9,21,23,37]";"2";"0";"1"
"1380";"23";"3";"1";"22";"1";"2";"3";"2";"[5,12,32,34]";"2";"0";"1"
"1381";"33";"3";"1";"35";"1";"2";"3";"2";"[14,26]";"2";"0";"1"
"1382";"39";"3";"1";"17";"1";"2";"3";"2";"[19]";"1";"0";"1"
"1383";"25";"3";"1";"15";"1";"2";"3";"1";"[6,21,24,29,30,31,32,34]";"2";"0";"1"
"1384";"24";"3";"1";"25";"1";"2";"3";"1";"[27]";"2";"0";"1"
"1385";"34";"4";"1";"31";"1";"2";"3";"2";"[15,19,24,30,34]";"2";"0";"1"
"1386";"17";"4";"1";"19";"1";"2";"3";"1";"[17,30,31,32]";"1";"0";"1"
"1387";"31";"4";"1";"23";"1";"2";"3";"2";"[1,13,21]";"2";"0";"1"
"1388";"35";"4";"1";"32";"1";"2";"3";"2";"[5,15,19,22,24,29,34]";"2";"0";"1"
"1389";"18";"4";"1";"2";"1";"2";"3";"2";"[4,38]";"2";"0";"1"
"1390";"27";"4";"1";"29";"1";"2";"3";"2";"[9,10,15,24,32,34,37]";"0";"3";"1"
"1391";"2";"4";"1";"9";"1";"2";"3";"2";"[1,3,10,13,29,37]";"2";"0";"1"
"1392";"19";"4";"1";"26";"1";"2";"3";"1";"[14,35]";"2";"0";"1"
"1393";"26";"4";"1";"38";"1";"2";"3";"2";"[2,4,20,36,39,40]";"2";"0";"1"
"1394";"21";"4";"1";"18";"1";"2";"3";"2";"[3,11,16,27]";"2";"0";"1"
"1395";"28";"4";"1";"33";"1";"2";"3";"2";"[4,28]";"2";"0";"1"
"1396";"22";"4";"1";"21";"1";"2";"3";"2";"[13,15,23,36,39]";"2";"0";"1"
"1397";"30";"4";"1";"3";"1";"2";"3";"2";"[1,9,10,13,16,18]";"0";"1";"1"
"1398";"13";"4";"1";"13";"1";"2";"3";"2";"[1,3,9,21,23,37]";"2";"0";"1"
"1399";"23";"4";"1";"22";"1";"2";"3";"2";"[5,12,32,34]";"2";"0";"1"
"1400";"3";"4";"1";"37";"1";"2";"3";"1";"[9,10,13,29,30]";"1";"0";"1"
"1401";"25";"4";"1";"15";"1";"2";"3";"1";"[6,21,24,29,30,31,32,34]";"2";"0";"1"
"1402";"34";"5";"1";"31";"1";"2";"3";"2";"[15,19,24,30,34]";"2";"0";"1"
"1403";"9";"5";"1";"16";"1";"2";"3";"2";"[3,11,18,27]";"2";"0";"1"
"1404";"35";"5";"1";"32";"1";"2";"3";"2";"[5,15,19,22,24,29,34]";"2";"0";"1"
"1405";"18";"5";"1";"2";"1";"2";"3";"2";"[4,38]";"2";"0";"1"
"1406";"2";"5";"1";"9";"1";"2";"3";"2";"[1,3,10,13,29,37]";"2";"0";"1"
"1407";"29";"5";"1";"7";"1";"2";"3";"1";"[28,40]";"1";"0";"1"
"1408";"19";"5";"1";"26";"1";"2";"3";"1";"[14,35]";"2";"0";"1"
"1409";"26";"5";"1";"38";"1";"2";"3";"2";"[2,4,20,36,39,40]";"2";"0";"1"
"1410";"21";"5";"1";"18";"1";"2";"3";"2";"[3,11,16,27]";"2";"0";"1"
"1411";"27";"5";"1";"29";"1";"2";"3";"2";"[9,10,15,24,32,34,37]";"2";"3";"1"
"1412";"3";"5";"1";"37";"1";"2";"3";"1";"[9,10,13,29,30]";"1";"0";"1"
"1413";"9";"6";"1";"16";"1";"2";"3";"2";"[3,11,18,27]";"2";"0";"1"
"1414";"29";"6";"1";"7";"1";"2";"3";"1";"[28,40]";"1";"0";"1"
"1415";"11";"6";"1";"39";"1";"2";"3";"1";"[21,36,38]";"2";"0";"1"
"1416";"27";"6";"1";"29";"1";"2";"3";"2";"[9,10,15,24,32,34,37]";"2";"3";"1"
"1417";"6";"6";"1";"12";"1";"2";"3";"1";"[5,22]";"2";"0";"1"
"1418";"8";"6";"1";"20";"1";"2";"3";"1";"[8,27,38]";"1";"0";"1"
"1419";"30";"6";"1";"3";"1";"2";"3";"2";"[1,9,10,13,16,18]";"0";"2";"1"
"1420";"37";"7";"1";"8";"1";"2";"3";"2";"[6,20]";"1";"0";"1"
"1421";"11";"7";"1";"39";"1";"2";"3";"1";"[21,36,38]";"2";"0";"1"
"1422";"5";"7";"1";"4";"1";"2";"3";"2";"[2,33,38]";"1";"0";"1"
"1423";"8";"7";"1";"20";"1";"2";"3";"1";"[8,27,38]";"1";"1";"1"
"1424";"6";"7";"1";"12";"1";"2";"3";"1";"[5,22]";"2";"0";"1"
"1425";"1";"7";"1";"30";"1";"2";"3";"2";"[6,15,19,24,31,34,37]";"2";"0";"1"
"1426";"8";"7";"1";"20";"1";"2";"3";"1";"[8,27,38]";"1";"1";"1"
"1427";"37";"8";"1";"8";"1";"2";"3";"2";"[6,20]";"1";"0";"1"
"1428";"5";"8";"1";"4";"1";"2";"3";"2";"[2,33,38]";"1";"0";"1"
"1429";"1";"8";"1";"30";"1";"2";"3";"2";"[6,15,19,24,31,34,37]";"2";"0";"1"
"1430";"30";"8";"1";"3";"1";"2";"3";"2";"[1,9,10,13,16,18]";"2";"2";"1"
"1431";"8";"9";"1";"20";"1";"2";"3";"1";"[8,27,38]";"1";"2";"1"
"1432";"14";"9";"1";"11";"1";"2";"3";"2";"[16,18]";"2";"0";"1"
"1433";"8";"9";"1";"20";"1";"2";"3";"1";"[8,27,38]";"1";"1";"1"
"1434";"30";"9";"1";"3";"1";"2";"3";"2";"[1,9,10,13,16,18]";"2";"2";"1"
"1435";"8";"10";"1";"20";"1";"2";"3";"1";"[8,27,38]";"1";"2";"1"
"1436";"16";"10";"1";"27";"1";"2";"3";"1";"[16,18,20,25]";"1";"0";"1"
"1437";"14";"10";"1";"11";"1";"2";"3";"2";"[16,18]";"2";"0";"1"
"1438";"7";"11";"1";"1";"1";"2";"3";"2";"[3,9,13,23]";"2";"0";"1"
"1439";"16";"11";"1";"27";"1";"2";"3";"1";"[16,18,20,25]";"1";"0";"1"
"1440";"7";"12";"1";"1";"1";"2";"3";"2";"[3,9,13,23]";"2";"0";"1"
"1441";"20";"14";"1";"34";"1";"2";"3";"2";"[6,15,22,24,29,30,31,32]";"2";"0";"1"
"1442";"4";"15";"1";"14";"1";"2";"3";"2";"[26,35,40]";"2";"0";"1"
"1443";"20";"15";"1";"34";"1";"2";"3";"2";"[6,15,22,24,29,30,31,32]";"2";"0";"1"
"1444";"4";"16";"1";"14";"1";"2";"3";"2";"[26,35,40]";"2";"0";"1"
"1445";"40";"17";"1";"24";"1";"2";"3";"1";"[6,15,29,30,31,32,34]";"1";"0";"1"
"1446";"40";"18";"1";"24";"1";"2";"3";"1";"[6,15,29,30,31,32,34]";"1";"0";"1"
