"id";"id_subj";"time";"session";"id_grp";"grp";"round";"period";"sig";"links";"choice";"hist";"active"
"1";"13";"0";"1";"3";"4";"1";"1";"0";"[8,10]";"0";"0";"1"
"2";"36";"0";"1";"10";"3";"1";"1";"1";"[1,2,3,6,8,9]";"0";"0";"1"
"3";"16";"0";"1";"9";"2";"1";"1";"2";"[2,7,10]";"0";"0";"1"
"4";"14";"0";"1";"5";"3";"1";"1";"0";"[1,6]";"0";"0";"1"
"5";"28";"0";"1";"4";"2";"1";"1";"2";"[7,8]";"0";"0";"1"
"6";"38";"0";"1";"3";"3";"1";"1";"2";"[8,10]";"0";"0";"1"
"7";"10";"0";"1";"6";"2";"1";"1";"2";"[2,5,8,10]";"0";"0";"1"
"8";"35";"0";"1";"5";"1";"1";"1";"1";"[1,6]";"0";"0";"1"
"9";"22";"0";"1";"4";"1";"1";"1";"2";"[7,8]";"0";"0";"1"
"10";"17";"0";"1";"1";"1";"1";"1";"0";"[5,10]";"0";"0";"1"
"11";"9";"0";"1";"2";"4";"1";"1";"2";"[6,7,8,9,10]";"0";"0";"1"
"12";"24";"0";"1";"5";"4";"1";"1";"2";"[1,6]";"0";"0";"1"
"13";"33";"0";"1";"2";"2";"1";"1";"1";"[6,7,8,9,10]";"0";"0";"1"
"14";"34";"0";"1";"10";"1";"1";"1";"1";"[1,2,3,6,8,9]";"0";"0";"1"
"15";"27";"0";"1";"3";"1";"1";"1";"1";"[8,10]";"0";"0";"1"
"16";"6";"0";"1";"4";"3";"1";"1";"0";"[7,8]";"0";"0";"1"
"17";"31";"0";"1";"8";"3";"1";"1";"2";"[2,3,4,6,10]";"0";"0";"1"
"18";"2";"0";"1";"7";"4";"1";"1";"0";"[2,4,9]";"0";"0";"1"
"19";"12";"0";"1";"8";"4";"1";"1";"2";"[2,3,4,6,10]";"0";"0";"1"
"20";"4";"0";"1";"1";"3";"1";"1";"0";"[5,10]";"0";"0";"1"
"21";"3";"0";"1";"1";"2";"1";"1";"1";"[5,10]";"0";"0";"1"
"22";"21";"0";"1";"7";"3";"1";"1";"1";"[2,4,9]";"0";"0";"1"
"23";"7";"0";"1";"6";"4";"1";"1";"1";"[2,5,8,10]";"0";"0";"1"
"24";"26";"0";"1";"7";"2";"1";"1";"2";"[2,4,9]";"0";"0";"1"
"25";"1";"0";"1";"9";"3";"1";"1";"0";"[2,7,10]";"0";"0";"1"
"26";"15";"0";"1";"9";"1";"1";"1";"1";"[2,7,10]";"0";"0";"1"
"27";"25";"0";"1";"2";"1";"1";"1";"1";"[6,7,8,9,10]";"0";"0";"1"
"28";"19";"0";"1";"1";"4";"1";"1";"0";"[5,10]";"0";"0";"1"
"29";"39";"0";"1";"3";"2";"1";"1";"2";"[8,10]";"0";"0";"1"
"30";"37";"0";"1";"6";"3";"1";"1";"0";"[2,5,8,10]";"0";"0";"1"
"31";"20";"0";"1";"9";"4";"1";"1";"2";"[2,7,10]";"0";"0";"1"
"32";"23";"0";"1";"5";"2";"1";"1";"0";"[1,6]";"0";"0";"1"
"33";"11";"0";"1";"7";"1";"1";"1";"0";"[2,4,9]";"0";"0";"1"
"34";"5";"0";"1";"2";"3";"1";"1";"1";"[6,7,8,9,10]";"0";"0";"1"
"35";"18";"0";"1";"10";"4";"1";"1";"2";"[1,2,3,6,8,9]";"0";"0";"1"
"36";"32";"0";"1";"8";"1";"1";"1";"0";"[2,3,4,6,10]";"0";"0";"1"
"37";"29";"0";"1";"10";"2";"1";"1";"2";"[1,2,3,6,8,9]";"0";"0";"1"
"38";"8";"0";"1";"6";"1";"1";"1";"0";"[2,5,8,10]";"0";"0";"1"
"39";"30";"0";"1";"4";"4";"1";"1";"1";"[7,8]";"0";"0";"1"
"40";"40";"0";"1";"8";"2";"1";"1";"2";"[2,3,4,6,10]";"0";"0";"1"
"41";"35";"3";"1";"5";"1";"1";"1";"1";"[1,6]";"1";"0";"1"
"42";"35";"4";"1";"5";"1";"1";"1";"1";"[1,6]";"1";"0";"1"
"43";"38";"4";"1";"3";"3";"1";"1";"2";"[8,10]";"2";"0";"1"
"44";"20";"5";"1";"9";"4";"1";"1";"2";"[2,7,10]";"2";"0";"1"
"45";"38";"5";"1";"3";"3";"1";"1";"2";"[8,10]";"2";"0";"1"
"46";"16";"6";"1";"9";"2";"1";"1";"2";"[2,7,10]";"2";"0";"1"
"47";"31";"6";"1";"8";"3";"1";"1";"2";"[2,3,4,6,10]";"2";"0";"1"
"48";"20";"6";"1";"9";"4";"1";"1";"2";"[2,7,10]";"2";"0";"1"
"49";"22";"6";"1";"4";"1";"1";"1";"2";"[7,8]";"2";"0";"1"
"50";"3";"6";"1";"1";"2";"1";"1";"1";"[5,10]";"1";"0";"1"
"51";"24";"6";"1";"5";"4";"1";"1";"2";"[1,6]";"2";"0";"1"
"52";"5";"6";"1";"2";"3";"1";"1";"1";"[6,7,8,9,10]";"1";"0";"1"
"53";"16";"7";"1";"9";"2";"1";"1";"2";"[2,7,10]";"2";"0";"1"
"54";"30";"7";"1";"4";"4";"1";"1";"1";"[7,8]";"2";"0";"1"
"55";"36";"7";"1";"10";"3";"1";"1";"1";"[1,2,3,6,8,9]";"1";"0";"1"
"56";"31";"7";"1";"8";"3";"1";"1";"2";"[2,3,4,6,10]";"2";"0";"1"
"57";"18";"7";"1";"10";"4";"1";"1";"2";"[1,2,3,6,8,9]";"2";"0";"1"
"58";"22";"7";"1";"4";"1";"1";"1";"2";"[7,8]";"2";"0";"1"
"59";"3";"7";"1";"1";"2";"1";"1";"1";"[5,10]";"1";"0";"1"
"60";"25";"7";"1";"2";"1";"1";"1";"1";"[6,7,8,9,10]";"1";"0";"1"
"61";"24";"7";"1";"5";"4";"1";"1";"2";"[1,6]";"2";"0";"1"
"62";"5";"7";"1";"2";"3";"1";"1";"1";"[6,7,8,9,10]";"1";"0";"1"
"63";"28";"7";"1";"4";"2";"1";"1";"2";"[7,8]";"1";"0";"1"
"64";"21";"7";"1";"7";"3";"1";"1";"1";"[2,4,9]";"1";"0";"1"
"65";"6";"8";"1";"4";"3";"1";"1";"0";"[7,8]";"2";"0";"1"
"66";"33";"8";"1";"2";"2";"1";"1";"1";"[6,7,8,9,10]";"1";"0";"1"
"67";"30";"8";"1";"4";"4";"1";"1";"1";"[7,8]";"2";"0";"1"
"68";"36";"8";"1";"10";"3";"1";"1";"1";"[1,2,3,6,8,9]";"1";"0";"1"
"69";"10";"8";"1";"6";"2";"1";"1";"2";"[2,5,8,10]";"2";"0";"1"
"70";"18";"8";"1";"10";"4";"1";"1";"2";"[1,2,3,6,8,9]";"2";"0";"1"
"71";"25";"8";"1";"2";"1";"1";"1";"1";"[6,7,8,9,10]";"1";"0";"1"
"72";"28";"8";"1";"4";"2";"1";"1";"2";"[7,8]";"1";"0";"1"
"73";"21";"8";"1";"7";"3";"1";"1";"1";"[2,4,9]";"1";"0";"1"
"74";"6";"9";"1";"4";"3";"1";"1";"0";"[7,8]";"2";"0";"1"
"75";"33";"9";"1";"2";"2";"1";"1";"1";"[6,7,8,9,10]";"1";"0";"1"
"76";"10";"9";"1";"6";"2";"1";"1";"2";"[2,5,8,10]";"2";"0";"1"
"77";"34";"9";"1";"10";"1";"1";"1";"1";"[1,2,3,6,8,9]";"1";"0";"1"
"78";"14";"10";"1";"5";"3";"1";"1";"0";"[1,6]";"1";"0";"1"
"79";"26";"10";"1";"7";"2";"1";"1";"2";"[2,4,9]";"2";"0";"1"
"80";"37";"10";"1";"6";"3";"1";"1";"0";"[2,5,8,10]";"1";"0";"1"
"81";"34";"10";"1";"10";"1";"1";"1";"1";"[1,2,3,6,8,9]";"1";"0";"1"
"82";"11";"11";"1";"7";"1";"1";"1";"0";"[2,4,9]";"1";"0";"1"
"83";"14";"11";"1";"5";"3";"1";"1";"0";"[1,6]";"1";"0";"1"
"84";"26";"11";"1";"7";"2";"1";"1";"2";"[2,4,9]";"2";"0";"1"
"85";"37";"11";"1";"6";"3";"1";"1";"0";"[2,5,8,10]";"1";"0";"1"
"86";"29";"11";"1";"10";"2";"1";"1";"2";"[1,2,3,6,8,9]";"2";"0";"1"
"87";"12";"11";"1";"8";"4";"1";"1";"2";"[2,3,4,6,10]";"2";"0";"1"
"88";"7";"11";"1";"6";"4";"1";"1";"1";"[2,5,8,10]";"1";"0";"1"
"89";"11";"12";"1";"7";"1";"1";"1";"0";"[2,4,9]";"1";"0";"1"
"90";"39";"12";"1";"3";"2";"1";"1";"2";"[8,10]";"2";"0";"1"
"91";"29";"12";"1";"10";"2";"1";"1";"2";"[1,2,3,6,8,9]";"2";"0";"1"
"92";"12";"12";"1";"8";"4";"1";"1";"2";"[2,3,4,6,10]";"2";"0";"1"
"93";"1";"12";"1";"9";"3";"1";"1";"0";"[2,7,10]";"1";"0";"1"
"94";"7";"12";"1";"6";"4";"1";"1";"1";"[2,5,8,10]";"1";"0";"1"
"95";"39";"13";"1";"3";"2";"1";"1";"2";"[8,10]";"2";"0";"1"
"96";"27";"13";"1";"3";"1";"1";"1";"1";"[8,10]";"1";"0";"1"
"97";"1";"13";"1";"9";"3";"1";"1";"0";"[2,7,10]";"1";"0";"1"
"98";"40";"14";"1";"8";"2";"1";"1";"2";"[2,3,4,6,10]";"2";"0";"1"
"99";"27";"14";"1";"3";"1";"1";"1";"1";"[8,10]";"1";"0";"1"
"100";"40";"15";"1";"8";"2";"1";"1";"2";"[2,3,4,6,10]";"2";"0";"1"
"101";"17";"15";"1";"1";"1";"1";"1";"0";"[5,10]";"2";"0";"1"
"102";"4";"15";"1";"1";"3";"1";"1";"0";"[5,10]";"1";"0";"1"
"103";"32";"16";"1";"8";"1";"1";"1";"0";"[2,3,4,6,10]";"2";"0";"1"
"104";"17";"16";"1";"1";"1";"1";"1";"0";"[5,10]";"2";"0";"1"
"105";"19";"16";"1";"1";"4";"1";"1";"0";"[5,10]";"2";"0";"1"
"106";"4";"16";"1";"1";"3";"1";"1";"0";"[5,10]";"1";"0";"1"
"107";"32";"17";"1";"8";"1";"1";"1";"0";"[2,3,4,6,10]";"2";"0";"1"
"108";"19";"17";"1";"1";"4";"1";"1";"0";"[5,10]";"2";"0";"1"
"109";"2";"18";"1";"7";"4";"1";"1";"0";"[2,4,9]";"2";"0";"1"
"110";"2";"19";"1";"7";"4";"1";"1";"0";"[2,4,9]";"2";"0";"1"
"111";"15";"19";"1";"9";"1";"1";"1";"1";"[2,7,10]";"2";"0";"1"
"112";"15";"20";"1";"9";"1";"1";"1";"1";"[2,7,10]";"2";"0";"1"
"113";"8";"21";"1";"6";"1";"1";"1";"0";"[2,5,8,10]";"1";"0";"1"
"114";"8";"22";"1";"6";"1";"1";"1";"0";"[2,5,8,10]";"1";"0";"1"
"115";"9";"24";"1";"2";"4";"1";"1";"2";"[6,7,8,9,10]";"1";"0";"1"
"116";"23";"24";"1";"5";"2";"1";"1";"0";"[1,6]";"1";"0";"1"
"117";"9";"25";"1";"2";"4";"1";"1";"2";"[6,7,8,9,10]";"1";"0";"1"
"118";"23";"25";"1";"5";"2";"1";"1";"0";"[1,6]";"1";"0";"1"
"119";"13";"28";"1";"3";"4";"1";"1";"0";"[8,10]";"1";"0";"1"
"120";"13";"29";"1";"3";"4";"1";"1";"0";"[8,10]";"1";"0";"1"
"121";"39";"32";"1";"3";"2";"1";"2";"2";"[8,10]";"2";"0";"1"
"122";"39";"33";"1";"3";"2";"1";"2";"2";"[8,10]";"2";"0";"1"
"123";"5";"33";"1";"2";"3";"1";"2";"1";"[6,7,8,9,10]";"1";"0";"1"
"124";"36";"33";"1";"10";"3";"1";"2";"1";"[1,2,3,6,8,9]";"1";"0";"1"
"125";"21";"34";"1";"7";"3";"1";"2";"1";"[2,4,9]";"1";"0";"1"
"126";"5";"34";"1";"2";"3";"1";"2";"1";"[6,7,8,9,10]";"1";"0";"1"
"127";"13";"34";"1";"3";"4";"1";"2";"0";"[8,10]";"2";"0";"1"
"128";"22";"5";"1";"4";"1";"1";"2";"2";"[7,8]";"2";"0";"1"
"129";"36";"34";"1";"10";"3";"1";"2";"1";"[1,2,3,6,8,9]";"1";"0";"1"
"130";"28";"34";"1";"4";"2";"1";"2";"2";"[7,8]";"1";"0";"1"
"131";"40";"34";"1";"8";"2";"1";"2";"2";"[2,3,4,6,10]";"2";"0";"1"
"132";"21";"35";"1";"7";"3";"1";"2";"1";"[2,4,9]";"1";"0";"1"
"133";"19";"35";"1";"1";"4";"1";"2";"0";"[5,10]";"0";"2";"1"
"134";"37";"35";"1";"6";"3";"1";"2";"0";"[2,5,8,10]";"1";"0";"1"
"135";"38";"35";"1";"3";"3";"1";"2";"2";"[8,10]";"2";"0";"1"
"136";"13";"35";"1";"3";"4";"1";"2";"0";"[8,10]";"2";"0";"1"
"137";"22";"6";"1";"4";"1";"1";"2";"2";"[7,8]";"2";"0";"1"
"138";"28";"35";"1";"4";"2";"1";"2";"2";"[7,8]";"1";"0";"1"
"139";"17";"6";"1";"1";"1";"1";"2";"0";"[5,10]";"1";"0";"1"
"140";"40";"35";"1";"8";"2";"1";"2";"2";"[2,3,4,6,10]";"2";"0";"1"
"141";"35";"6";"1";"5";"1";"1";"2";"1";"[1,6]";"1";"0";"1"
"142";"37";"36";"1";"6";"3";"1";"2";"0";"[2,5,8,10]";"1";"0";"1"
"143";"38";"36";"1";"3";"3";"1";"2";"2";"[8,10]";"2";"0";"1"
"144";"14";"36";"1";"5";"3";"1";"2";"0";"[1,6]";"1";"0";"1"
"145";"17";"7";"1";"1";"1";"1";"2";"0";"[5,10]";"1";"0";"1"
"146";"35";"7";"1";"5";"1";"1";"2";"1";"[1,6]";"1";"0";"1"
"147";"24";"37";"1";"5";"4";"1";"2";"2";"[1,6]";"2";"0";"1"
"148";"4";"37";"1";"1";"3";"1";"2";"0";"[5,10]";"1";"0";"1"
"149";"14";"37";"1";"5";"3";"1";"2";"0";"[1,6]";"1";"0";"1"
"150";"25";"8";"1";"2";"1";"1";"2";"1";"[6,7,8,9,10]";"1";"0";"1"
"151";"2";"37";"1";"7";"4";"1";"2";"0";"[2,4,9]";"2";"0";"1"
"152";"24";"38";"1";"5";"4";"1";"2";"2";"[1,6]";"2";"0";"1"
"153";"4";"38";"1";"1";"3";"1";"2";"0";"[5,10]";"1";"0";"1"
"154";"34";"9";"1";"10";"1";"1";"2";"1";"[1,2,3,6,8,9]";"1";"0";"1"
"155";"25";"9";"1";"2";"1";"1";"2";"1";"[6,7,8,9,10]";"1";"0";"1"
"156";"2";"38";"1";"7";"4";"1";"2";"0";"[2,4,9]";"2";"0";"1"
"157";"3";"38";"1";"1";"2";"1";"2";"1";"[5,10]";"1";"0";"1"
"158";"16";"39";"1";"9";"2";"1";"2";"2";"[2,7,10]";"2";"0";"1"
"159";"8";"10";"1";"6";"1";"1";"2";"0";"[2,5,8,10]";"1";"0";"1"
"160";"34";"10";"1";"10";"1";"1";"2";"1";"[1,2,3,6,8,9]";"1";"0";"1"
"161";"1";"39";"1";"9";"3";"1";"2";"0";"[2,7,10]";"1";"0";"1"
"162";"29";"39";"1";"10";"2";"1";"2";"2";"[1,2,3,6,8,9]";"2";"0";"1"
"163";"3";"39";"1";"1";"2";"1";"2";"1";"[5,10]";"1";"0";"1"
"164";"18";"40";"1";"10";"4";"1";"2";"2";"[1,2,3,6,8,9]";"2";"0";"1"
"165";"16";"40";"1";"9";"2";"1";"2";"2";"[2,7,10]";"2";"0";"1"
"166";"8";"11";"1";"6";"1";"1";"2";"0";"[2,5,8,10]";"1";"0";"1"
"167";"1";"40";"1";"9";"3";"1";"2";"0";"[2,7,10]";"1";"0";"1"
"168";"29";"40";"1";"10";"2";"1";"2";"2";"[1,2,3,6,8,9]";"2";"0";"1"
"169";"26";"41";"1";"7";"2";"1";"2";"2";"[2,4,9]";"2";"0";"1"
"170";"18";"41";"1";"10";"4";"1";"2";"2";"[1,2,3,6,8,9]";"2";"0";"1"
"171";"9";"41";"1";"2";"4";"1";"2";"2";"[6,7,8,9,10]";"2";"0";"1"
"172";"26";"42";"1";"7";"2";"1";"2";"2";"[2,4,9]";"2";"0";"1"
"173";"31";"42";"1";"8";"3";"1";"2";"2";"[2,3,4,6,10]";"1";"0";"1"
"174";"7";"42";"1";"6";"4";"1";"2";"1";"[2,5,8,10]";"1";"0";"1"
"175";"6";"42";"1";"4";"3";"1";"2";"0";"[7,8]";"2";"0";"1"
"176";"27";"13";"1";"3";"1";"1";"2";"1";"[8,10]";"1";"0";"1"
"177";"19";"42";"1";"1";"4";"1";"2";"0";"[5,10]";"2";"2";"1"
"178";"10";"42";"1";"6";"2";"1";"2";"2";"[2,5,8,10]";"2";"0";"1"
"179";"9";"42";"1";"2";"4";"1";"2";"2";"[6,7,8,9,10]";"2";"0";"1"
"180";"31";"43";"1";"8";"3";"1";"2";"2";"[2,3,4,6,10]";"1";"0";"1"
"181";"7";"43";"1";"6";"4";"1";"2";"1";"[2,5,8,10]";"1";"0";"1"
"182";"32";"14";"1";"8";"1";"1";"2";"0";"[2,3,4,6,10]";"1";"0";"1"
"183";"6";"43";"1";"4";"3";"1";"2";"0";"[7,8]";"2";"0";"1"
"184";"27";"14";"1";"3";"1";"1";"2";"1";"[8,10]";"1";"0";"1"
"185";"19";"43";"1";"1";"4";"1";"2";"0";"[5,10]";"2";"2";"1"
"186";"10";"43";"1";"6";"2";"1";"2";"2";"[2,5,8,10]";"2";"0";"1"
"187";"32";"15";"1";"8";"1";"1";"2";"0";"[2,3,4,6,10]";"1";"0";"1"
"188";"23";"45";"1";"5";"2";"1";"2";"0";"[1,6]";"2";"0";"1"
"189";"20";"46";"1";"9";"4";"1";"2";"2";"[2,7,10]";"2";"0";"1"
"190";"23";"46";"1";"5";"2";"1";"2";"0";"[1,6]";"2";"0";"1"
"191";"20";"47";"1";"9";"4";"1";"2";"2";"[2,7,10]";"2";"0";"1"
"192";"30";"47";"1";"4";"4";"1";"2";"1";"[7,8]";"2";"0";"1"
"193";"33";"48";"1";"2";"2";"1";"2";"1";"[6,7,8,9,10]";"2";"0";"1"
"194";"30";"48";"1";"4";"4";"1";"2";"1";"[7,8]";"2";"0";"1"
"195";"33";"49";"1";"2";"2";"1";"2";"1";"[6,7,8,9,10]";"2";"0";"1"
"196";"11";"20";"1";"7";"1";"1";"2";"0";"[2,4,9]";"1";"0";"1"
"197";"11";"21";"1";"7";"1";"1";"2";"0";"[2,4,9]";"1";"0";"1"
"198";"15";"21";"1";"9";"1";"1";"2";"1";"[2,7,10]";"2";"0";"1"
"199";"15";"22";"1";"9";"1";"1";"2";"1";"[2,7,10]";"2";"0";"1"
"200";"12";"54";"1";"8";"4";"1";"2";"2";"[2,3,4,6,10]";"2";"0";"1"
"201";"12";"55";"1";"8";"4";"1";"2";"2";"[2,3,4,6,10]";"2";"0";"1"
"202";"4";"57";"1";"1";"3";"1";"3";"0";"[5,10]";"1";"0";"1"
"203";"39";"57";"1";"3";"2";"1";"3";"2";"[8,10]";"2";"0";"1"
"204";"19";"58";"1";"1";"4";"1";"3";"0";"[5,10]";"0";"1";"1"
"205";"33";"58";"1";"2";"2";"1";"3";"1";"[6,7,8,9,10]";"2";"0";"1"
"206";"35";"3";"1";"5";"1";"1";"3";"1";"[1,6]";"1";"0";"1"
"207";"30";"58";"1";"4";"4";"1";"3";"1";"[7,8]";"1";"0";"1"
"208";"4";"58";"1";"1";"3";"1";"3";"0";"[5,10]";"1";"0";"1"
"209";"14";"58";"1";"5";"3";"1";"3";"0";"[1,6]";"1";"0";"1"
"210";"39";"58";"1";"3";"2";"1";"3";"2";"[8,10]";"2";"0";"1"
"211";"37";"58";"1";"6";"3";"1";"3";"0";"[2,5,8,10]";"1";"0";"1"
"212";"5";"59";"1";"2";"3";"1";"3";"1";"[6,7,8,9,10]";"1";"0";"1"
"213";"33";"59";"1";"2";"2";"1";"3";"1";"[6,7,8,9,10]";"2";"0";"1"
"214";"19";"59";"1";"1";"4";"1";"3";"0";"[5,10]";"0";"2";"1"
"215";"31";"59";"1";"8";"3";"1";"3";"2";"[2,3,4,6,10]";"1";"0";"1"
"216";"35";"4";"1";"5";"1";"1";"3";"1";"[1,6]";"1";"0";"1"
"217";"30";"59";"1";"4";"4";"1";"3";"1";"[7,8]";"1";"0";"1"
"218";"14";"59";"1";"5";"3";"1";"3";"0";"[1,6]";"1";"0";"1"
"219";"28";"59";"1";"4";"2";"1";"3";"2";"[7,8]";"2";"0";"1"
"220";"6";"59";"1";"4";"3";"1";"3";"0";"[7,8]";"1";"0";"1"
"221";"37";"59";"1";"6";"3";"1";"3";"0";"[2,5,8,10]";"1";"0";"1"
"222";"27";"4";"1";"3";"1";"1";"3";"1";"[8,10]";"1";"0";"1"
"223";"5";"60";"1";"2";"3";"1";"3";"1";"[6,7,8,9,10]";"1";"0";"1"
"224";"2";"60";"1";"7";"4";"1";"3";"0";"[2,4,9]";"2";"0";"1"
"225";"31";"60";"1";"8";"3";"1";"3";"2";"[2,3,4,6,10]";"1";"0";"1"
"226";"8";"5";"1";"6";"1";"1";"3";"0";"[2,5,8,10]";"1";"0";"1"
"227";"36";"60";"1";"10";"3";"1";"3";"1";"[1,2,3,6,8,9]";"2";"0";"1"
"228";"10";"60";"1";"6";"2";"1";"3";"2";"[2,5,8,10]";"2";"0";"1"
"229";"20";"60";"1";"9";"4";"1";"3";"2";"[2,7,10]";"2";"0";"1"
"230";"28";"60";"1";"4";"2";"1";"3";"2";"[7,8]";"2";"0";"1"
"231";"6";"60";"1";"4";"3";"1";"3";"0";"[7,8]";"1";"0";"1"
"232";"27";"6";"1";"3";"1";"1";"3";"1";"[8,10]";"1";"0";"1"
"233";"3";"61";"1";"1";"2";"1";"3";"1";"[5,10]";"0";"1";"1"
"234";"2";"61";"1";"7";"4";"1";"3";"0";"[2,4,9]";"2";"0";"1"
"235";"34";"6";"1";"10";"1";"1";"3";"1";"[1,2,3,6,8,9]";"1";"0";"1"
"236";"40";"61";"1";"8";"2";"1";"3";"2";"[2,3,4,6,10]";"2";"0";"1"
"237";"8";"6";"1";"6";"1";"1";"3";"0";"[2,5,8,10]";"1";"0";"1"
"238";"36";"61";"1";"10";"3";"1";"3";"1";"[1,2,3,6,8,9]";"2";"0";"1"
"239";"18";"61";"1";"10";"4";"1";"3";"2";"[1,2,3,6,8,9]";"2";"0";"1"
"240";"10";"61";"1";"6";"2";"1";"3";"2";"[2,5,8,10]";"2";"0";"1"
"241";"20";"61";"1";"9";"4";"1";"3";"2";"[2,7,10]";"2";"0";"1"
"242";"29";"61";"1";"10";"2";"1";"3";"2";"[1,2,3,6,8,9]";"2";"0";"1"
"243";"21";"62";"1";"7";"3";"1";"3";"1";"[2,4,9]";"2";"0";"1"
"244";"16";"62";"1";"9";"2";"1";"3";"2";"[2,7,10]";"2";"0";"1"
"245";"34";"7";"1";"10";"1";"1";"3";"1";"[1,2,3,6,8,9]";"1";"0";"1"
"246";"40";"62";"1";"8";"2";"1";"3";"2";"[2,3,4,6,10]";"2";"0";"1"
"247";"18";"62";"1";"10";"4";"1";"3";"2";"[1,2,3,6,8,9]";"2";"0";"1"
"248";"29";"62";"1";"10";"2";"1";"3";"2";"[1,2,3,6,8,9]";"2";"0";"1"
"249";"21";"63";"1";"7";"3";"1";"3";"1";"[2,4,9]";"2";"0";"1"
"250";"16";"63";"1";"9";"2";"1";"3";"2";"[2,7,10]";"2";"0";"1"
"251";"25";"8";"1";"2";"1";"1";"3";"1";"[6,7,8,9,10]";"1";"0";"1"
"252";"3";"63";"1";"1";"2";"1";"3";"1";"[5,10]";"0";"2";"1"
"253";"1";"63";"1";"9";"3";"1";"3";"0";"[2,7,10]";"1";"0";"1"
"254";"9";"64";"1";"2";"4";"1";"3";"2";"[6,7,8,9,10]";"2";"0";"1"
"255";"17";"9";"1";"1";"1";"1";"3";"0";"[5,10]";"1";"0";"1"
"256";"25";"9";"1";"2";"1";"1";"3";"1";"[6,7,8,9,10]";"1";"0";"1"
"257";"24";"64";"1";"5";"4";"1";"3";"2";"[1,6]";"2";"0";"1"
"258";"11";"9";"1";"7";"1";"1";"3";"0";"[2,4,9]";"2";"0";"1"
"259";"1";"64";"1";"9";"3";"1";"3";"0";"[2,7,10]";"1";"0";"1"
"260";"9";"65";"1";"2";"4";"1";"3";"2";"[6,7,8,9,10]";"2";"0";"1"
"261";"13";"65";"1";"3";"4";"1";"3";"0";"[8,10]";"2";"0";"1"
"262";"17";"10";"1";"1";"1";"1";"3";"0";"[5,10]";"1";"0";"1"
"263";"24";"65";"1";"5";"4";"1";"3";"2";"[1,6]";"2";"0";"1"
"264";"11";"10";"1";"7";"1";"1";"3";"0";"[2,4,9]";"2";"0";"1"
"265";"13";"66";"1";"3";"4";"1";"3";"0";"[8,10]";"2";"0";"1"
"266";"26";"66";"1";"7";"2";"1";"3";"2";"[2,4,9]";"2";"0";"1"
"267";"19";"66";"1";"1";"4";"1";"3";"0";"[5,10]";"2";"2";"1"
"268";"22";"11";"1";"4";"1";"1";"3";"2";"[7,8]";"1";"0";"1"
"269";"26";"67";"1";"7";"2";"1";"3";"2";"[2,4,9]";"2";"0";"1"
"270";"19";"67";"1";"1";"4";"1";"3";"0";"[5,10]";"2";"2";"1"
"271";"22";"12";"1";"4";"1";"1";"3";"2";"[7,8]";"1";"0";"1"
"272";"15";"13";"1";"9";"1";"1";"3";"1";"[2,7,10]";"2";"0";"1"
"273";"12";"68";"1";"8";"4";"1";"3";"2";"[2,3,4,6,10]";"2";"0";"1"
"274";"3";"68";"1";"1";"2";"1";"3";"1";"[5,10]";"1";"2";"1"
"275";"15";"14";"1";"9";"1";"1";"3";"1";"[2,7,10]";"2";"0";"1"
"276";"12";"69";"1";"8";"4";"1";"3";"2";"[2,3,4,6,10]";"2";"0";"1"
"277";"3";"69";"1";"1";"2";"1";"3";"1";"[5,10]";"1";"2";"1"
"278";"38";"70";"1";"3";"3";"1";"3";"2";"[8,10]";"2";"0";"1"
"279";"38";"71";"1";"3";"3";"1";"3";"2";"[8,10]";"2";"0";"1"
"280";"23";"76";"1";"5";"2";"1";"3";"0";"[1,6]";"0";"1";"1"
"281";"23";"77";"1";"5";"2";"1";"3";"0";"[1,6]";"0";"2";"1"
"282";"23";"81";"1";"5";"2";"1";"3";"0";"[1,6]";"1";"2";"1"
"283";"7";"81";"1";"6";"4";"1";"3";"1";"[2,5,8,10]";"1";"0";"1"
"284";"23";"82";"1";"5";"2";"1";"3";"0";"[1,6]";"1";"2";"1"
"285";"7";"82";"1";"6";"4";"1";"3";"1";"[2,5,8,10]";"1";"0";"1"
"286";"32";"27";"1";"8";"1";"1";"3";"0";"[2,3,4,6,10]";"1";"0";"1"
"287";"32";"28";"1";"8";"1";"1";"3";"0";"[2,3,4,6,10]";"1";"0";"1"
"288";"16";"85";"1";"9";"2";"1";"4";"2";"[2,7,10]";"2";"0";"1"
"289";"36";"85";"1";"10";"3";"1";"4";"1";"[1,2,3,6,8,9]";"1";"0";"1"
"290";"39";"86";"1";"3";"2";"1";"4";"2";"[8,10]";"2";"0";"1"
"291";"35";"3";"1";"5";"1";"1";"4";"1";"[1,6]";"0";"1";"1"
"292";"16";"86";"1";"9";"2";"1";"4";"2";"[2,7,10]";"2";"0";"1"
"293";"13";"86";"1";"3";"4";"1";"4";"0";"[8,10]";"2";"0";"1"
"294";"21";"86";"1";"7";"3";"1";"4";"1";"[2,4,9]";"1";"0";"1"
"295";"20";"86";"1";"9";"4";"1";"4";"2";"[2,7,10]";"2";"0";"1"
"296";"36";"86";"1";"10";"3";"1";"4";"1";"[1,2,3,6,8,9]";"1";"0";"1"
"297";"39";"87";"1";"3";"2";"1";"4";"2";"[8,10]";"2";"0";"1"
"298";"5";"87";"1";"2";"3";"1";"4";"1";"[6,7,8,9,10]";"1";"0";"1"
"299";"6";"87";"1";"4";"3";"1";"4";"0";"[7,8]";"1";"0";"1"
"300";"13";"87";"1";"3";"4";"1";"4";"0";"[8,10]";"2";"0";"1"
"301";"21";"87";"1";"7";"3";"1";"4";"1";"[2,4,9]";"1";"0";"1"
"302";"14";"87";"1";"5";"3";"1";"4";"0";"[1,6]";"1";"0";"1"
"303";"4";"87";"1";"1";"3";"1";"4";"0";"[5,10]";"1";"0";"1"
"304";"20";"87";"1";"9";"4";"1";"4";"2";"[2,7,10]";"2";"0";"1"
"305";"12";"87";"1";"8";"4";"1";"4";"2";"[2,3,4,6,10]";"2";"0";"1"
"306";"28";"88";"1";"4";"2";"1";"4";"2";"[7,8]";"2";"0";"1"
"307";"17";"5";"1";"1";"1";"1";"4";"0";"[5,10]";"1";"0";"1"
"308";"2";"88";"1";"7";"4";"1";"4";"0";"[2,4,9]";"2";"0";"1"
"309";"5";"88";"1";"2";"3";"1";"4";"1";"[6,7,8,9,10]";"1";"0";"1"
"310";"37";"88";"1";"6";"3";"1";"4";"0";"[2,5,8,10]";"1";"0";"1"
"311";"6";"88";"1";"4";"3";"1";"4";"0";"[7,8]";"1";"0";"1"
"312";"14";"88";"1";"5";"3";"1";"4";"0";"[1,6]";"1";"0";"1"
"313";"32";"5";"1";"8";"1";"1";"4";"0";"[2,3,4,6,10]";"1";"0";"1"
"314";"34";"5";"1";"10";"1";"1";"4";"1";"[1,2,3,6,8,9]";"2";"0";"1"
"315";"4";"88";"1";"1";"3";"1";"4";"0";"[5,10]";"1";"0";"1"
"316";"12";"89";"1";"8";"4";"1";"4";"2";"[2,3,4,6,10]";"2";"0";"1"
"317";"28";"89";"1";"4";"2";"1";"4";"2";"[7,8]";"2";"0";"1"
"318";"17";"6";"1";"1";"1";"1";"4";"0";"[5,10]";"1";"0";"1"
"319";"2";"89";"1";"7";"4";"1";"4";"0";"[2,4,9]";"2";"0";"1"
"320";"37";"89";"1";"6";"3";"1";"4";"0";"[2,5,8,10]";"1";"0";"1"
"321";"35";"6";"1";"5";"1";"1";"4";"1";"[1,6]";"0";"2";"1"
"322";"32";"6";"1";"8";"1";"1";"4";"0";"[2,3,4,6,10]";"1";"0";"1"
"323";"34";"6";"1";"10";"1";"1";"4";"1";"[1,2,3,6,8,9]";"2";"0";"1"
"324";"1";"89";"1";"9";"3";"1";"4";"0";"[2,7,10]";"2";"0";"1"
"325";"19";"89";"1";"1";"4";"1";"4";"0";"[5,10]";"0";"2";"1"
"326";"23";"89";"1";"5";"2";"1";"4";"0";"[1,6]";"0";"1";"1"
"327";"1";"90";"1";"9";"3";"1";"4";"0";"[2,7,10]";"2";"0";"1"
"328";"23";"90";"1";"5";"2";"1";"4";"0";"[1,6]";"0";"2";"1"
"329";"24";"90";"1";"5";"4";"1";"4";"2";"[1,6]";"0";"1";"1"
"330";"19";"90";"1";"1";"4";"1";"4";"0";"[5,10]";"0";"3";"1"
"331";"40";"91";"1";"8";"2";"1";"4";"2";"[2,3,4,6,10]";"2";"0";"1"
"332";"35";"8";"1";"5";"1";"1";"4";"1";"[1,6]";"0";"3";"1"
"333";"18";"91";"1";"10";"4";"1";"4";"2";"[1,2,3,6,8,9]";"2";"0";"1"
"334";"25";"8";"1";"2";"1";"1";"4";"1";"[6,7,8,9,10]";"1";"0";"1"
"335";"23";"91";"1";"5";"2";"1";"4";"0";"[1,6]";"0";"3";"1"
"336";"31";"91";"1";"8";"3";"1";"4";"2";"[2,3,4,6,10]";"1";"0";"1"
"337";"24";"92";"1";"5";"4";"1";"4";"2";"[1,6]";"0";"4";"1"
"338";"30";"92";"1";"4";"4";"1";"4";"1";"[7,8]";"1";"0";"1"
"339";"40";"92";"1";"8";"2";"1";"4";"2";"[2,3,4,6,10]";"2";"0";"1"
"340";"18";"92";"1";"10";"4";"1";"4";"2";"[1,2,3,6,8,9]";"2";"0";"1"
"341";"25";"9";"1";"2";"1";"1";"4";"1";"[6,7,8,9,10]";"1";"0";"1"
"342";"31";"93";"1";"8";"3";"1";"4";"2";"[2,3,4,6,10]";"1";"0";"1"
"343";"19";"93";"1";"1";"4";"1";"4";"0";"[5,10]";"2";"3";"1"
"344";"30";"93";"1";"4";"4";"1";"4";"1";"[7,8]";"1";"0";"1"
"345";"29";"93";"1";"10";"2";"1";"4";"2";"[1,2,3,6,8,9]";"2";"0";"1"
"346";"24";"93";"1";"5";"4";"1";"4";"2";"[1,6]";"2";"4";"1"
"347";"35";"10";"1";"5";"1";"1";"4";"1";"[1,6]";"1";"3";"1"
"348";"38";"94";"1";"3";"3";"1";"4";"2";"[8,10]";"2";"0";"1"
"349";"19";"94";"1";"1";"4";"1";"4";"0";"[5,10]";"2";"3";"1"
"350";"29";"94";"1";"10";"2";"1";"4";"2";"[1,2,3,6,8,9]";"2";"0";"1"
"351";"24";"94";"1";"5";"4";"1";"4";"2";"[1,6]";"2";"4";"1"
"352";"35";"11";"1";"5";"1";"1";"4";"1";"[1,6]";"1";"3";"1"
"353";"38";"95";"1";"3";"3";"1";"4";"2";"[8,10]";"2";"0";"1"
"354";"26";"95";"1";"7";"2";"1";"4";"2";"[2,4,9]";"2";"0";"1"
"355";"15";"13";"1";"9";"1";"1";"4";"1";"[2,7,10]";"2";"0";"1"
"356";"26";"96";"1";"7";"2";"1";"4";"2";"[2,4,9]";"2";"0";"1"
"357";"11";"13";"1";"7";"1";"1";"4";"0";"[2,4,9]";"1";"0";"1"
"358";"3";"97";"1";"1";"2";"1";"4";"1";"[5,10]";"1";"0";"1"
"359";"15";"14";"1";"9";"1";"1";"4";"1";"[2,7,10]";"2";"0";"1"
"360";"8";"14";"1";"6";"1";"1";"4";"0";"[2,5,8,10]";"1";"0";"1"
"361";"11";"14";"1";"7";"1";"1";"4";"0";"[2,4,9]";"1";"0";"1"
"362";"10";"97";"1";"6";"2";"1";"4";"2";"[2,5,8,10]";"1";"0";"1"
"363";"33";"98";"1";"2";"2";"1";"4";"1";"[6,7,8,9,10]";"2";"0";"1"
"364";"3";"98";"1";"1";"2";"1";"4";"1";"[5,10]";"1";"0";"1"
"365";"8";"15";"1";"6";"1";"1";"4";"0";"[2,5,8,10]";"1";"0";"1"
"366";"23";"98";"1";"5";"2";"1";"4";"0";"[1,6]";"1";"3";"1"
"367";"10";"98";"1";"6";"2";"1";"4";"2";"[2,5,8,10]";"1";"0";"1"
"368";"9";"99";"1";"2";"4";"1";"4";"2";"[6,7,8,9,10]";"1";"0";"1"
"369";"33";"99";"1";"2";"2";"1";"4";"1";"[6,7,8,9,10]";"2";"0";"1"
"370";"23";"99";"1";"5";"2";"1";"4";"0";"[1,6]";"1";"3";"1"
"371";"9";"100";"1";"2";"4";"1";"4";"2";"[6,7,8,9,10]";"1";"0";"1"
"372";"27";"18";"1";"3";"1";"1";"4";"1";"[8,10]";"1";"0";"1"
"373";"27";"19";"1";"3";"1";"1";"4";"1";"[8,10]";"1";"0";"1"
"374";"7";"104";"1";"6";"4";"1";"4";"1";"[2,5,8,10]";"1";"0";"1"
"375";"7";"105";"1";"6";"4";"1";"4";"1";"[2,5,8,10]";"1";"0";"1"
"376";"22";"24";"1";"4";"1";"1";"4";"2";"[7,8]";"2";"0";"1"
"377";"22";"25";"1";"4";"1";"1";"4";"2";"[7,8]";"2";"0";"1"
"378";"35";"1";"1";"5";"1";"1";"5";"1";"[1,6]";"1";"0";"1"
"379";"16";"109";"1";"9";"2";"1";"5";"2";"[2,7,10]";"2";"0";"1"
"380";"6";"110";"1";"4";"3";"1";"5";"0";"[7,8]";"1";"0";"1"
"381";"14";"110";"1";"5";"3";"1";"5";"0";"[1,6]";"1";"0";"1"
"382";"35";"2";"1";"5";"1";"1";"5";"1";"[1,6]";"1";"0";"1"
"383";"9";"110";"1";"2";"4";"1";"5";"2";"[6,7,8,9,10]";"2";"0";"1"
"384";"16";"110";"1";"9";"2";"1";"5";"2";"[2,7,10]";"2";"0";"1"
"385";"6";"111";"1";"4";"3";"1";"5";"0";"[7,8]";"1";"0";"1"
"386";"14";"111";"1";"5";"3";"1";"5";"0";"[1,6]";"1";"0";"1"
"387";"9";"111";"1";"2";"4";"1";"5";"2";"[6,7,8,9,10]";"2";"0";"1"
"388";"39";"111";"1";"3";"2";"1";"5";"2";"[8,10]";"2";"0";"1"
"389";"5";"111";"1";"2";"3";"1";"5";"1";"[6,7,8,9,10]";"1";"0";"1"
"390";"37";"112";"1";"6";"3";"1";"5";"0";"[2,5,8,10]";"1";"0";"1"
"391";"33";"112";"1";"2";"2";"1";"5";"1";"[6,7,8,9,10]";"2";"0";"1"
"392";"4";"112";"1";"1";"3";"1";"5";"0";"[5,10]";"1";"0";"1"
"393";"25";"4";"1";"2";"1";"1";"5";"1";"[6,7,8,9,10]";"1";"0";"1"
"394";"39";"112";"1";"3";"2";"1";"5";"2";"[8,10]";"2";"0";"1"
"395";"5";"112";"1";"2";"3";"1";"5";"1";"[6,7,8,9,10]";"1";"0";"1"
"396";"26";"112";"1";"7";"2";"1";"5";"2";"[2,4,9]";"2";"0";"1"
"397";"36";"113";"1";"10";"3";"1";"5";"1";"[1,2,3,6,8,9]";"1";"0";"1"
"398";"37";"113";"1";"6";"3";"1";"5";"0";"[2,5,8,10]";"1";"0";"1"
"399";"24";"113";"1";"5";"4";"1";"5";"2";"[1,6]";"2";"0";"1"
"400";"34";"5";"1";"10";"1";"1";"5";"1";"[1,2,3,6,8,9]";"1";"0";"1"
"401";"33";"113";"1";"2";"2";"1";"5";"1";"[6,7,8,9,10]";"2";"0";"1"
"402";"4";"113";"1";"1";"3";"1";"5";"0";"[5,10]";"1";"0";"1"
"403";"25";"5";"1";"2";"1";"1";"5";"1";"[6,7,8,9,10]";"1";"0";"1"
"404";"40";"113";"1";"8";"2";"1";"5";"2";"[2,3,4,6,10]";"2";"0";"1"
"405";"26";"113";"1";"7";"2";"1";"5";"2";"[2,4,9]";"2";"0";"1"
"406";"22";"6";"1";"4";"1";"1";"5";"2";"[7,8]";"1";"0";"1"
"407";"36";"114";"1";"10";"3";"1";"5";"1";"[1,2,3,6,8,9]";"1";"0";"1"
"408";"24";"114";"1";"5";"4";"1";"5";"2";"[1,6]";"2";"0";"1"
"409";"34";"6";"1";"10";"1";"1";"5";"1";"[1,2,3,6,8,9]";"1";"0";"1"
"410";"40";"114";"1";"8";"2";"1";"5";"2";"[2,3,4,6,10]";"2";"0";"1"
"411";"22";"7";"1";"4";"1";"1";"5";"2";"[7,8]";"1";"0";"1"
"412";"1";"115";"1";"9";"3";"1";"5";"0";"[2,7,10]";"1";"0";"1"
"413";"28";"115";"1";"4";"2";"1";"5";"2";"[7,8]";"2";"0";"1"
"414";"13";"115";"1";"3";"4";"1";"5";"0";"[8,10]";"2";"0";"1"
"415";"17";"8";"1";"1";"1";"1";"5";"0";"[5,10]";"1";"0";"1"
"416";"31";"116";"1";"8";"3";"1";"5";"2";"[2,3,4,6,10]";"1";"0";"1"
"417";"1";"116";"1";"9";"3";"1";"5";"0";"[2,7,10]";"1";"0";"1"
"418";"28";"116";"1";"4";"2";"1";"5";"2";"[7,8]";"2";"0";"1"
"419";"13";"116";"1";"3";"4";"1";"5";"0";"[8,10]";"2";"0";"1"
"420";"30";"116";"1";"4";"4";"1";"5";"1";"[7,8]";"1";"0";"1"
"421";"17";"9";"1";"1";"1";"1";"5";"0";"[5,10]";"1";"0";"1"
"422";"10";"117";"1";"6";"2";"1";"5";"2";"[2,5,8,10]";"1";"0";"1"
"423";"31";"117";"1";"8";"3";"1";"5";"2";"[2,3,4,6,10]";"1";"0";"1"
"424";"18";"117";"1";"10";"4";"1";"5";"2";"[1,2,3,6,8,9]";"2";"0";"1"
"425";"21";"117";"1";"7";"3";"1";"5";"1";"[2,4,9]";"1";"0";"1"
"426";"30";"117";"1";"4";"4";"1";"5";"1";"[7,8]";"1";"0";"1"
"427";"11";"10";"1";"7";"1";"1";"5";"0";"[2,4,9]";"1";"0";"1"
"428";"10";"118";"1";"6";"2";"1";"5";"2";"[2,5,8,10]";"1";"0";"1"
"429";"18";"118";"1";"10";"4";"1";"5";"2";"[1,2,3,6,8,9]";"2";"0";"1"
"430";"27";"10";"1";"3";"1";"1";"5";"1";"[8,10]";"1";"0";"1"
"431";"20";"118";"1";"9";"4";"1";"5";"2";"[2,7,10]";"2";"0";"1"
"432";"21";"118";"1";"7";"3";"1";"5";"1";"[2,4,9]";"1";"0";"1"
"433";"23";"119";"1";"5";"2";"1";"5";"0";"[1,6]";"1";"0";"1"
"434";"11";"11";"1";"7";"1";"1";"5";"0";"[2,4,9]";"1";"0";"1"
"435";"2";"119";"1";"7";"4";"1";"5";"0";"[2,4,9]";"1";"0";"1"
"436";"27";"11";"1";"3";"1";"1";"5";"1";"[8,10]";"1";"0";"1"
"437";"8";"11";"1";"6";"1";"1";"5";"0";"[2,5,8,10]";"1";"0";"1"
"438";"20";"119";"1";"9";"4";"1";"5";"2";"[2,7,10]";"2";"0";"1"
"439";"38";"119";"1";"3";"3";"1";"5";"2";"[8,10]";"1";"0";"1"
"440";"23";"120";"1";"5";"2";"1";"5";"0";"[1,6]";"1";"0";"1"
"441";"2";"120";"1";"7";"4";"1";"5";"0";"[2,4,9]";"1";"0";"1"
"442";"8";"12";"1";"6";"1";"1";"5";"0";"[2,5,8,10]";"1";"0";"1"
"443";"32";"12";"1";"8";"1";"1";"5";"0";"[2,3,4,6,10]";"0";"3";"1"
"444";"38";"120";"1";"3";"3";"1";"5";"2";"[8,10]";"1";"0";"1"
"445";"19";"120";"1";"1";"4";"1";"5";"0";"[5,10]";"2";"0";"1"
"446";"29";"121";"1";"10";"2";"1";"5";"2";"[1,2,3,6,8,9]";"2";"0";"1"
"447";"19";"122";"1";"1";"4";"1";"5";"0";"[5,10]";"2";"0";"1"
"448";"32";"14";"1";"8";"1";"1";"5";"0";"[2,3,4,6,10]";"0";"4";"1"
"449";"29";"122";"1";"10";"2";"1";"5";"2";"[1,2,3,6,8,9]";"2";"0";"1"
"450";"32";"15";"1";"8";"1";"1";"5";"0";"[2,3,4,6,10]";"1";"4";"1"
"451";"32";"16";"1";"8";"1";"1";"5";"0";"[2,3,4,6,10]";"1";"4";"1"
"452";"15";"18";"1";"9";"1";"1";"5";"1";"[2,7,10]";"2";"0";"1"
"453";"15";"19";"1";"9";"1";"1";"5";"1";"[2,7,10]";"2";"0";"1"
"454";"12";"130";"1";"8";"4";"1";"5";"2";"[2,3,4,6,10]";"1";"0";"1"
"455";"3";"130";"1";"1";"2";"1";"5";"1";"[5,10]";"1";"0";"1"
"456";"12";"131";"1";"8";"4";"1";"5";"2";"[2,3,4,6,10]";"1";"0";"1"
"457";"3";"131";"1";"1";"2";"1";"5";"1";"[5,10]";"1";"0";"1"
"458";"7";"136";"1";"6";"4";"1";"5";"1";"[2,5,8,10]";"1";"0";"1"
"459";"7";"137";"1";"6";"4";"1";"5";"1";"[2,5,8,10]";"1";"0";"1"
"460";"16";"138";"1";"9";"2";"1";"6";"2";"[2,7,10]";"2";"0";"1"
"461";"14";"138";"1";"5";"3";"1";"6";"0";"[1,6]";"1";"0";"1"
"462";"39";"138";"1";"3";"2";"1";"6";"2";"[8,10]";"2";"0";"1"
"463";"22";"2";"1";"4";"1";"1";"6";"2";"[7,8]";"1";"0";"1"
"464";"6";"139";"1";"4";"3";"1";"6";"0";"[7,8]";"1";"0";"1"
"465";"21";"139";"1";"7";"3";"1";"6";"1";"[2,4,9]";"1";"0";"1"
"466";"35";"2";"1";"5";"1";"1";"6";"1";"[1,6]";"1";"0";"1"
"467";"4";"139";"1";"1";"3";"1";"6";"0";"[5,10]";"1";"0";"1"
"468";"27";"2";"1";"3";"1";"1";"6";"1";"[8,10]";"1";"0";"1"
"469";"37";"139";"1";"6";"3";"1";"6";"0";"[2,5,8,10]";"1";"0";"1"
"470";"34";"2";"1";"10";"1";"1";"6";"1";"[1,2,3,6,8,9]";"1";"0";"1"
"471";"15";"2";"1";"9";"1";"1";"6";"1";"[2,7,10]";"0";"4";"1"
"472";"5";"139";"1";"2";"3";"1";"6";"1";"[6,7,8,9,10]";"1";"0";"1"
"473";"28";"139";"1";"4";"2";"1";"6";"2";"[7,8]";"2";"0";"1"
"474";"16";"139";"1";"9";"2";"1";"6";"2";"[2,7,10]";"2";"0";"1"
"475";"14";"139";"1";"5";"3";"1";"6";"0";"[1,6]";"1";"0";"1"
"476";"39";"140";"1";"3";"2";"1";"6";"2";"[8,10]";"2";"0";"1"
"477";"23";"140";"1";"5";"2";"1";"6";"0";"[1,6]";"1";"0";"1"
"478";"22";"3";"1";"4";"1";"1";"6";"2";"[7,8]";"1";"0";"1"
"479";"6";"140";"1";"4";"3";"1";"6";"0";"[7,8]";"1";"0";"1"
"480";"33";"140";"1";"2";"2";"1";"6";"1";"[6,7,8,9,10]";"2";"0";"1"
"481";"21";"140";"1";"7";"3";"1";"6";"1";"[2,4,9]";"1";"0";"1"
"482";"10";"140";"1";"6";"2";"1";"6";"2";"[2,5,8,10]";"1";"0";"1"
"483";"35";"3";"1";"5";"1";"1";"6";"1";"[1,6]";"1";"0";"1"
"484";"4";"140";"1";"1";"3";"1";"6";"0";"[5,10]";"1";"0";"1"
"485";"27";"3";"1";"3";"1";"1";"6";"1";"[8,10]";"1";"0";"1"
"486";"37";"140";"1";"6";"3";"1";"6";"0";"[2,5,8,10]";"1";"0";"1"
"487";"29";"140";"1";"10";"2";"1";"6";"2";"[1,2,3,6,8,9]";"2";"0";"1"
"488";"34";"3";"1";"10";"1";"1";"6";"1";"[1,2,3,6,8,9]";"1";"0";"1"
"489";"5";"140";"1";"2";"3";"1";"6";"1";"[6,7,8,9,10]";"1";"0";"1"
"490";"28";"140";"1";"4";"2";"1";"6";"2";"[7,8]";"2";"0";"1"
"491";"17";"3";"1";"1";"1";"1";"6";"0";"[5,10]";"1";"0";"1"
"492";"40";"140";"1";"8";"2";"1";"6";"2";"[2,3,4,6,10]";"2";"0";"1"
"493";"25";"3";"1";"2";"1";"1";"6";"1";"[6,7,8,9,10]";"1";"0";"1"
"494";"23";"141";"1";"5";"2";"1";"6";"0";"[1,6]";"1";"0";"1"
"495";"15";"4";"1";"9";"1";"1";"6";"1";"[2,7,10]";"0";"5";"1"
"496";"33";"141";"1";"2";"2";"1";"6";"1";"[6,7,8,9,10]";"2";"0";"1"
"497";"10";"141";"1";"6";"2";"1";"6";"2";"[2,5,8,10]";"1";"0";"1"
"498";"32";"4";"1";"8";"1";"1";"6";"0";"[2,3,4,6,10]";"1";"0";"1"
"499";"29";"141";"1";"10";"2";"1";"6";"2";"[1,2,3,6,8,9]";"2";"0";"1"
"500";"2";"141";"1";"7";"4";"1";"6";"0";"[2,4,9]";"2";"0";"1"
"501";"31";"141";"1";"8";"3";"1";"6";"2";"[2,3,4,6,10]";"2";"0";"1"
"502";"17";"4";"1";"1";"1";"1";"6";"0";"[5,10]";"1";"0";"1"
"503";"40";"141";"1";"8";"2";"1";"6";"2";"[2,3,4,6,10]";"2";"0";"1"
"504";"19";"141";"1";"1";"4";"1";"6";"0";"[5,10]";"0";"4";"1"
"505";"25";"4";"1";"2";"1";"1";"6";"1";"[6,7,8,9,10]";"1";"0";"1"
"506";"36";"141";"1";"10";"3";"1";"6";"1";"[1,2,3,6,8,9]";"1";"0";"1"
"507";"24";"142";"1";"5";"4";"1";"6";"2";"[1,6]";"2";"0";"1"
"508";"32";"5";"1";"8";"1";"1";"6";"0";"[2,3,4,6,10]";"1";"0";"1"
"509";"26";"142";"1";"7";"2";"1";"6";"2";"[2,4,9]";"2";"0";"1"
"510";"20";"142";"1";"9";"4";"1";"6";"2";"[2,7,10]";"2";"0";"1"
"511";"31";"142";"1";"8";"3";"1";"6";"2";"[2,3,4,6,10]";"2";"0";"1"
"512";"2";"142";"1";"7";"4";"1";"6";"0";"[2,4,9]";"2";"0";"1"
"513";"15";"5";"1";"9";"1";"1";"6";"1";"[2,7,10]";"0";"1";"1"
"514";"36";"142";"1";"10";"3";"1";"6";"1";"[1,2,3,6,8,9]";"1";"0";"1"
"515";"19";"143";"1";"1";"4";"1";"6";"0";"[5,10]";"0";"5";"1"
"516";"24";"143";"1";"5";"4";"1";"6";"2";"[1,6]";"2";"0";"1"
"517";"26";"143";"1";"7";"2";"1";"6";"2";"[2,4,9]";"2";"0";"1"
"518";"20";"143";"1";"9";"4";"1";"6";"2";"[2,7,10]";"2";"0";"1"
"519";"30";"143";"1";"4";"4";"1";"6";"1";"[7,8]";"1";"0";"1"
"520";"8";"6";"1";"6";"1";"1";"6";"0";"[2,5,8,10]";"1";"0";"1"
"521";"30";"144";"1";"4";"4";"1";"6";"1";"[7,8]";"1";"0";"1"
"522";"8";"7";"1";"6";"1";"1";"6";"0";"[2,5,8,10]";"1";"0";"1"
"523";"19";"144";"1";"1";"4";"1";"6";"0";"[5,10]";"2";"5";"1"
"524";"15";"8";"1";"9";"1";"1";"6";"1";"[2,7,10]";"0";"5";"1"
"525";"19";"145";"1";"1";"4";"1";"6";"0";"[5,10]";"2";"5";"1"
"526";"12";"147";"1";"8";"4";"1";"6";"2";"[2,3,4,6,10]";"2";"0";"1"
"527";"1";"147";"1";"9";"3";"1";"6";"0";"[2,7,10]";"1";"0";"1"
"528";"15";"11";"1";"9";"1";"1";"6";"1";"[2,7,10]";"1";"5";"1"
"529";"38";"148";"1";"3";"3";"1";"6";"2";"[8,10]";"1";"0";"1"
"530";"12";"148";"1";"8";"4";"1";"6";"2";"[2,3,4,6,10]";"2";"0";"1"
"531";"1";"148";"1";"9";"3";"1";"6";"0";"[2,7,10]";"1";"0";"1"
"532";"18";"149";"1";"10";"4";"1";"6";"2";"[1,2,3,6,8,9]";"2";"0";"1"
"533";"15";"12";"1";"9";"1";"1";"6";"1";"[2,7,10]";"1";"5";"1"
"534";"38";"149";"1";"3";"3";"1";"6";"2";"[8,10]";"1";"0";"1"
"535";"13";"149";"1";"3";"4";"1";"6";"0";"[8,10]";"2";"0";"1"
"536";"18";"150";"1";"10";"4";"1";"6";"2";"[1,2,3,6,8,9]";"2";"0";"1"
"537";"13";"150";"1";"3";"4";"1";"6";"0";"[8,10]";"2";"0";"1"
"538";"9";"151";"1";"2";"4";"1";"6";"2";"[6,7,8,9,10]";"2";"0";"1"
"539";"11";"15";"1";"7";"1";"1";"6";"0";"[2,4,9]";"1";"0";"1"
"540";"9";"152";"1";"2";"4";"1";"6";"2";"[6,7,8,9,10]";"2";"0";"1"
"541";"11";"16";"1";"7";"1";"1";"6";"0";"[2,4,9]";"1";"0";"1"
"542";"7";"153";"1";"6";"4";"1";"6";"1";"[2,5,8,10]";"1";"0";"1"
"543";"7";"154";"1";"6";"4";"1";"6";"1";"[2,5,8,10]";"1";"0";"1"
"544";"3";"155";"1";"1";"2";"1";"6";"1";"[5,10]";"1";"0";"1"
"545";"3";"156";"1";"1";"2";"1";"6";"1";"[5,10]";"1";"0";"1"
"546";"4";"158";"1";"1";"3";"1";"7";"0";"[5,10]";"1";"0";"1"
"547";"22";"2";"1";"4";"1";"1";"7";"2";"[7,8]";"1";"0";"1"
"548";"23";"158";"1";"5";"2";"1";"7";"0";"[1,6]";"1";"0";"1"
"549";"25";"2";"1";"2";"1";"1";"7";"1";"[6,7,8,9,10]";"1";"0";"1"
"550";"2";"159";"1";"7";"4";"1";"7";"0";"[2,4,9]";"2";"0";"1"
"551";"27";"3";"1";"3";"1";"1";"7";"1";"[8,10]";"1";"0";"1"
"552";"33";"159";"1";"2";"2";"1";"7";"1";"[6,7,8,9,10]";"2";"0";"1"
"553";"9";"159";"1";"2";"4";"1";"7";"2";"[6,7,8,9,10]";"2";"0";"1"
"554";"4";"159";"1";"1";"3";"1";"7";"0";"[5,10]";"1";"0";"1"
"555";"22";"3";"1";"4";"1";"1";"7";"2";"[7,8]";"1";"0";"1"
"556";"3";"159";"1";"1";"2";"1";"7";"1";"[5,10]";"1";"0";"1"
"557";"35";"3";"1";"5";"1";"1";"7";"1";"[1,6]";"1";"0";"1"
"558";"37";"159";"1";"6";"3";"1";"7";"0";"[2,5,8,10]";"1";"0";"1"
"559";"23";"159";"1";"5";"2";"1";"7";"0";"[1,6]";"1";"0";"1"
"560";"1";"159";"1";"9";"3";"1";"7";"0";"[2,7,10]";"1";"0";"1"
"561";"25";"3";"1";"2";"1";"1";"7";"1";"[6,7,8,9,10]";"1";"0";"1"
"562";"2";"160";"1";"7";"4";"1";"7";"0";"[2,4,9]";"2";"0";"1"
"563";"5";"160";"1";"2";"3";"1";"7";"1";"[6,7,8,9,10]";"1";"0";"1"
"564";"6";"160";"1";"4";"3";"1";"7";"0";"[7,8]";"1";"0";"1"
"565";"27";"4";"1";"3";"1";"1";"7";"1";"[8,10]";"1";"0";"1"
"566";"33";"160";"1";"2";"2";"1";"7";"1";"[6,7,8,9,10]";"2";"0";"1"
"567";"40";"160";"1";"8";"2";"1";"7";"2";"[2,3,4,6,10]";"2";"0";"1"
"568";"9";"160";"1";"2";"4";"1";"7";"2";"[6,7,8,9,10]";"2";"0";"1"
"569";"16";"160";"1";"9";"2";"1";"7";"2";"[2,7,10]";"2";"0";"1"
"570";"13";"160";"1";"3";"4";"1";"7";"0";"[8,10]";"2";"0";"1"
"571";"36";"160";"1";"10";"3";"1";"7";"1";"[1,2,3,6,8,9]";"2";"0";"1"
"572";"32";"4";"1";"8";"1";"1";"7";"0";"[2,3,4,6,10]";"1";"0";"1"
"573";"28";"160";"1";"4";"2";"1";"7";"2";"[7,8]";"2";"0";"1"
"574";"3";"160";"1";"1";"2";"1";"7";"1";"[5,10]";"1";"0";"1"
"575";"18";"160";"1";"10";"4";"1";"7";"2";"[1,2,3,6,8,9]";"2";"0";"1"
"576";"35";"4";"1";"5";"1";"1";"7";"1";"[1,6]";"1";"0";"1"
"577";"37";"160";"1";"6";"3";"1";"7";"0";"[2,5,8,10]";"1";"0";"1"
"578";"1";"160";"1";"9";"3";"1";"7";"0";"[2,7,10]";"1";"0";"1"
"579";"5";"161";"1";"2";"3";"1";"7";"1";"[6,7,8,9,10]";"1";"0";"1"
"580";"39";"161";"1";"3";"2";"1";"7";"2";"[8,10]";"2";"0";"1"
"581";"6";"161";"1";"4";"3";"1";"7";"0";"[7,8]";"1";"0";"1"
"582";"40";"161";"1";"8";"2";"1";"7";"2";"[2,3,4,6,10]";"2";"0";"1"
"583";"31";"161";"1";"8";"3";"1";"7";"2";"[2,3,4,6,10]";"2";"0";"1"
"584";"16";"161";"1";"9";"2";"1";"7";"2";"[2,7,10]";"2";"0";"1"
"585";"13";"161";"1";"3";"4";"1";"7";"0";"[8,10]";"2";"0";"1"
"586";"36";"161";"1";"10";"3";"1";"7";"1";"[1,2,3,6,8,9]";"2";"0";"1"
"587";"32";"5";"1";"8";"1";"1";"7";"0";"[2,3,4,6,10]";"1";"0";"1"
"588";"24";"161";"1";"5";"4";"1";"7";"2";"[1,6]";"2";"0";"1"
"589";"28";"161";"1";"4";"2";"1";"7";"2";"[7,8]";"2";"0";"1"
"590";"18";"161";"1";"10";"4";"1";"7";"2";"[1,2,3,6,8,9]";"2";"0";"1"
"591";"39";"162";"1";"3";"2";"1";"7";"2";"[8,10]";"2";"0";"1"
"592";"31";"162";"1";"8";"3";"1";"7";"2";"[2,3,4,6,10]";"2";"0";"1"
"593";"29";"162";"1";"10";"2";"1";"7";"2";"[1,2,3,6,8,9]";"2";"0";"1"
"594";"24";"162";"1";"5";"4";"1";"7";"2";"[1,6]";"2";"0";"1"
"595";"17";"6";"1";"1";"1";"1";"7";"0";"[5,10]";"1";"0";"1"
"596";"34";"6";"1";"10";"1";"1";"7";"1";"[1,2,3,6,8,9]";"2";"0";"1"
"597";"30";"162";"1";"4";"4";"1";"7";"1";"[7,8]";"2";"0";"1"
"598";"10";"162";"1";"6";"2";"1";"7";"2";"[2,5,8,10]";"2";"0";"1"
"599";"21";"163";"1";"7";"3";"1";"7";"1";"[2,4,9]";"2";"0";"1"
"600";"14";"163";"1";"5";"3";"1";"7";"0";"[1,6]";"1";"0";"1"
"601";"19";"163";"1";"1";"4";"1";"7";"0";"[5,10]";"2";"0";"1"
"602";"29";"163";"1";"10";"2";"1";"7";"2";"[1,2,3,6,8,9]";"2";"0";"1"
"603";"17";"7";"1";"1";"1";"1";"7";"0";"[5,10]";"1";"0";"1"
"604";"8";"7";"1";"6";"1";"1";"7";"0";"[2,5,8,10]";"1";"0";"1"
"605";"34";"7";"1";"10";"1";"1";"7";"1";"[1,2,3,6,8,9]";"2";"0";"1"
"606";"26";"163";"1";"7";"2";"1";"7";"2";"[2,4,9]";"2";"0";"1"
"607";"30";"163";"1";"4";"4";"1";"7";"1";"[7,8]";"2";"0";"1"
"608";"10";"163";"1";"6";"2";"1";"7";"2";"[2,5,8,10]";"2";"0";"1"
"609";"11";"7";"1";"7";"1";"1";"7";"0";"[2,4,9]";"1";"0";"1"
"610";"21";"164";"1";"7";"3";"1";"7";"1";"[2,4,9]";"2";"0";"1"
"611";"14";"164";"1";"5";"3";"1";"7";"0";"[1,6]";"1";"0";"1"
"612";"19";"164";"1";"1";"4";"1";"7";"0";"[5,10]";"2";"0";"1"
"613";"15";"8";"1";"9";"1";"1";"7";"1";"[2,7,10]";"1";"0";"1"
"614";"8";"8";"1";"6";"1";"1";"7";"0";"[2,5,8,10]";"1";"0";"1"
"615";"26";"164";"1";"7";"2";"1";"7";"2";"[2,4,9]";"2";"0";"1"
"616";"11";"9";"1";"7";"1";"1";"7";"0";"[2,4,9]";"1";"0";"1"
"617";"15";"9";"1";"9";"1";"1";"7";"1";"[2,7,10]";"1";"0";"1"
"618";"20";"165";"1";"9";"4";"1";"7";"2";"[2,7,10]";"2";"0";"1"
"619";"20";"166";"1";"9";"4";"1";"7";"2";"[2,7,10]";"2";"0";"1"
"620";"38";"167";"1";"3";"3";"1";"7";"2";"[8,10]";"1";"0";"1"
"621";"12";"167";"1";"8";"4";"1";"7";"2";"[2,3,4,6,10]";"2";"0";"1"
"622";"38";"168";"1";"3";"3";"1";"7";"2";"[8,10]";"1";"0";"1"
"623";"12";"169";"1";"8";"4";"1";"7";"2";"[2,3,4,6,10]";"2";"0";"1"
"624";"23";"175";"1";"5";"2";"1";"7";"0";"[1,6]";"1";"5";"1"
"625";"23";"176";"1";"5";"2";"1";"7";"0";"[1,6]";"1";"4";"1"
"626";"23";"177";"1";"5";"2";"1";"7";"0";"[1,6]";"1";"2";"1"
"627";"23";"178";"1";"5";"2";"1";"7";"0";"[1,6]";"1";"5";"1"
"628";"23";"179";"1";"5";"2";"1";"7";"0";"[1,6]";"1";"6";"1"
"629";"23";"181";"1";"5";"2";"1";"7";"0";"[1,6]";"1";"7";"1"
"630";"7";"184";"1";"6";"4";"1";"7";"1";"[2,5,8,10]";"1";"0";"1"
"631";"35";"29";"1";"5";"1";"1";"7";"1";"[1,6]";"1";"2";"1"
"632";"7";"185";"1";"6";"4";"1";"7";"1";"[2,5,8,10]";"1";"0";"1"
"633";"40";"187";"1";"8";"2";"1";"8";"2";"[2,3,4,6,10]";"2";"0";"1"
"634";"22";"2";"1";"4";"1";"1";"8";"2";"[7,8]";"1";"0";"1"
"635";"35";"2";"1";"5";"1";"1";"8";"1";"[1,6]";"1";"0";"1"
"636";"33";"187";"1";"2";"2";"1";"8";"1";"[6,7,8,9,10]";"2";"0";"1"
"637";"2";"187";"1";"7";"4";"1";"8";"0";"[2,4,9]";"2";"0";"1"
"638";"16";"187";"1";"9";"2";"1";"8";"2";"[2,7,10]";"2";"0";"1"
"639";"26";"187";"1";"7";"2";"1";"8";"2";"[2,4,9]";"2";"0";"1"
"640";"9";"187";"1";"2";"4";"1";"8";"2";"[6,7,8,9,10]";"2";"0";"1"
"641";"4";"188";"1";"1";"3";"1";"8";"0";"[5,10]";"1";"0";"1"
"642";"13";"188";"1";"3";"4";"1";"8";"0";"[8,10]";"2";"0";"1"
"643";"40";"188";"1";"8";"2";"1";"8";"2";"[2,3,4,6,10]";"2";"0";"1"
"644";"22";"3";"1";"4";"1";"1";"8";"2";"[7,8]";"1";"0";"1"
"645";"35";"3";"1";"5";"1";"1";"8";"1";"[1,6]";"1";"5";"1"
"646";"35";"3";"1";"5";"1";"1";"8";"1";"[1,6]";"1";"5";"1"
"647";"5";"188";"1";"2";"3";"1";"8";"1";"[6,7,8,9,10]";"1";"0";"1"
"648";"28";"188";"1";"4";"2";"1";"8";"2";"[7,8]";"2";"0";"1"
"649";"14";"188";"1";"5";"3";"1";"8";"0";"[1,6]";"1";"0";"1"
"650";"2";"188";"1";"7";"4";"1";"8";"0";"[2,4,9]";"2";"0";"1"
"651";"33";"188";"1";"2";"2";"1";"8";"1";"[6,7,8,9,10]";"2";"0";"1"
"652";"6";"188";"1";"4";"3";"1";"8";"0";"[7,8]";"2";"0";"1"
"653";"16";"188";"1";"9";"2";"1";"8";"2";"[2,7,10]";"2";"0";"1"
"654";"26";"188";"1";"7";"2";"1";"8";"2";"[2,4,9]";"2";"0";"1"
"655";"34";"3";"1";"10";"1";"1";"8";"1";"[1,2,3,6,8,9]";"2";"0";"1"
"656";"9";"189";"1";"2";"4";"1";"8";"2";"[6,7,8,9,10]";"2";"0";"1"
"657";"38";"189";"1";"3";"3";"1";"8";"2";"[8,10]";"2";"0";"1"
"658";"4";"189";"1";"1";"3";"1";"8";"0";"[5,10]";"1";"0";"1"
"659";"13";"189";"1";"3";"4";"1";"8";"0";"[8,10]";"2";"0";"1"
"660";"27";"4";"1";"3";"1";"1";"8";"1";"[8,10]";"1";"0";"1"
"661";"5";"189";"1";"2";"3";"1";"8";"1";"[6,7,8,9,10]";"1";"0";"1"
"662";"28";"189";"1";"4";"2";"1";"8";"2";"[7,8]";"2";"0";"1"
"663";"19";"189";"1";"1";"4";"1";"8";"0";"[5,10]";"2";"0";"1"
"664";"14";"189";"1";"5";"3";"1";"8";"0";"[1,6]";"1";"0";"1"
"665";"6";"189";"1";"4";"3";"1";"8";"0";"[7,8]";"2";"0";"1"
"666";"34";"4";"1";"10";"1";"1";"8";"1";"[1,2,3,6,8,9]";"2";"0";"1"
"667";"24";"190";"1";"5";"4";"1";"8";"2";"[1,6]";"1";"0";"1"
"668";"35";"5";"1";"5";"1";"1";"8";"1";"[1,6]";"1";"4";"1"
"669";"18";"190";"1";"10";"4";"1";"8";"2";"[1,2,3,6,8,9]";"2";"0";"1"
"670";"38";"190";"1";"3";"3";"1";"8";"2";"[8,10]";"2";"0";"1"
"671";"37";"190";"1";"6";"3";"1";"8";"0";"[2,5,8,10]";"1";"0";"1"
"672";"27";"5";"1";"3";"1";"1";"8";"1";"[8,10]";"1";"0";"1"
"673";"19";"190";"1";"1";"4";"1";"8";"0";"[5,10]";"2";"0";"1"
"674";"32";"5";"1";"8";"1";"1";"8";"0";"[2,3,4,6,10]";"1";"0";"1"
"675";"3";"190";"1";"1";"2";"1";"8";"1";"[5,10]";"1";"0";"1"
"676";"35";"5";"1";"5";"1";"1";"8";"1";"[1,6]";"1";"3";"1"
"677";"20";"190";"1";"9";"4";"1";"8";"2";"[2,7,10]";"0";"1";"1"
"678";"24";"191";"1";"5";"4";"1";"8";"2";"[1,6]";"1";"0";"1"
"679";"36";"191";"1";"10";"3";"1";"8";"1";"[1,2,3,6,8,9]";"1";"0";"1"
"680";"18";"191";"1";"10";"4";"1";"8";"2";"[1,2,3,6,8,9]";"2";"0";"1"
"681";"39";"191";"1";"3";"2";"1";"8";"2";"[8,10]";"2";"0";"1"
"682";"37";"191";"1";"6";"3";"1";"8";"0";"[2,5,8,10]";"1";"0";"1"
"683";"11";"6";"1";"7";"1";"1";"8";"0";"[2,4,9]";"1";"0";"1"
"684";"29";"191";"1";"10";"2";"1";"8";"2";"[1,2,3,6,8,9]";"2";"0";"1"
"685";"32";"6";"1";"8";"1";"1";"8";"0";"[2,3,4,6,10]";"1";"0";"1"
"686";"12";"191";"1";"8";"4";"1";"8";"2";"[2,3,4,6,10]";"0";"5";"1"
"687";"3";"191";"1";"1";"2";"1";"8";"1";"[5,10]";"1";"0";"1"
"688";"21";"191";"1";"7";"3";"1";"8";"1";"[2,4,9]";"1";"0";"1"
"689";"31";"191";"1";"8";"3";"1";"8";"2";"[2,3,4,6,10]";"1";"0";"1"
"690";"20";"192";"1";"9";"4";"1";"8";"2";"[2,7,10]";"0";"2";"1"
"691";"35";"7";"1";"5";"1";"1";"8";"1";"[1,6]";"1";"1";"1"
"692";"36";"192";"1";"10";"3";"1";"8";"1";"[1,2,3,6,8,9]";"1";"0";"1"
"693";"39";"192";"1";"3";"2";"1";"8";"2";"[8,10]";"2";"0";"1"
"694";"11";"7";"1";"7";"1";"1";"8";"0";"[2,4,9]";"1";"0";"1"
"695";"29";"192";"1";"10";"2";"1";"8";"2";"[1,2,3,6,8,9]";"2";"0";"1"
"696";"21";"192";"1";"7";"3";"1";"8";"1";"[2,4,9]";"1";"0";"1"
"697";"23";"192";"1";"5";"2";"1";"8";"0";"[1,6]";"1";"0";"1"
"698";"31";"192";"1";"8";"3";"1";"8";"2";"[2,3,4,6,10]";"1";"0";"1"
"699";"30";"193";"1";"4";"4";"1";"8";"1";"[7,8]";"2";"0";"1"
"700";"20";"193";"1";"9";"4";"1";"8";"2";"[2,7,10]";"0";"3";"1"
"701";"23";"193";"1";"5";"2";"1";"8";"0";"[1,6]";"1";"0";"1"
"702";"30";"194";"1";"4";"4";"1";"8";"1";"[7,8]";"2";"0";"1"
"703";"20";"194";"1";"9";"4";"1";"8";"2";"[2,7,10]";"0";"4";"1"
"704";"25";"10";"1";"2";"1";"1";"8";"1";"[6,7,8,9,10]";"1";"0";"1"
"705";"15";"10";"1";"9";"1";"1";"8";"1";"[2,7,10]";"2";"0";"1"
"706";"35";"10";"1";"5";"1";"1";"8";"1";"[1,6]";"1";"6";"1"
"707";"10";"195";"1";"6";"2";"1";"8";"2";"[2,5,8,10]";"2";"0";"1"
"708";"12";"195";"1";"8";"4";"1";"8";"2";"[2,3,4,6,10]";"0";"7";"1"
"709";"25";"11";"1";"2";"1";"1";"8";"1";"[6,7,8,9,10]";"1";"0";"1"
"710";"20";"196";"1";"9";"4";"1";"8";"2";"[2,7,10]";"0";"5";"1"
"711";"15";"11";"1";"9";"1";"1";"8";"1";"[2,7,10]";"2";"0";"1"
"712";"10";"196";"1";"6";"2";"1";"8";"2";"[2,5,8,10]";"2";"0";"1"
"713";"20";"197";"1";"9";"4";"1";"8";"2";"[2,7,10]";"0";"6";"1"
"714";"12";"199";"1";"8";"4";"1";"8";"2";"[2,3,4,6,10]";"0";"9";"1"
"715";"20";"199";"1";"9";"4";"1";"8";"2";"[2,7,10]";"0";"7";"1"
"716";"7";"200";"1";"6";"4";"1";"8";"1";"[2,5,8,10]";"1";"0";"1"
"717";"12";"200";"1";"8";"4";"1";"8";"2";"[2,3,4,6,10]";"2";"9";"1"
"718";"17";"15";"1";"1";"1";"1";"8";"0";"[5,10]";"2";"0";"1"
"719";"20";"201";"1";"9";"4";"1";"8";"2";"[2,7,10]";"0";"8";"1"
"720";"7";"201";"1";"6";"4";"1";"8";"1";"[2,5,8,10]";"1";"0";"1"
"721";"12";"201";"1";"8";"4";"1";"8";"2";"[2,3,4,6,10]";"2";"9";"1"
"722";"8";"16";"1";"6";"1";"1";"8";"0";"[2,5,8,10]";"1";"0";"1"
"723";"17";"16";"1";"1";"1";"1";"8";"0";"[5,10]";"2";"0";"1"
"724";"20";"202";"1";"9";"4";"1";"8";"2";"[2,7,10]";"2";"8";"1"
"725";"8";"17";"1";"6";"1";"1";"8";"0";"[2,5,8,10]";"1";"0";"1"
"726";"1";"202";"1";"9";"3";"1";"8";"0";"[2,7,10]";"2";"0";"1"
"727";"33";"202";"1";"2";"2";"1";"8";"1";"[6,7,8,9,10]";"2";"5";"1"
"728";"20";"203";"1";"9";"4";"1";"8";"2";"[2,7,10]";"2";"8";"1"
"729";"1";"203";"1";"9";"3";"1";"8";"0";"[2,7,10]";"2";"0";"1"
"730";"40";"205";"1";"8";"2";"1";"9";"2";"[2,3,4,6,10]";"2";"0";"1"
"731";"4";"205";"1";"1";"3";"1";"9";"0";"[5,10]";"1";"0";"1"
"732";"14";"205";"1";"5";"3";"1";"9";"0";"[1,6]";"0";"8";"1"
"733";"27";"2";"1";"3";"1";"1";"9";"1";"[8,10]";"1";"0";"1"
"734";"21";"205";"1";"7";"3";"1";"9";"1";"[2,4,9]";"2";"0";"1"
"735";"35";"2";"1";"5";"1";"1";"9";"1";"[1,6]";"1";"0";"1"
"736";"2";"205";"1";"7";"4";"1";"9";"0";"[2,4,9]";"2";"0";"1"
"737";"9";"205";"1";"2";"4";"1";"9";"2";"[6,7,8,9,10]";"2";"0";"1"
"738";"39";"205";"1";"3";"2";"1";"9";"2";"[8,10]";"2";"0";"1"
"739";"13";"206";"1";"3";"4";"1";"9";"0";"[8,10]";"2";"0";"1"
"740";"40";"206";"1";"8";"2";"1";"9";"2";"[2,3,4,6,10]";"2";"0";"1"
"741";"37";"206";"1";"6";"3";"1";"9";"0";"[2,5,8,10]";"1";"0";"1"
"742";"4";"206";"1";"1";"3";"1";"9";"0";"[5,10]";"1";"0";"1"
"743";"22";"3";"1";"4";"1";"1";"9";"2";"[7,8]";"1";"0";"1"
"744";"27";"3";"1";"3";"1";"1";"9";"1";"[8,10]";"1";"0";"1"
"745";"32";"3";"1";"8";"1";"1";"9";"0";"[2,3,4,6,10]";"1";"0";"1"
"746";"21";"206";"1";"7";"3";"1";"9";"1";"[2,4,9]";"2";"0";"1"
"747";"35";"3";"1";"5";"1";"1";"9";"1";"[1,6]";"1";"0";"1"
"748";"23";"206";"1";"5";"2";"1";"9";"0";"[1,6]";"0";"7";"1"
"749";"8";"3";"1";"6";"1";"1";"9";"0";"[2,5,8,10]";"1";"0";"1"
"750";"2";"206";"1";"7";"4";"1";"9";"0";"[2,4,9]";"2";"0";"1"
"751";"24";"206";"1";"5";"4";"1";"9";"2";"[1,6]";"2";"0";"1"
"752";"28";"206";"1";"4";"2";"1";"9";"2";"[7,8]";"2";"0";"1"
"753";"9";"206";"1";"2";"4";"1";"9";"2";"[6,7,8,9,10]";"2";"0";"1"
"754";"39";"206";"1";"3";"2";"1";"9";"2";"[8,10]";"2";"0";"1"
"755";"13";"207";"1";"3";"4";"1";"9";"0";"[8,10]";"2";"0";"1"
"756";"5";"207";"1";"2";"3";"1";"9";"1";"[6,7,8,9,10]";"1";"0";"1"
"757";"36";"207";"1";"10";"3";"1";"9";"1";"[1,2,3,6,8,9]";"1";"0";"1"
"758";"37";"207";"1";"6";"3";"1";"9";"0";"[2,5,8,10]";"1";"0";"1"
"759";"22";"4";"1";"4";"1";"1";"9";"2";"[7,8]";"1";"0";"1"
"760";"32";"4";"1";"8";"1";"1";"9";"0";"[2,3,4,6,10]";"1";"0";"1"
"761";"33";"207";"1";"2";"2";"1";"9";"1";"[6,7,8,9,10]";"2";"0";"1"
"762";"23";"207";"1";"5";"2";"1";"9";"0";"[1,6]";"0";"8";"1"
"763";"18";"207";"1";"10";"4";"1";"9";"2";"[1,2,3,6,8,9]";"2";"0";"1"
"764";"8";"4";"1";"6";"1";"1";"9";"0";"[2,5,8,10]";"1";"0";"1"
"765";"31";"207";"1";"8";"3";"1";"9";"2";"[2,3,4,6,10]";"1";"0";"1"
"766";"24";"207";"1";"5";"4";"1";"9";"2";"[1,6]";"2";"0";"1"
"767";"26";"207";"1";"7";"2";"1";"9";"2";"[2,4,9]";"2";"0";"1"
"768";"28";"207";"1";"4";"2";"1";"9";"2";"[7,8]";"2";"0";"1"
"769";"6";"208";"1";"4";"3";"1";"9";"0";"[7,8]";"1";"0";"1"
"770";"5";"208";"1";"2";"3";"1";"9";"1";"[6,7,8,9,10]";"1";"0";"1"
"771";"36";"208";"1";"10";"3";"1";"9";"1";"[1,2,3,6,8,9]";"1";"0";"1"
"772";"14";"208";"1";"5";"3";"1";"9";"0";"[1,6]";"0";"5";"1"
"773";"23";"208";"1";"5";"2";"1";"9";"0";"[1,6]";"0";"9";"1"
"774";"33";"208";"1";"2";"2";"1";"9";"1";"[6,7,8,9,10]";"2";"0";"1"
"775";"18";"208";"1";"10";"4";"1";"9";"2";"[1,2,3,6,8,9]";"2";"0";"1"
"776";"31";"208";"1";"8";"3";"1";"9";"2";"[2,3,4,6,10]";"1";"0";"1"
"777";"26";"208";"1";"7";"2";"1";"9";"2";"[2,4,9]";"2";"0";"1"
"778";"6";"209";"1";"4";"3";"1";"9";"0";"[7,8]";"1";"0";"1"
"779";"1";"209";"1";"9";"3";"1";"9";"0";"[2,7,10]";"1";"0";"1"
"780";"30";"209";"1";"4";"4";"1";"9";"1";"[7,8]";"2";"0";"1"
"781";"34";"6";"1";"10";"1";"1";"9";"1";"[1,2,3,6,8,9]";"2";"0";"1"
"782";"29";"210";"1";"10";"2";"1";"9";"2";"[1,2,3,6,8,9]";"2";"0";"1"
"783";"1";"210";"1";"9";"3";"1";"9";"0";"[2,7,10]";"1";"0";"1"
"784";"30";"210";"1";"4";"4";"1";"9";"1";"[7,8]";"2";"0";"1"
"785";"20";"210";"1";"9";"4";"1";"9";"2";"[2,7,10]";"2";"0";"1"
"786";"15";"7";"1";"9";"1";"1";"9";"1";"[2,7,10]";"2";"0";"1"
"787";"34";"7";"1";"10";"1";"1";"9";"1";"[1,2,3,6,8,9]";"2";"0";"1"
"788";"29";"211";"1";"10";"2";"1";"9";"2";"[1,2,3,6,8,9]";"2";"0";"1"
"789";"14";"211";"1";"5";"3";"1";"9";"0";"[1,6]";"0";"9";"1"
"790";"20";"211";"1";"9";"4";"1";"9";"2";"[2,7,10]";"2";"0";"1"
"791";"12";"211";"1";"8";"4";"1";"9";"2";"[2,3,4,6,10]";"2";"0";"1"
"792";"15";"8";"1";"9";"1";"1";"9";"1";"[2,7,10]";"2";"0";"1"
"793";"38";"211";"1";"3";"3";"1";"9";"2";"[8,10]";"2";"0";"1"
"794";"10";"212";"1";"6";"2";"1";"9";"2";"[2,5,8,10]";"2";"0";"1"
"795";"12";"212";"1";"8";"4";"1";"9";"2";"[2,3,4,6,10]";"2";"0";"1"
"796";"14";"212";"1";"5";"3";"1";"9";"0";"[1,6]";"1";"9";"1"
"797";"38";"212";"1";"3";"3";"1";"9";"2";"[8,10]";"2";"0";"1"
"798";"3";"212";"1";"1";"2";"1";"9";"1";"[5,10]";"1";"0";"1"
"799";"10";"213";"1";"6";"2";"1";"9";"2";"[2,5,8,10]";"2";"0";"1"
"800";"14";"213";"1";"5";"3";"1";"9";"0";"[1,6]";"1";"9";"1"
"801";"3";"213";"1";"1";"2";"1";"9";"1";"[5,10]";"1";"0";"1"
"802";"23";"215";"1";"5";"2";"1";"9";"0";"[1,6]";"2";"9";"1"
"803";"23";"216";"1";"5";"2";"1";"9";"0";"[1,6]";"2";"9";"1"
"804";"11";"13";"1";"7";"1";"1";"9";"0";"[2,4,9]";"1";"0";"1"
"805";"11";"14";"1";"7";"1";"1";"9";"0";"[2,4,9]";"1";"0";"1"
"806";"16";"219";"1";"9";"2";"1";"9";"2";"[2,7,10]";"2";"0";"1"
"807";"16";"220";"1";"9";"2";"1";"9";"2";"[2,7,10]";"2";"0";"1"
"808";"25";"18";"1";"2";"1";"1";"9";"1";"[6,7,8,9,10]";"1";"0";"1"
"809";"17";"19";"1";"1";"1";"1";"9";"0";"[5,10]";"2";"0";"1"
"810";"25";"19";"1";"2";"1";"1";"9";"1";"[6,7,8,9,10]";"1";"0";"1"
"811";"19";"223";"1";"1";"4";"1";"9";"0";"[5,10]";"2";"0";"1"
"812";"17";"20";"1";"1";"1";"1";"9";"0";"[5,10]";"2";"0";"1"
"813";"19";"224";"1";"1";"4";"1";"9";"0";"[5,10]";"2";"0";"1"
"814";"32";"28";"1";"8";"1";"1";"9";"0";"[2,3,4,6,10]";"1";"4";"1"
"815";"32";"30";"1";"8";"1";"1";"9";"0";"[2,3,4,6,10]";"1";"8";"1"
"816";"24";"233";"1";"5";"4";"1";"9";"2";"[1,6]";"2";"6";"1"
"817";"32";"31";"1";"8";"1";"1";"9";"0";"[2,3,4,6,10]";"1";"9";"1"
"818";"24";"234";"1";"5";"4";"1";"9";"2";"[1,6]";"2";"7";"1"
"819";"7";"234";"1";"6";"4";"1";"9";"1";"[2,5,8,10]";"0";"0";"1"
"820";"0";"30";"1";"6";"4";"1";"9";"1";"[2,5,8,10]";"1";"0";"0"
"821";"2";"236";"1";"7";"4";"1";"10";"0";"[2,4,9]";"2";"0";"1"
"822";"36";"236";"1";"10";"3";"1";"10";"1";"[1,2,3,6,8,9]";"1";"0";"1"
"823";"10";"236";"1";"6";"2";"1";"10";"2";"[2,5,8,10]";"2";"0";"1"
"824";"33";"236";"1";"2";"2";"1";"10";"1";"[6,7,8,9,10]";"2";"0";"1"
"825";"39";"236";"1";"3";"2";"1";"10";"2";"[8,10]";"2";"0";"1"
"826";"4";"236";"1";"1";"3";"1";"10";"0";"[5,10]";"1";"0";"1"
"827";"37";"236";"1";"6";"3";"1";"10";"0";"[2,5,8,10]";"1";"0";"1"
"828";"8";"3";"1";"6";"1";"1";"10";"0";"[2,5,8,10]";"1";"0";"1"
"829";"2";"237";"1";"7";"4";"1";"10";"0";"[2,4,9]";"2";"0";"1"
"830";"34";"3";"1";"10";"1";"1";"10";"1";"[1,2,3,6,8,9]";"2";"0";"1"
"831";"17";"3";"1";"1";"1";"1";"10";"0";"[5,10]";"2";"0";"1"
"832";"20";"237";"1";"9";"4";"1";"10";"2";"[2,7,10]";"2";"0";"1"
"833";"13";"237";"1";"3";"4";"1";"10";"0";"[8,10]";"2";"0";"1"
"834";"36";"237";"1";"10";"3";"1";"10";"1";"[1,2,3,6,8,9]";"1";"0";"1"
"835";"10";"237";"1";"6";"2";"1";"10";"2";"[2,5,8,10]";"2";"0";"1"
"836";"33";"237";"1";"2";"2";"1";"10";"1";"[6,7,8,9,10]";"2";"0";"1"
"837";"32";"3";"1";"8";"1";"1";"10";"0";"[2,3,4,6,10]";"0";"10";"1"
"838";"39";"237";"1";"3";"2";"1";"10";"2";"[8,10]";"2";"0";"1"
"839";"25";"3";"1";"2";"1";"1";"10";"1";"[6,7,8,9,10]";"1";"0";"1"
"840";"1";"237";"1";"9";"3";"1";"10";"0";"[2,7,10]";"1";"0";"1"
"841";"4";"237";"1";"1";"3";"1";"10";"0";"[5,10]";"1";"0";"1"
"842";"37";"237";"1";"6";"3";"1";"10";"0";"[2,5,8,10]";"1";"0";"1"
"843";"24";"238";"1";"5";"4";"1";"10";"2";"[1,6]";"2";"0";"1"
"844";"8";"4";"1";"6";"1";"1";"10";"0";"[2,5,8,10]";"1";"0";"1"
"845";"6";"238";"1";"4";"3";"1";"10";"0";"[7,8]";"1";"0";"1"
"846";"9";"238";"1";"2";"4";"1";"10";"2";"[6,7,8,9,10]";"2";"0";"1"
"847";"34";"4";"1";"10";"1";"1";"10";"1";"[1,2,3,6,8,9]";"2";"0";"1"
"848";"22";"4";"1";"4";"1";"1";"10";"2";"[7,8]";"1";"0";"1"
"849";"17";"4";"1";"1";"1";"1";"10";"0";"[5,10]";"2";"0";"1"
"850";"40";"238";"1";"8";"2";"1";"10";"2";"[2,3,4,6,10]";"2";"0";"1"
"851";"28";"238";"1";"4";"2";"1";"10";"2";"[7,8]";"2";"0";"1"
"852";"20";"238";"1";"9";"4";"1";"10";"2";"[2,7,10]";"2";"0";"1"
"853";"13";"238";"1";"3";"4";"1";"10";"0";"[8,10]";"2";"0";"1"
"854";"25";"4";"1";"2";"1";"1";"10";"1";"[6,7,8,9,10]";"1";"0";"1"
"855";"1";"238";"1";"9";"3";"1";"10";"0";"[2,7,10]";"1";"0";"1"
"856";"30";"238";"1";"4";"4";"1";"10";"1";"[7,8]";"2";"0";"1"
"857";"7";"238";"1";"6";"4";"1";"10";"1";"[2,5,8,10]";"1";"0";"1"
"858";"24";"239";"1";"5";"4";"1";"10";"2";"[1,6]";"2";"0";"1"
"859";"21";"239";"1";"7";"3";"1";"10";"1";"[2,4,9]";"1";"0";"1"
"860";"6";"239";"1";"4";"3";"1";"10";"0";"[7,8]";"1";"0";"1"
"861";"16";"239";"1";"9";"2";"1";"10";"2";"[2,7,10]";"2";"0";"1"
"862";"9";"239";"1";"2";"4";"1";"10";"2";"[6,7,8,9,10]";"2";"0";"1"
"863";"29";"239";"1";"10";"2";"1";"10";"2";"[1,2,3,6,8,9]";"2";"0";"1"
"864";"22";"5";"1";"4";"1";"1";"10";"2";"[7,8]";"1";"0";"1"
"865";"40";"239";"1";"8";"2";"1";"10";"2";"[2,3,4,6,10]";"2";"0";"1"
"866";"28";"239";"1";"4";"2";"1";"10";"2";"[7,8]";"2";"0";"1"
"867";"19";"239";"1";"1";"4";"1";"10";"0";"[5,10]";"2";"0";"1"
"868";"23";"239";"1";"5";"2";"1";"10";"0";"[1,6]";"2";"0";"1"
"869";"30";"239";"1";"4";"4";"1";"10";"1";"[7,8]";"2";"0";"1"
"870";"7";"239";"1";"6";"4";"1";"10";"1";"[2,5,8,10]";"1";"0";"1"
"871";"21";"240";"1";"7";"3";"1";"10";"1";"[2,4,9]";"1";"0";"1"
"872";"27";"6";"1";"3";"1";"1";"10";"1";"[8,10]";"1";"0";"1"
"873";"16";"240";"1";"9";"2";"1";"10";"2";"[2,7,10]";"2";"0";"1"
"874";"29";"240";"1";"10";"2";"1";"10";"2";"[1,2,3,6,8,9]";"2";"0";"1"
"875";"38";"240";"1";"3";"3";"1";"10";"2";"[8,10]";"1";"0";"1"
"876";"19";"240";"1";"1";"4";"1";"10";"0";"[5,10]";"2";"0";"1"
"877";"23";"240";"1";"5";"2";"1";"10";"0";"[1,6]";"2";"0";"1"
"878";"5";"240";"1";"2";"3";"1";"10";"1";"[6,7,8,9,10]";"1";"0";"1"
"879";"27";"7";"1";"3";"1";"1";"10";"1";"[8,10]";"1";"0";"1"
"880";"35";"7";"1";"5";"1";"1";"10";"1";"[1,6]";"1";"0";"1"
"881";"38";"241";"1";"3";"3";"1";"10";"2";"[8,10]";"1";"0";"1"
"882";"13";"241";"1";"3";"4";"1";"10";"0";"[8,10]";"2";"10";"1"
"883";"5";"241";"1";"2";"3";"1";"10";"1";"[6,7,8,9,10]";"1";"0";"1"
"884";"35";"8";"1";"5";"1";"1";"10";"1";"[1,6]";"1";"0";"1"
"885";"32";"8";"1";"8";"1";"1";"10";"0";"[2,3,4,6,10]";"1";"10";"1"
"886";"32";"9";"1";"8";"1";"1";"10";"0";"[2,3,4,6,10]";"1";"10";"1"
"887";"31";"244";"1";"8";"3";"1";"10";"2";"[2,3,4,6,10]";"2";"0";"1"
"888";"18";"244";"1";"10";"4";"1";"10";"2";"[1,2,3,6,8,9]";"2";"0";"1"
"889";"31";"245";"1";"8";"3";"1";"10";"2";"[2,3,4,6,10]";"2";"0";"1"
"890";"26";"245";"1";"7";"2";"1";"10";"2";"[2,4,9]";"2";"0";"1"
"891";"18";"245";"1";"10";"4";"1";"10";"2";"[1,2,3,6,8,9]";"2";"0";"1"
"892";"3";"246";"1";"1";"2";"1";"10";"1";"[5,10]";"2";"0";"1"
"893";"26";"246";"1";"7";"2";"1";"10";"2";"[2,4,9]";"2";"0";"1"
"894";"3";"247";"1";"1";"2";"1";"10";"1";"[5,10]";"2";"0";"1"
"895";"11";"13";"1";"7";"1";"1";"10";"0";"[2,4,9]";"2";"0";"1"
"896";"12";"247";"1";"8";"4";"1";"10";"2";"[2,3,4,6,10]";"2";"0";"1"
"897";"11";"14";"1";"7";"1";"1";"10";"0";"[2,4,9]";"2";"0";"1"
"898";"12";"248";"1";"8";"4";"1";"10";"2";"[2,3,4,6,10]";"2";"0";"1"
"899";"14";"259";"1";"5";"3";"1";"10";"0";"[1,6]";"1";"0";"1"
"900";"14";"260";"1";"5";"3";"1";"10";"0";"[1,6]";"1";"0";"1"
"901";"15";"31";"1";"9";"1";"1";"10";"1";"[2,7,10]";"0";"0";"1"
"902";"0";"30";"1";"9";"1";"1";"10";"1";"[2,7,10]";"2";"0";"0"
"903";"10";"267";"1";"6";"2";"1";"11";"2";"[2,5,8,10]";"2";"0";"1"
"904";"26";"267";"1";"7";"2";"1";"11";"2";"[2,4,9]";"2";"0";"1"
"905";"30";"267";"1";"4";"4";"1";"11";"1";"[7,8]";"2";"0";"1"
"906";"6";"267";"1";"4";"3";"1";"11";"0";"[7,8]";"1";"0";"1"
"907";"35";"2";"1";"5";"1";"1";"11";"1";"[1,6]";"1";"0";"1"
"908";"16";"267";"1";"9";"2";"1";"11";"2";"[2,7,10]";"2";"0";"1"
"909";"38";"267";"1";"3";"3";"1";"11";"2";"[8,10]";"1";"0";"1"
"910";"40";"267";"1";"8";"2";"1";"11";"2";"[2,3,4,6,10]";"2";"0";"1"
"911";"24";"267";"1";"5";"4";"1";"11";"2";"[1,6]";"2";"0";"1"
"912";"39";"267";"1";"3";"2";"1";"11";"2";"[8,10]";"2";"0";"1"
"913";"23";"267";"1";"5";"2";"1";"11";"0";"[1,6]";"2";"0";"1"
"914";"7";"268";"1";"6";"4";"1";"11";"1";"[2,5,8,10]";"1";"0";"1"
"915";"10";"268";"1";"6";"2";"1";"11";"2";"[2,5,8,10]";"2";"0";"1"
"916";"1";"268";"1";"9";"3";"1";"11";"0";"[2,7,10]";"1";"0";"1"
"917";"36";"268";"1";"10";"3";"1";"11";"1";"[1,2,3,6,8,9]";"1";"0";"1"
"918";"20";"268";"1";"9";"4";"1";"11";"2";"[2,7,10]";"2";"0";"1"
"919";"26";"268";"1";"7";"2";"1";"11";"2";"[2,4,9]";"2";"0";"1"
"920";"30";"268";"1";"4";"4";"1";"11";"1";"[7,8]";"2";"0";"1"
"921";"6";"268";"1";"4";"3";"1";"11";"0";"[7,8]";"1";"0";"1"
"922";"5";"268";"1";"2";"3";"1";"11";"1";"[6,7,8,9,10]";"1";"0";"1"
"923";"13";"268";"1";"3";"4";"1";"11";"0";"[8,10]";"2";"0";"1"
"924";"35";"3";"1";"5";"1";"1";"11";"1";"[1,6]";"1";"0";"1"
"925";"16";"268";"1";"9";"2";"1";"11";"2";"[2,7,10]";"2";"0";"1"
"926";"2";"268";"1";"7";"4";"1";"11";"0";"[2,4,9]";"2";"0";"1"
"927";"38";"268";"1";"3";"3";"1";"11";"2";"[8,10]";"1";"0";"1"
"928";"25";"3";"1";"2";"1";"1";"11";"1";"[6,7,8,9,10]";"1";"0";"1"
"929";"14";"268";"1";"5";"3";"1";"11";"0";"[1,6]";"1";"0";"1"
"930";"40";"268";"1";"8";"2";"1";"11";"2";"[2,3,4,6,10]";"2";"0";"1"
"931";"4";"268";"1";"1";"3";"1";"11";"0";"[5,10]";"1";"0";"1"
"932";"24";"268";"1";"5";"4";"1";"11";"2";"[1,6]";"2";"0";"1"
"933";"21";"268";"1";"7";"3";"1";"11";"1";"[2,4,9]";"1";"0";"1"
"934";"39";"268";"1";"3";"2";"1";"11";"2";"[8,10]";"2";"0";"1"
"935";"23";"268";"1";"5";"2";"1";"11";"0";"[1,6]";"2";"0";"1"
"936";"7";"269";"1";"6";"4";"1";"11";"1";"[2,5,8,10]";"1";"0";"1"
"937";"32";"4";"1";"8";"1";"1";"11";"0";"[2,3,4,6,10]";"1";"0";"1"
"938";"1";"269";"1";"9";"3";"1";"11";"0";"[2,7,10]";"1";"0";"1"
"939";"36";"269";"1";"10";"3";"1";"11";"1";"[1,2,3,6,8,9]";"1";"0";"1"
"940";"20";"269";"1";"9";"4";"1";"11";"2";"[2,7,10]";"2";"0";"1"
"941";"5";"269";"1";"2";"3";"1";"11";"1";"[6,7,8,9,10]";"1";"0";"1"
"942";"13";"269";"1";"3";"4";"1";"11";"0";"[8,10]";"2";"0";"1"
"943";"33";"269";"1";"2";"2";"1";"11";"1";"[6,7,8,9,10]";"2";"0";"1"
"944";"2";"269";"1";"7";"4";"1";"11";"0";"[2,4,9]";"2";"0";"1"
"945";"25";"4";"1";"2";"1";"1";"11";"1";"[6,7,8,9,10]";"1";"0";"1"
"946";"14";"269";"1";"5";"3";"1";"11";"0";"[1,6]";"1";"0";"1"
"947";"15";"4";"1";"9";"1";"1";"11";"1";"[2,7,10]";"2";"0";"1"
"948";"4";"269";"1";"1";"3";"1";"11";"0";"[5,10]";"1";"0";"1"
"949";"11";"4";"1";"7";"1";"1";"11";"0";"[2,4,9]";"1";"0";"1"
"950";"21";"269";"1";"7";"3";"1";"11";"1";"[2,4,9]";"1";"0";"1"
"951";"29";"269";"1";"10";"2";"1";"11";"2";"[1,2,3,6,8,9]";"2";"0";"1"
"952";"12";"269";"1";"8";"4";"1";"11";"2";"[2,3,4,6,10]";"2";"0";"1"
"953";"8";"4";"1";"6";"1";"1";"11";"0";"[2,5,8,10]";"1";"0";"1"
"954";"19";"270";"1";"1";"4";"1";"11";"0";"[5,10]";"2";"0";"1"
"955";"32";"5";"1";"8";"1";"1";"11";"0";"[2,3,4,6,10]";"1";"0";"1"
"956";"33";"270";"1";"2";"2";"1";"11";"1";"[6,7,8,9,10]";"2";"0";"1"
"957";"15";"5";"1";"9";"1";"1";"11";"1";"[2,7,10]";"2";"0";"1"
"958";"3";"270";"1";"1";"2";"1";"11";"1";"[5,10]";"2";"0";"1"
"959";"11";"5";"1";"7";"1";"1";"11";"0";"[2,4,9]";"1";"0";"1"
"960";"29";"270";"1";"10";"2";"1";"11";"2";"[1,2,3,6,8,9]";"2";"0";"1"
"961";"9";"270";"1";"2";"4";"1";"11";"2";"[6,7,8,9,10]";"2";"0";"1"
"962";"12";"270";"1";"8";"4";"1";"11";"2";"[2,3,4,6,10]";"2";"0";"1"
"963";"37";"270";"1";"6";"3";"1";"11";"0";"[2,5,8,10]";"1";"0";"1"
"964";"28";"270";"1";"4";"2";"1";"11";"2";"[7,8]";"2";"0";"1"
"965";"8";"5";"1";"6";"1";"1";"11";"0";"[2,5,8,10]";"1";"0";"1"
"966";"27";"5";"1";"3";"1";"1";"11";"1";"[8,10]";"1";"0";"1"
"967";"19";"271";"1";"1";"4";"1";"11";"0";"[5,10]";"2";"0";"1"
"968";"18";"271";"1";"10";"4";"1";"11";"2";"[1,2,3,6,8,9]";"2";"0";"1"
"969";"3";"271";"1";"1";"2";"1";"11";"1";"[5,10]";"2";"0";"1"
"970";"9";"271";"1";"2";"4";"1";"11";"2";"[6,7,8,9,10]";"2";"0";"1"
"971";"37";"271";"1";"6";"3";"1";"11";"0";"[2,5,8,10]";"1";"0";"1"
"972";"28";"271";"1";"4";"2";"1";"11";"2";"[7,8]";"2";"0";"1"
"973";"27";"6";"1";"3";"1";"1";"11";"1";"[8,10]";"1";"0";"1"
"974";"18";"272";"1";"10";"4";"1";"11";"2";"[1,2,3,6,8,9]";"2";"0";"1"
"975";"22";"7";"1";"4";"1";"1";"11";"2";"[7,8]";"1";"0";"1"
"976";"17";"8";"1";"1";"1";"1";"11";"0";"[5,10]";"2";"0";"1"
"977";"34";"8";"1";"10";"1";"1";"11";"1";"[1,2,3,6,8,9]";"2";"0";"1"
"978";"22";"8";"1";"4";"1";"1";"11";"2";"[7,8]";"1";"0";"1"
"979";"17";"9";"1";"1";"1";"1";"11";"0";"[5,10]";"2";"0";"1"
"980";"34";"9";"1";"10";"1";"1";"11";"1";"[1,2,3,6,8,9]";"2";"0";"1"
"981";"31";"279";"1";"8";"3";"1";"11";"2";"[2,3,4,6,10]";"1";"0";"1"
"982";"31";"280";"1";"8";"3";"1";"11";"2";"[2,3,4,6,10]";"1";"0";"1"
"983";"22";"2";"1";"4";"1";"1";"12";"2";"[7,8]";"1";"0";"1"
"984";"40";"282";"1";"8";"2";"1";"12";"2";"[2,3,4,6,10]";"2";"0";"1"
"985";"2";"282";"1";"7";"4";"1";"12";"0";"[2,4,9]";"2";"0";"1"
"986";"6";"282";"1";"4";"3";"1";"12";"0";"[7,8]";"1";"0";"1"
"987";"27";"2";"1";"3";"1";"1";"12";"1";"[8,10]";"1";"0";"1"
"988";"8";"2";"1";"6";"1";"1";"12";"0";"[2,5,8,10]";"1";"0";"1"
"989";"35";"2";"1";"5";"1";"1";"12";"1";"[1,6]";"1";"0";"1"
"990";"26";"282";"1";"7";"2";"1";"12";"2";"[2,4,9]";"2";"0";"1"
"991";"33";"282";"1";"2";"2";"1";"12";"1";"[6,7,8,9,10]";"2";"0";"1"
"992";"10";"282";"1";"6";"2";"1";"12";"2";"[2,5,8,10]";"2";"0";"1"
"993";"3";"282";"1";"1";"2";"1";"12";"1";"[5,10]";"2";"0";"1"
"994";"9";"282";"1";"2";"4";"1";"12";"2";"[6,7,8,9,10]";"2";"0";"1"
"995";"16";"283";"1";"9";"2";"1";"12";"2";"[2,7,10]";"2";"0";"1"
"996";"37";"283";"1";"6";"3";"1";"12";"0";"[2,5,8,10]";"1";"0";"1"
"997";"20";"283";"1";"9";"4";"1";"12";"2";"[2,7,10]";"2";"0";"1"
"998";"1";"283";"1";"9";"3";"1";"12";"0";"[2,7,10]";"1";"0";"1"
"999";"32";"3";"1";"8";"1";"1";"12";"0";"[2,3,4,6,10]";"1";"0";"1"
"1000";"22";"3";"1";"4";"1";"1";"12";"2";"[7,8]";"1";"0";"1"
"1001";"40";"283";"1";"8";"2";"1";"12";"2";"[2,3,4,6,10]";"2";"0";"1"
"1002";"2";"283";"1";"7";"4";"1";"12";"0";"[2,4,9]";"2";"0";"1"
"1003";"6";"283";"1";"4";"3";"1";"12";"0";"[7,8]";"1";"0";"1"
"1004";"28";"283";"1";"4";"2";"1";"12";"2";"[7,8]";"2";"0";"1"
"1005";"19";"283";"1";"1";"4";"1";"12";"0";"[5,10]";"2";"0";"1"
"1006";"27";"3";"1";"3";"1";"1";"12";"1";"[8,10]";"1";"0";"1"
"1007";"8";"3";"1";"6";"1";"1";"12";"0";"[2,5,8,10]";"1";"0";"1"
"1008";"14";"283";"1";"5";"3";"1";"12";"0";"[1,6]";"1";"0";"1"
"1009";"35";"3";"1";"5";"1";"1";"12";"1";"[1,6]";"1";"0";"1"
"1010";"23";"283";"1";"5";"2";"1";"12";"0";"[1,6]";"2";"0";"1"
"1011";"24";"283";"1";"5";"4";"1";"12";"2";"[1,6]";"2";"0";"1"
"1012";"26";"283";"1";"7";"2";"1";"12";"2";"[2,4,9]";"2";"0";"1"
"1013";"36";"283";"1";"10";"3";"1";"12";"1";"[1,2,3,6,8,9]";"1";"0";"1"
"1014";"33";"283";"1";"2";"2";"1";"12";"1";"[6,7,8,9,10]";"2";"0";"1"
"1015";"10";"283";"1";"6";"2";"1";"12";"2";"[2,5,8,10]";"2";"0";"1"
"1016";"34";"3";"1";"10";"1";"1";"12";"1";"[1,2,3,6,8,9]";"2";"0";"1"
"1017";"21";"283";"1";"7";"3";"1";"12";"1";"[2,4,9]";"1";"0";"1"
"1018";"3";"283";"1";"1";"2";"1";"12";"1";"[5,10]";"2";"0";"1"
"1019";"9";"284";"1";"2";"4";"1";"12";"2";"[6,7,8,9,10]";"2";"0";"1"
"1020";"16";"284";"1";"9";"2";"1";"12";"2";"[2,7,10]";"2";"0";"1"
"1021";"37";"284";"1";"6";"3";"1";"12";"0";"[2,5,8,10]";"1";"0";"1"
"1022";"12";"284";"1";"8";"4";"1";"12";"2";"[2,3,4,6,10]";"2";"0";"1"
"1023";"17";"4";"1";"1";"1";"1";"12";"0";"[5,10]";"2";"0";"1"
"1024";"20";"284";"1";"9";"4";"1";"12";"2";"[2,7,10]";"2";"0";"1"
"1025";"1";"284";"1";"9";"3";"1";"12";"0";"[2,7,10]";"1";"0";"1"
"1026";"4";"284";"1";"1";"3";"1";"12";"0";"[5,10]";"1";"0";"1"
"1027";"32";"4";"1";"8";"1";"1";"12";"0";"[2,3,4,6,10]";"1";"0";"1"
"1028";"5";"284";"1";"2";"3";"1";"12";"1";"[6,7,8,9,10]";"1";"0";"1"
"1029";"28";"284";"1";"4";"2";"1";"12";"2";"[7,8]";"2";"0";"1"
"1030";"19";"284";"1";"1";"4";"1";"12";"0";"[5,10]";"2";"0";"1"
"1031";"14";"284";"1";"5";"3";"1";"12";"0";"[1,6]";"1";"0";"1"
"1032";"11";"4";"1";"7";"1";"1";"12";"0";"[2,4,9]";"1";"0";"1"
"1033";"23";"284";"1";"5";"2";"1";"12";"0";"[1,6]";"2";"0";"1"
"1034";"24";"284";"1";"5";"4";"1";"12";"2";"[1,6]";"2";"0";"1"
"1035";"36";"284";"1";"10";"3";"1";"12";"1";"[1,2,3,6,8,9]";"1";"0";"1"
"1036";"34";"4";"1";"10";"1";"1";"12";"1";"[1,2,3,6,8,9]";"2";"0";"1"
"1037";"21";"284";"1";"7";"3";"1";"12";"1";"[2,4,9]";"1";"0";"1"
"1038";"15";"5";"1";"9";"1";"1";"12";"1";"[2,7,10]";"2";"0";"1"
"1039";"38";"285";"1";"3";"3";"1";"12";"2";"[8,10]";"1";"0";"1"
"1040";"12";"285";"1";"8";"4";"1";"12";"2";"[2,3,4,6,10]";"2";"0";"1"
"1041";"18";"285";"1";"10";"4";"1";"12";"2";"[1,2,3,6,8,9]";"2";"0";"1"
"1042";"17";"5";"1";"1";"1";"1";"12";"0";"[5,10]";"2";"0";"1"
"1043";"4";"285";"1";"1";"3";"1";"12";"0";"[5,10]";"1";"0";"1"
"1044";"30";"285";"1";"4";"4";"1";"12";"1";"[7,8]";"2";"0";"1"
"1045";"5";"285";"1";"2";"3";"1";"12";"1";"[6,7,8,9,10]";"1";"0";"1"
"1046";"11";"5";"1";"7";"1";"1";"12";"0";"[2,4,9]";"1";"0";"1"
"1047";"15";"6";"1";"9";"1";"1";"12";"1";"[2,7,10]";"2";"0";"1"
"1048";"38";"286";"1";"3";"3";"1";"12";"2";"[8,10]";"1";"0";"1"
"1049";"18";"286";"1";"10";"4";"1";"12";"2";"[1,2,3,6,8,9]";"2";"0";"1"
"1050";"31";"286";"1";"8";"3";"1";"12";"2";"[2,3,4,6,10]";"2";"0";"1"
"1051";"30";"286";"1";"4";"4";"1";"12";"1";"[7,8]";"2";"0";"1"
"1052";"13";"286";"1";"3";"4";"1";"12";"0";"[8,10]";"2";"0";"1"
"1053";"31";"287";"1";"8";"3";"1";"12";"2";"[2,3,4,6,10]";"2";"0";"1"
"1054";"29";"287";"1";"10";"2";"1";"12";"2";"[1,2,3,6,8,9]";"2";"0";"1"
"1055";"13";"287";"1";"3";"4";"1";"12";"0";"[8,10]";"2";"0";"1"
"1056";"29";"288";"1";"10";"2";"1";"12";"2";"[1,2,3,6,8,9]";"2";"0";"1"
"1057";"7";"290";"1";"6";"4";"1";"12";"1";"[2,5,8,10]";"0";"5";"1"
"1058";"39";"290";"1";"3";"2";"1";"12";"2";"[8,10]";"2";"0";"1"
"1059";"39";"291";"1";"3";"2";"1";"12";"2";"[8,10]";"2";"0";"1"
"1060";"7";"293";"1";"6";"4";"1";"12";"1";"[2,5,8,10]";"0";"12";"1"
"1061";"7";"294";"1";"6";"4";"1";"12";"1";"[2,5,8,10]";"1";"12";"1"
"1062";"7";"295";"1";"6";"4";"1";"12";"1";"[2,5,8,10]";"1";"12";"1"
"1063";"25";"15";"1";"2";"1";"1";"12";"1";"[6,7,8,9,10]";"1";"0";"1"
"1064";"25";"16";"1";"2";"1";"1";"12";"1";"[6,7,8,9,10]";"1";"0";"1"
"1065";"16";"0";"1";"9";"2";"2";"12";"1";"[2,7,10]";"2";"0";"1"
"1066";"6";"0";"1";"10";"3";"2";"12";"1";"[1,2,3,6,8,9]";"1";"0";"1"
"1067";"25";"0";"1";"9";"1";"2";"12";"2";"[2,7,10]";"2";"0";"1"
"1068";"28";"0";"1";"6";"2";"2";"12";"2";"[2,5,8,10]";"2";"0";"1"
"1069";"10";"0";"1";"10";"2";"2";"12";"1";"[1,2,3,6,8,9]";"2";"0";"1"
"1070";"36";"0";"1";"7";"3";"2";"12";"2";"[2,4,9]";"1";"0";"1"
"1071";"23";"0";"1";"4";"2";"2";"12";"0";"[7,8]";"2";"0";"1"
"1072";"17";"0";"1";"7";"1";"2";"12";"1";"[2,4,9]";"1";"0";"1"
"1073";"26";"0";"1";"1";"2";"2";"12";"1";"[5,10]";"2";"0";"1"
"1074";"4";"0";"1";"3";"3";"2";"12";"1";"[8,10]";"1";"0";"1"
"1075";"33";"0";"1";"5";"2";"2";"12";"0";"[1,6]";"2";"0";"1"
"1076";"29";"0";"1";"3";"2";"2";"12";"1";"[8,10]";"2";"0";"1"
"1077";"31";"0";"1";"4";"3";"2";"12";"1";"[7,8]";"1";"0";"1"
"1078";"21";"0";"1";"1";"3";"2";"12";"0";"[5,10]";"1";"0";"1"
"1079";"32";"0";"1";"10";"1";"2";"12";"0";"[1,2,3,6,8,9]";"2";"0";"1"
"1080";"14";"0";"1";"6";"3";"2";"12";"0";"[2,5,8,10]";"1";"0";"1"
"1081";"38";"0";"1";"2";"3";"2";"12";"1";"[6,7,8,9,10]";"1";"0";"1"
"1082";"22";"0";"1";"6";"1";"2";"12";"2";"[2,5,8,10]";"1";"0";"1"
"1083";"24";"0";"1";"2";"4";"2";"12";"1";"[6,7,8,9,10]";"2";"0";"1"
"1084";"9";"0";"1";"3";"4";"2";"12";"0";"[8,10]";"2";"0";"1"
"1085";"35";"0";"1";"1";"1";"2";"12";"1";"[5,10]";"2";"0";"1"
"1086";"34";"0";"1";"5";"1";"2";"12";"0";"[1,6]";"1";"0";"1"
"1087";"13";"0";"1";"5";"4";"2";"12";"0";"[1,6]";"2";"0";"1"
"1088";"20";"0";"1";"6";"4";"2";"12";"2";"[2,5,8,10]";"1";"12";"1"
"1089";"37";"0";"1";"9";"3";"2";"12";"1";"[2,7,10]";"1";"0";"1"
"1090";"1";"0";"1";"8";"3";"2";"12";"0";"[2,3,4,6,10]";"2";"0";"1"
"1091";"40";"0";"1";"7";"2";"2";"12";"1";"[2,4,9]";"2";"0";"1"
"1092";"3";"0";"1";"2";"2";"2";"12";"0";"[6,7,8,9,10]";"2";"0";"1"
"1093";"12";"0";"1";"1";"4";"2";"12";"0";"[5,10]";"2";"0";"1"
"1094";"39";"0";"1";"8";"2";"2";"12";"2";"[2,3,4,6,10]";"2";"0";"1"
"1095";"8";"0";"1";"3";"1";"2";"12";"2";"[8,10]";"1";"0";"1"
"1096";"11";"0";"1";"8";"1";"2";"12";"2";"[2,3,4,6,10]";"1";"0";"1"
"1097";"5";"0";"1";"5";"3";"2";"12";"1";"[1,6]";"1";"0";"1"
"1098";"7";"0";"1";"4";"4";"2";"12";"1";"[7,8]";"2";"0";"1"
"1099";"27";"0";"1";"4";"1";"2";"12";"2";"[7,8]";"1";"0";"1"
"1100";"18";"0";"1";"8";"4";"2";"12";"1";"[2,3,4,6,10]";"2";"0";"1"
"1101";"2";"0";"1";"9";"4";"2";"12";"2";"[2,7,10]";"2";"0";"1"
"1102";"15";"0";"1";"2";"1";"2";"12";"1";"[6,7,8,9,10]";"1";"0";"1"
"1103";"19";"0";"1";"10";"4";"2";"12";"2";"[1,2,3,6,8,9]";"2";"0";"1"
"1104";"30";"0";"1";"7";"4";"2";"12";"0";"[2,4,9]";"2";"0";"1"
"1105";"24";"2";"1";"2";"4";"2";"1";"1";"[6,7,8,9,10]";"1";"0";"1"
"1106";"35";"2";"1";"1";"1";"2";"1";"1";"[5,10]";"1";"0";"1"
"1107";"24";"3";"1";"2";"4";"2";"1";"1";"[6,7,8,9,10]";"1";"0";"1"
"1108";"35";"3";"1";"1";"1";"2";"1";"1";"[5,10]";"1";"0";"1"
"1109";"17";"3";"1";"7";"1";"2";"1";"1";"[2,4,9]";"1";"0";"1"
"1110";"11";"3";"1";"8";"1";"2";"1";"2";"[2,3,4,6,10]";"2";"0";"1"
"1111";"8";"3";"1";"3";"1";"2";"1";"2";"[8,10]";"2";"0";"1"
"1112";"25";"3";"1";"9";"1";"2";"1";"2";"[2,7,10]";"2";"0";"1"
"1113";"18";"4";"1";"8";"4";"2";"1";"1";"[2,3,4,6,10]";"2";"0";"1"
"1114";"36";"4";"1";"7";"3";"2";"1";"2";"[2,4,9]";"2";"0";"1"
"1115";"38";"4";"1";"2";"3";"2";"1";"1";"[6,7,8,9,10]";"1";"0";"1"
"1116";"16";"4";"1";"9";"2";"2";"1";"1";"[2,7,10]";"2";"0";"1"
"1117";"2";"4";"1";"9";"4";"2";"1";"2";"[2,7,10]";"2";"0";"1"
"1118";"11";"4";"1";"8";"1";"2";"1";"2";"[2,3,4,6,10]";"2";"0";"1"
"1119";"8";"4";"1";"3";"1";"2";"1";"2";"[8,10]";"2";"0";"1"
"1120";"17";"4";"1";"7";"1";"2";"1";"1";"[2,4,9]";"1";"0";"1"
"1121";"25";"4";"1";"9";"1";"2";"1";"2";"[2,7,10]";"2";"0";"1"
"1122";"15";"4";"1";"2";"1";"2";"1";"1";"[6,7,8,9,10]";"2";"0";"1"
"1123";"34";"4";"1";"5";"1";"2";"1";"0";"[1,6]";"1";"0";"1"
"1124";"37";"4";"1";"9";"3";"2";"1";"1";"[2,7,10]";"2";"0";"1"
"1125";"31";"5";"1";"4";"3";"2";"1";"1";"[7,8]";"1";"0";"1"
"1126";"18";"5";"1";"8";"4";"2";"1";"1";"[2,3,4,6,10]";"2";"0";"1"
"1127";"36";"5";"1";"7";"3";"2";"1";"2";"[2,4,9]";"2";"0";"1"
"1128";"38";"5";"1";"2";"3";"2";"1";"1";"[6,7,8,9,10]";"1";"0";"1"
"1129";"16";"5";"1";"9";"2";"2";"1";"1";"[2,7,10]";"2";"0";"1"
"1130";"2";"5";"1";"9";"4";"2";"1";"2";"[2,7,10]";"2";"0";"1"
"1131";"22";"5";"1";"6";"1";"2";"1";"2";"[2,5,8,10]";"2";"0";"1"
"1132";"15";"5";"1";"2";"1";"2";"1";"1";"[6,7,8,9,10]";"2";"0";"1"
"1133";"34";"5";"1";"5";"1";"2";"1";"0";"[1,6]";"1";"0";"1"
"1134";"37";"5";"1";"9";"3";"2";"1";"1";"[2,7,10]";"2";"0";"1"
"1135";"6";"6";"1";"10";"3";"2";"1";"1";"[1,2,3,6,8,9]";"1";"0";"1"
"1136";"31";"6";"1";"4";"3";"2";"1";"1";"[7,8]";"1";"0";"1"
"1137";"10";"6";"1";"10";"2";"2";"1";"1";"[1,2,3,6,8,9]";"1";"0";"1"
"1138";"27";"6";"1";"4";"1";"2";"1";"2";"[7,8]";"2";"0";"1"
"1139";"32";"6";"1";"10";"1";"2";"1";"0";"[1,2,3,6,8,9]";"2";"0";"1"
"1140";"28";"6";"1";"6";"2";"2";"1";"2";"[2,5,8,10]";"2";"0";"1"
"1141";"39";"6";"1";"8";"2";"2";"1";"2";"[2,3,4,6,10]";"2";"0";"1"
"1142";"1";"6";"1";"8";"3";"2";"1";"0";"[2,3,4,6,10]";"1";"0";"1"
"1143";"9";"6";"1";"3";"4";"2";"1";"0";"[8,10]";"2";"0";"1"
"1144";"22";"6";"1";"6";"1";"2";"1";"2";"[2,5,8,10]";"2";"0";"1"
"1145";"13";"6";"1";"5";"4";"2";"1";"0";"[1,6]";"2";"0";"1"
"1146";"6";"7";"1";"10";"3";"2";"1";"1";"[1,2,3,6,8,9]";"1";"0";"1"
"1147";"10";"7";"1";"10";"2";"2";"1";"1";"[1,2,3,6,8,9]";"1";"0";"1"
"1148";"27";"7";"1";"4";"1";"2";"1";"2";"[7,8]";"2";"0";"1"
"1149";"40";"7";"1";"7";"2";"2";"1";"1";"[2,4,9]";"1";"0";"1"
"1150";"32";"7";"1";"10";"1";"2";"1";"0";"[1,2,3,6,8,9]";"2";"0";"1"
"1151";"28";"7";"1";"6";"2";"2";"1";"2";"[2,5,8,10]";"2";"0";"1"
"1152";"39";"7";"1";"8";"2";"2";"1";"2";"[2,3,4,6,10]";"2";"0";"1"
"1153";"1";"7";"1";"8";"3";"2";"1";"0";"[2,3,4,6,10]";"1";"0";"1"
"1154";"9";"7";"1";"3";"4";"2";"1";"0";"[8,10]";"2";"0";"1"
"1155";"13";"8";"1";"5";"4";"2";"1";"0";"[1,6]";"2";"0";"1"
"1156";"20";"8";"1";"6";"4";"2";"1";"2";"[2,5,8,10]";"2";"0";"1"
"1157";"40";"8";"1";"7";"2";"2";"1";"1";"[2,4,9]";"1";"0";"1"
"1158";"23";"8";"1";"4";"2";"2";"1";"0";"[7,8]";"1";"0";"1"
"1159";"5";"8";"1";"5";"3";"2";"1";"1";"[1,6]";"1";"0";"1"
"1160";"14";"8";"1";"6";"3";"2";"1";"0";"[2,5,8,10]";"1";"0";"1"
"1161";"21";"8";"1";"1";"3";"2";"1";"0";"[5,10]";"2";"0";"1"
"1162";"20";"9";"1";"6";"4";"2";"1";"2";"[2,5,8,10]";"2";"0";"1"
"1163";"23";"9";"1";"4";"2";"2";"1";"0";"[7,8]";"1";"0";"1"
"1164";"5";"9";"1";"5";"3";"2";"1";"1";"[1,6]";"1";"0";"1"
"1165";"26";"9";"1";"1";"2";"2";"1";"1";"[5,10]";"1";"0";"1"
"1166";"14";"9";"1";"6";"3";"2";"1";"0";"[2,5,8,10]";"1";"0";"1"
"1167";"21";"9";"1";"1";"3";"2";"1";"0";"[5,10]";"2";"0";"1"
"1168";"26";"10";"1";"1";"2";"2";"1";"1";"[5,10]";"1";"0";"1"
"1169";"4";"11";"1";"3";"3";"2";"1";"1";"[8,10]";"1";"0";"1"
"1170";"4";"12";"1";"3";"3";"2";"1";"1";"[8,10]";"1";"0";"1"
"1171";"33";"13";"1";"5";"2";"2";"1";"0";"[1,6]";"1";"0";"1"
"1172";"19";"13";"1";"10";"4";"2";"1";"2";"[1,2,3,6,8,9]";"2";"0";"1"
"1173";"33";"14";"1";"5";"2";"2";"1";"0";"[1,6]";"1";"0";"1"
"1174";"3";"14";"1";"2";"2";"2";"1";"0";"[6,7,8,9,10]";"2";"0";"1"
"1175";"30";"14";"1";"7";"4";"2";"1";"0";"[2,4,9]";"1";"0";"1"
"1176";"19";"14";"1";"10";"4";"2";"1";"2";"[1,2,3,6,8,9]";"2";"0";"1"
"1177";"3";"15";"1";"2";"2";"2";"1";"0";"[6,7,8,9,10]";"2";"0";"1"
"1178";"30";"15";"1";"7";"4";"2";"1";"0";"[2,4,9]";"1";"0";"1"
"1179";"12";"15";"1";"1";"4";"2";"1";"0";"[5,10]";"2";"0";"1"
"1180";"29";"15";"1";"3";"2";"2";"1";"1";"[8,10]";"1";"0";"1"
"1181";"12";"16";"1";"1";"4";"2";"1";"0";"[5,10]";"2";"0";"1"
"1182";"29";"16";"1";"3";"2";"2";"1";"1";"[8,10]";"1";"0";"1"
"1183";"7";"22";"1";"4";"4";"2";"1";"1";"[7,8]";"1";"0";"1"
"1184";"7";"23";"1";"4";"4";"2";"1";"1";"[7,8]";"1";"0";"1"
"1185";"17";"2";"1";"7";"1";"2";"2";"1";"[2,4,9]";"2";"0";"1"
"1186";"27";"3";"1";"4";"1";"2";"2";"2";"[7,8]";"2";"0";"1"
"1187";"31";"26";"1";"4";"3";"2";"2";"1";"[7,8]";"1";"0";"1"
"1188";"4";"26";"1";"3";"3";"2";"2";"1";"[8,10]";"1";"0";"1"
"1189";"2";"26";"1";"9";"4";"2";"2";"2";"[2,7,10]";"2";"0";"1"
"1190";"17";"3";"1";"7";"1";"2";"2";"1";"[2,4,9]";"2";"0";"1"
"1191";"13";"26";"1";"5";"4";"2";"2";"0";"[1,6]";"2";"0";"1"
"1192";"22";"4";"1";"6";"1";"2";"2";"2";"[2,5,8,10]";"2";"0";"1"
"1193";"5";"27";"1";"5";"3";"2";"2";"1";"[1,6]";"2";"0";"1"
"1194";"27";"4";"1";"4";"1";"2";"2";"2";"[7,8]";"2";"0";"1"
"1195";"31";"27";"1";"4";"3";"2";"2";"1";"[7,8]";"1";"0";"1"
"1196";"4";"27";"1";"3";"3";"2";"2";"1";"[8,10]";"1";"0";"1"
"1197";"24";"27";"1";"2";"4";"2";"2";"1";"[6,7,8,9,10]";"2";"0";"1"
"1198";"2";"27";"1";"9";"4";"2";"2";"2";"[2,7,10]";"2";"0";"1"
"1199";"13";"27";"1";"5";"4";"2";"2";"0";"[1,6]";"2";"0";"1"
"1200";"36";"27";"1";"7";"3";"2";"2";"2";"[2,4,9]";"2";"0";"1"
"1201";"22";"5";"1";"6";"1";"2";"2";"2";"[2,5,8,10]";"2";"0";"1"
"1202";"32";"5";"1";"10";"1";"2";"2";"0";"[1,2,3,6,8,9]";"2";"0";"1"
"1203";"14";"28";"1";"6";"3";"2";"2";"0";"[2,5,8,10]";"1";"0";"1"
"1204";"7";"28";"1";"4";"4";"2";"2";"1";"[7,8]";"1";"0";"1"
"1205";"5";"28";"1";"5";"3";"2";"2";"1";"[1,6]";"2";"0";"1"
"1206";"24";"28";"1";"2";"4";"2";"2";"1";"[6,7,8,9,10]";"2";"0";"1"
"1207";"6";"28";"1";"10";"3";"2";"2";"1";"[1,2,3,6,8,9]";"1";"0";"1"
"1208";"11";"5";"1";"8";"1";"2";"2";"2";"[2,3,4,6,10]";"2";"0";"1"
"1209";"36";"28";"1";"7";"3";"2";"2";"2";"[2,4,9]";"2";"0";"1"
"1210";"32";"6";"1";"10";"1";"2";"2";"0";"[1,2,3,6,8,9]";"2";"0";"1"
"1211";"26";"29";"1";"1";"2";"2";"2";"1";"[5,10]";"1";"0";"1"
"1212";"14";"29";"1";"6";"3";"2";"2";"0";"[2,5,8,10]";"1";"0";"1"
"1213";"7";"29";"1";"4";"4";"2";"2";"1";"[7,8]";"1";"0";"1"
"1214";"34";"6";"1";"5";"1";"2";"2";"0";"[1,6]";"1";"0";"1"
"1215";"6";"29";"1";"10";"3";"2";"2";"1";"[1,2,3,6,8,9]";"1";"0";"1"
"1216";"11";"6";"1";"8";"1";"2";"2";"2";"[2,3,4,6,10]";"2";"0";"1"
"1217";"15";"6";"1";"2";"1";"2";"2";"1";"[6,7,8,9,10]";"2";"0";"1"
"1218";"1";"29";"1";"8";"3";"2";"2";"0";"[2,3,4,6,10]";"1";"0";"1"
"1219";"37";"29";"1";"9";"3";"2";"2";"1";"[2,7,10]";"1";"0";"1"
"1220";"26";"30";"1";"1";"2";"2";"2";"1";"[5,10]";"1";"0";"1"
"1221";"34";"7";"1";"5";"1";"2";"2";"0";"[1,6]";"1";"0";"1"
"1222";"18";"30";"1";"8";"4";"2";"2";"1";"[2,3,4,6,10]";"1";"0";"1"
"1223";"38";"30";"1";"2";"3";"2";"2";"1";"[6,7,8,9,10]";"1";"0";"1"
"1224";"15";"7";"1";"2";"1";"2";"2";"1";"[6,7,8,9,10]";"2";"0";"1"
"1225";"1";"30";"1";"8";"3";"2";"2";"0";"[2,3,4,6,10]";"1";"0";"1"
"1226";"37";"30";"1";"9";"3";"2";"2";"1";"[2,7,10]";"1";"0";"1"
"1227";"20";"31";"1";"6";"4";"2";"2";"2";"[2,5,8,10]";"2";"0";"1"
"1228";"8";"8";"1";"3";"1";"2";"2";"2";"[8,10]";"2";"0";"1"
"1229";"18";"31";"1";"8";"4";"2";"2";"1";"[2,3,4,6,10]";"1";"0";"1"
"1230";"38";"31";"1";"2";"3";"2";"2";"1";"[6,7,8,9,10]";"1";"0";"1"
"1231";"9";"31";"1";"3";"4";"2";"2";"0";"[8,10]";"1";"0";"1"
"1232";"20";"32";"1";"6";"4";"2";"2";"2";"[2,5,8,10]";"2";"0";"1"
"1233";"8";"9";"1";"3";"1";"2";"2";"2";"[8,10]";"2";"0";"1"
"1234";"9";"32";"1";"3";"4";"2";"2";"0";"[8,10]";"1";"0";"1"
"1235";"21";"33";"1";"1";"3";"2";"2";"0";"[5,10]";"1";"0";"1"
"1236";"10";"33";"1";"10";"2";"2";"2";"1";"[1,2,3,6,8,9]";"2";"0";"1"
"1237";"29";"33";"1";"3";"2";"2";"2";"1";"[8,10]";"1";"0";"1"
"1238";"21";"34";"1";"1";"3";"2";"2";"0";"[5,10]";"1";"0";"1"
"1239";"28";"34";"1";"6";"2";"2";"2";"2";"[2,5,8,10]";"2";"0";"1"
"1240";"10";"34";"1";"10";"2";"2";"2";"1";"[1,2,3,6,8,9]";"2";"0";"1"
"1241";"29";"34";"1";"3";"2";"2";"2";"1";"[8,10]";"1";"0";"1"
"1242";"16";"34";"1";"9";"2";"2";"2";"1";"[2,7,10]";"0";"2";"1"
"1243";"12";"34";"1";"1";"4";"2";"2";"0";"[5,10]";"2";"0";"1"
"1244";"28";"35";"1";"6";"2";"2";"2";"2";"[2,5,8,10]";"2";"0";"1"
"1245";"12";"35";"1";"1";"4";"2";"2";"0";"[5,10]";"2";"0";"1"
"1246";"19";"36";"1";"10";"4";"2";"2";"2";"[1,2,3,6,8,9]";"2";"0";"1"
"1247";"19";"37";"1";"10";"4";"2";"2";"2";"[1,2,3,6,8,9]";"2";"0";"1"
"1248";"35";"14";"1";"1";"1";"2";"2";"1";"[5,10]";"1";"0";"1"
"1249";"25";"14";"1";"9";"1";"2";"2";"2";"[2,7,10]";"2";"0";"1"
"1250";"35";"15";"1";"1";"1";"2";"2";"1";"[5,10]";"1";"0";"1"
"1251";"23";"38";"1";"4";"2";"2";"2";"0";"[7,8]";"1";"0";"1"
"1252";"16";"38";"1";"9";"2";"2";"2";"1";"[2,7,10]";"1";"2";"1"
"1253";"25";"15";"1";"9";"1";"2";"2";"2";"[2,7,10]";"2";"0";"1"
"1254";"23";"39";"1";"4";"2";"2";"2";"0";"[7,8]";"1";"0";"1"
"1255";"16";"39";"1";"9";"2";"2";"2";"1";"[2,7,10]";"1";"2";"1"
"1256";"30";"40";"1";"7";"4";"2";"2";"0";"[2,4,9]";"1";"0";"1"
"1257";"3";"41";"1";"2";"2";"2";"2";"0";"[6,7,8,9,10]";"2";"0";"1"
"1258";"30";"41";"1";"7";"4";"2";"2";"0";"[2,4,9]";"1";"0";"1"
"1259";"3";"42";"1";"2";"2";"2";"2";"0";"[6,7,8,9,10]";"2";"0";"1"
"1260";"39";"45";"1";"8";"2";"2";"2";"2";"[2,3,4,6,10]";"2";"0";"1"
"1261";"40";"45";"1";"7";"2";"2";"2";"1";"[2,4,9]";"2";"0";"1"
"1262";"39";"46";"1";"8";"2";"2";"2";"2";"[2,3,4,6,10]";"2";"0";"1"
"1263";"40";"46";"1";"7";"2";"2";"2";"1";"[2,4,9]";"2";"0";"1"
"1264";"33";"48";"1";"5";"2";"2";"2";"0";"[1,6]";"2";"0";"1"
"1265";"33";"49";"1";"5";"2";"2";"2";"0";"[1,6]";"2";"0";"1"
"1266";"35";"1";"1";"1";"1";"2";"3";"1";"[5,10]";"1";"0";"1"
"1267";"6";"50";"1";"10";"3";"2";"3";"1";"[1,2,3,6,8,9]";"1";"0";"1"
"1268";"7";"51";"1";"4";"4";"2";"3";"1";"[7,8]";"1";"0";"1"
"1269";"35";"2";"1";"1";"1";"2";"3";"1";"[5,10]";"1";"0";"1"
"1270";"6";"51";"1";"10";"3";"2";"3";"1";"[1,2,3,6,8,9]";"1";"0";"1"
"1271";"2";"51";"1";"9";"4";"2";"3";"2";"[2,7,10]";"2";"0";"1"
"1272";"27";"2";"1";"4";"1";"2";"3";"2";"[7,8]";"2";"0";"1"
"1273";"7";"52";"1";"4";"4";"2";"3";"1";"[7,8]";"1";"0";"1"
"1274";"28";"52";"1";"6";"2";"2";"3";"2";"[2,5,8,10]";"2";"0";"1"
"1275";"31";"52";"1";"4";"3";"2";"3";"1";"[7,8]";"1";"0";"1"
"1276";"11";"3";"1";"8";"1";"2";"3";"2";"[2,3,4,6,10]";"2";"0";"1"
"1277";"4";"52";"1";"3";"3";"2";"3";"1";"[8,10]";"1";"0";"1"
"1278";"10";"52";"1";"10";"2";"2";"3";"1";"[1,2,3,6,8,9]";"2";"0";"1"
"1279";"2";"52";"1";"9";"4";"2";"3";"2";"[2,7,10]";"2";"0";"1"
"1280";"27";"3";"1";"4";"1";"2";"3";"2";"[7,8]";"2";"0";"1"
"1281";"22";"3";"1";"6";"1";"2";"3";"2";"[2,5,8,10]";"2";"0";"1"
"1282";"28";"53";"1";"6";"2";"2";"3";"2";"[2,5,8,10]";"2";"0";"1"
"1283";"31";"53";"1";"4";"3";"2";"3";"1";"[7,8]";"1";"0";"1"
"1284";"9";"53";"1";"3";"4";"2";"3";"0";"[8,10]";"1";"0";"1"
"1285";"36";"53";"1";"7";"3";"2";"3";"2";"[2,4,9]";"2";"0";"1"
"1286";"11";"4";"1";"8";"1";"2";"3";"2";"[2,3,4,6,10]";"2";"0";"1"
"1287";"4";"53";"1";"3";"3";"2";"3";"1";"[8,10]";"1";"0";"1"
"1288";"10";"53";"1";"10";"2";"2";"3";"1";"[1,2,3,6,8,9]";"2";"0";"1"
"1289";"1";"53";"1";"8";"3";"2";"3";"0";"[2,3,4,6,10]";"1";"0";"1"
"1290";"14";"53";"1";"6";"3";"2";"3";"0";"[2,5,8,10]";"1";"0";"1"
"1291";"24";"53";"1";"2";"4";"2";"3";"1";"[6,7,8,9,10]";"2";"0";"1"
"1292";"37";"53";"1";"9";"3";"2";"3";"1";"[2,7,10]";"1";"0";"1"
"1293";"22";"4";"1";"6";"1";"2";"3";"2";"[2,5,8,10]";"2";"0";"1"
"1294";"38";"53";"1";"2";"3";"2";"3";"1";"[6,7,8,9,10]";"1";"0";"1"
"1295";"13";"54";"1";"5";"4";"2";"3";"0";"[1,6]";"2";"0";"1"
"1296";"8";"5";"1";"3";"1";"2";"3";"2";"[8,10]";"2";"0";"1"
"1297";"5";"54";"1";"5";"3";"2";"3";"1";"[1,6]";"1";"0";"1"
"1298";"9";"54";"1";"3";"4";"2";"3";"0";"[8,10]";"1";"0";"1"
"1299";"36";"54";"1";"7";"3";"2";"3";"2";"[2,4,9]";"2";"0";"1"
"1300";"32";"5";"1";"10";"1";"2";"3";"0";"[1,2,3,6,8,9]";"2";"0";"1"
"1301";"24";"54";"1";"2";"4";"2";"3";"1";"[6,7,8,9,10]";"2";"0";"1"
"1302";"14";"54";"1";"6";"3";"2";"3";"0";"[2,5,8,10]";"1";"0";"1"
"1303";"1";"54";"1";"8";"3";"2";"3";"0";"[2,3,4,6,10]";"1";"0";"1"
"1304";"37";"54";"1";"9";"3";"2";"3";"1";"[2,7,10]";"1";"0";"1"
"1305";"38";"54";"1";"2";"3";"2";"3";"1";"[6,7,8,9,10]";"1";"0";"1"
"1306";"25";"5";"1";"9";"1";"2";"3";"2";"[2,7,10]";"2";"0";"1"
"1307";"13";"55";"1";"5";"4";"2";"3";"0";"[1,6]";"2";"0";"1"
"1308";"8";"6";"1";"3";"1";"2";"3";"2";"[8,10]";"2";"0";"1"
"1309";"5";"55";"1";"5";"3";"2";"3";"1";"[1,6]";"1";"0";"1"
"1310";"17";"6";"1";"7";"1";"2";"3";"1";"[2,4,9]";"2";"0";"1"
"1311";"33";"55";"1";"5";"2";"2";"3";"0";"[1,6]";"2";"0";"1"
"1312";"32";"6";"1";"10";"1";"2";"3";"0";"[1,2,3,6,8,9]";"2";"0";"1"
"1313";"40";"55";"1";"7";"2";"2";"3";"1";"[2,4,9]";"2";"0";"1"
"1314";"25";"6";"1";"9";"1";"2";"3";"2";"[2,7,10]";"2";"0";"1"
"1315";"39";"55";"1";"8";"2";"2";"3";"2";"[2,3,4,6,10]";"2";"0";"1"
"1316";"29";"56";"1";"3";"2";"2";"3";"1";"[8,10]";"2";"0";"1"
"1317";"17";"7";"1";"7";"1";"2";"3";"1";"[2,4,9]";"2";"0";"1"
"1318";"33";"56";"1";"5";"2";"2";"3";"0";"[1,6]";"2";"0";"1"
"1319";"40";"56";"1";"7";"2";"2";"3";"1";"[2,4,9]";"2";"0";"1"
"1320";"15";"7";"1";"2";"1";"2";"3";"1";"[6,7,8,9,10]";"2";"0";"1"
"1321";"39";"57";"1";"8";"2";"2";"3";"2";"[2,3,4,6,10]";"2";"0";"1"
"1322";"29";"57";"1";"3";"2";"2";"3";"1";"[8,10]";"2";"0";"1"
"1323";"21";"57";"1";"1";"3";"2";"3";"0";"[5,10]";"1";"0";"1"
"1324";"23";"57";"1";"4";"2";"2";"3";"0";"[7,8]";"2";"0";"1"
"1325";"15";"8";"1";"2";"1";"2";"3";"1";"[6,7,8,9,10]";"2";"0";"1"
"1326";"19";"58";"1";"10";"4";"2";"3";"2";"[1,2,3,6,8,9]";"2";"0";"1"
"1327";"21";"58";"1";"1";"3";"2";"3";"0";"[5,10]";"1";"0";"1"
"1328";"23";"58";"1";"4";"2";"2";"3";"0";"[7,8]";"2";"0";"1"
"1329";"34";"10";"1";"5";"1";"2";"3";"0";"[1,6]";"2";"0";"1"
"1330";"19";"59";"1";"10";"4";"2";"3";"2";"[1,2,3,6,8,9]";"2";"0";"1"
"1331";"12";"59";"1";"1";"4";"2";"3";"0";"[5,10]";"2";"0";"1"
"1332";"26";"59";"1";"1";"2";"2";"3";"1";"[5,10]";"2";"0";"1"
"1333";"20";"59";"1";"6";"4";"2";"3";"2";"[2,5,8,10]";"2";"0";"1"
"1334";"18";"59";"1";"8";"4";"2";"3";"1";"[2,3,4,6,10]";"0";"1";"1"
"1335";"34";"11";"1";"5";"1";"2";"3";"0";"[1,6]";"2";"0";"1"
"1336";"12";"60";"1";"1";"4";"2";"3";"0";"[5,10]";"2";"0";"1"
"1337";"26";"60";"1";"1";"2";"2";"3";"1";"[5,10]";"2";"0";"1"
"1338";"20";"60";"1";"6";"4";"2";"3";"2";"[2,5,8,10]";"2";"0";"1"
"1339";"30";"63";"1";"7";"4";"2";"3";"0";"[2,4,9]";"2";"0";"1"
"1340";"30";"64";"1";"7";"4";"2";"3";"0";"[2,4,9]";"2";"0";"1"
"1341";"18";"64";"1";"8";"4";"2";"3";"1";"[2,3,4,6,10]";"0";"2";"1"
"1342";"3";"65";"1";"2";"2";"2";"3";"0";"[6,7,8,9,10]";"2";"0";"1"
"1343";"3";"66";"1";"2";"2";"2";"3";"0";"[6,7,8,9,10]";"2";"0";"1"
"1344";"18";"67";"1";"8";"4";"2";"3";"1";"[2,3,4,6,10]";"1";"2";"1"
"1345";"18";"68";"1";"8";"4";"2";"3";"1";"[2,3,4,6,10]";"1";"2";"1"
"1346";"16";"71";"1";"9";"2";"2";"3";"1";"[2,7,10]";"2";"0";"1"
"1347";"16";"72";"1";"9";"2";"2";"3";"1";"[2,7,10]";"2";"0";"1"
"1348";"35";"2";"1";"1";"1";"2";"4";"1";"[5,10]";"1";"0";"1"
"1349";"6";"74";"1";"10";"3";"2";"4";"1";"[1,2,3,6,8,9]";"1";"0";"1"
"1350";"3";"74";"1";"2";"2";"2";"4";"0";"[6,7,8,9,10]";"2";"0";"1"
"1351";"8";"2";"1";"3";"1";"2";"4";"2";"[8,10]";"2";"0";"1"
"1352";"40";"74";"1";"7";"2";"2";"4";"1";"[2,4,9]";"2";"0";"1"
"1353";"17";"2";"1";"7";"1";"2";"4";"1";"[2,4,9]";"2";"0";"1"
"1354";"27";"3";"1";"4";"1";"2";"4";"2";"[7,8]";"2";"0";"1"
"1355";"13";"75";"1";"5";"4";"2";"4";"0";"[1,6]";"2";"0";"1"
"1356";"21";"75";"1";"1";"3";"2";"4";"0";"[5,10]";"1";"0";"1"
"1357";"10";"75";"1";"10";"2";"2";"4";"1";"[1,2,3,6,8,9]";"2";"0";"1"
"1358";"32";"3";"1";"10";"1";"2";"4";"0";"[1,2,3,6,8,9]";"2";"0";"1"
"1359";"2";"75";"1";"9";"4";"2";"4";"2";"[2,7,10]";"2";"0";"1"
"1360";"12";"75";"1";"1";"4";"2";"4";"0";"[5,10]";"2";"0";"1"
"1361";"22";"3";"1";"6";"1";"2";"4";"2";"[2,5,8,10]";"2";"0";"1"
"1362";"36";"75";"1";"7";"3";"2";"4";"2";"[2,4,9]";"1";"0";"1"
"1363";"35";"3";"1";"1";"1";"2";"4";"1";"[5,10]";"1";"0";"1"
"1364";"1";"75";"1";"8";"3";"2";"4";"0";"[2,3,4,6,10]";"1";"0";"1"
"1365";"11";"3";"1";"8";"1";"2";"4";"2";"[2,3,4,6,10]";"2";"0";"1"
"1366";"7";"75";"1";"4";"4";"2";"4";"1";"[7,8]";"1";"0";"1"
"1367";"6";"75";"1";"10";"3";"2";"4";"1";"[1,2,3,6,8,9]";"1";"0";"1"
"1368";"3";"75";"1";"2";"2";"2";"4";"0";"[6,7,8,9,10]";"2";"0";"1"
"1369";"8";"3";"1";"3";"1";"2";"4";"2";"[8,10]";"2";"0";"1"
"1370";"40";"75";"1";"7";"2";"2";"4";"1";"[2,4,9]";"2";"0";"1"
"1371";"25";"3";"1";"9";"1";"2";"4";"2";"[2,7,10]";"2";"0";"1"
"1372";"17";"3";"1";"7";"1";"2";"4";"1";"[2,4,9]";"2";"0";"1"
"1373";"15";"4";"1";"2";"1";"2";"4";"1";"[6,7,8,9,10]";"2";"0";"1"
"1374";"38";"76";"1";"2";"3";"2";"4";"1";"[6,7,8,9,10]";"1";"0";"1"
"1375";"16";"76";"1";"9";"2";"2";"4";"1";"[2,7,10]";"2";"0";"1"
"1376";"24";"76";"1";"2";"4";"2";"4";"1";"[6,7,8,9,10]";"1";"0";"1"
"1377";"23";"76";"1";"4";"2";"2";"4";"0";"[7,8]";"0";"2";"1"
"1378";"27";"4";"1";"4";"1";"2";"4";"2";"[7,8]";"2";"0";"1"
"1379";"33";"76";"1";"5";"2";"2";"4";"0";"[1,6]";"2";"0";"1"
"1380";"13";"76";"1";"5";"4";"2";"4";"0";"[1,6]";"2";"0";"1"
"1381";"21";"76";"1";"1";"3";"2";"4";"0";"[5,10]";"1";"0";"1"
"1382";"10";"76";"1";"10";"2";"2";"4";"1";"[1,2,3,6,8,9]";"2";"0";"1"
"1383";"32";"4";"1";"10";"1";"2";"4";"0";"[1,2,3,6,8,9]";"2";"0";"1"
"1384";"2";"76";"1";"9";"4";"2";"4";"2";"[2,7,10]";"2";"0";"1"
"1385";"12";"76";"1";"1";"4";"2";"4";"0";"[5,10]";"2";"0";"1"
"1386";"4";"76";"1";"3";"3";"2";"4";"1";"[8,10]";"1";"0";"1"
"1387";"36";"76";"1";"7";"3";"2";"4";"2";"[2,4,9]";"1";"0";"1"
"1388";"22";"4";"1";"6";"1";"2";"4";"2";"[2,5,8,10]";"2";"0";"1"
"1389";"1";"76";"1";"8";"3";"2";"4";"0";"[2,3,4,6,10]";"1";"0";"1"
"1390";"20";"76";"1";"6";"4";"2";"4";"2";"[2,5,8,10]";"0";"2";"1"
"1391";"11";"4";"1";"8";"1";"2";"4";"2";"[2,3,4,6,10]";"2";"0";"1"
"1392";"34";"4";"1";"5";"1";"2";"4";"0";"[1,6]";"2";"0";"1"
"1393";"7";"76";"1";"4";"4";"2";"4";"1";"[7,8]";"1";"0";"1"
"1394";"25";"4";"1";"9";"1";"2";"4";"2";"[2,7,10]";"2";"0";"1"
"1395";"15";"5";"1";"2";"1";"2";"4";"1";"[6,7,8,9,10]";"2";"0";"1"
"1396";"38";"77";"1";"2";"3";"2";"4";"1";"[6,7,8,9,10]";"1";"0";"1"
"1397";"16";"77";"1";"9";"2";"2";"4";"1";"[2,7,10]";"2";"0";"1"
"1398";"24";"77";"1";"2";"4";"2";"4";"1";"[6,7,8,9,10]";"1";"0";"1"
"1399";"28";"77";"1";"6";"2";"2";"4";"2";"[2,5,8,10]";"2";"0";"1"
"1400";"33";"77";"1";"5";"2";"2";"4";"0";"[1,6]";"2";"0";"1"
"1401";"4";"77";"1";"3";"3";"2";"4";"1";"[8,10]";"1";"0";"1"
"1402";"23";"77";"1";"4";"2";"2";"4";"0";"[7,8]";"0";"1";"1"
"1403";"34";"5";"1";"5";"1";"2";"4";"0";"[1,6]";"2";"0";"1"
"1404";"5";"77";"1";"5";"3";"2";"4";"1";"[1,6]";"1";"0";"1"
"1405";"37";"77";"1";"9";"3";"2";"4";"1";"[2,7,10]";"2";"0";"1"
"1406";"14";"78";"1";"6";"3";"2";"4";"0";"[2,5,8,10]";"1";"0";"1"
"1407";"23";"78";"1";"4";"2";"2";"4";"0";"[7,8]";"0";"2";"1"
"1408";"28";"78";"1";"6";"2";"2";"4";"2";"[2,5,8,10]";"2";"0";"1"
"1409";"20";"78";"1";"6";"4";"2";"4";"2";"[2,5,8,10]";"0";"1";"1"
"1410";"5";"78";"1";"5";"3";"2";"4";"1";"[1,6]";"1";"0";"1"
"1411";"23";"78";"1";"4";"2";"2";"4";"0";"[7,8]";"0";"3";"1"
"1412";"37";"78";"1";"9";"3";"2";"4";"1";"[2,7,10]";"2";"0";"1"
"1413";"14";"79";"1";"6";"3";"2";"4";"0";"[2,5,8,10]";"1";"0";"1"
"1414";"9";"79";"1";"3";"4";"2";"4";"0";"[8,10]";"1";"0";"1"
"1415";"31";"80";"1";"4";"3";"2";"4";"1";"[7,8]";"1";"0";"1"
"1416";"19";"80";"1";"10";"4";"2";"4";"2";"[1,2,3,6,8,9]";"2";"0";"1"
"1417";"20";"80";"1";"6";"4";"2";"4";"2";"[2,5,8,10]";"0";"3";"1"
"1418";"23";"80";"1";"4";"2";"2";"4";"0";"[7,8]";"0";"4";"1"
"1419";"29";"80";"1";"3";"2";"2";"4";"1";"[8,10]";"2";"0";"1"
"1420";"9";"80";"1";"3";"4";"2";"4";"0";"[8,10]";"1";"0";"1"
"1421";"31";"81";"1";"4";"3";"2";"4";"1";"[7,8]";"1";"0";"1"
"1422";"19";"81";"1";"10";"4";"2";"4";"2";"[1,2,3,6,8,9]";"2";"0";"1"
"1423";"29";"81";"1";"3";"2";"2";"4";"1";"[8,10]";"2";"0";"1"
"1424";"39";"81";"1";"8";"2";"2";"4";"2";"[2,3,4,6,10]";"2";"0";"1"
"1425";"23";"82";"1";"4";"2";"2";"4";"0";"[7,8]";"2";"4";"1"
"1426";"39";"82";"1";"8";"2";"2";"4";"2";"[2,3,4,6,10]";"2";"0";"1"
"1427";"23";"83";"1";"4";"2";"2";"4";"0";"[7,8]";"2";"4";"1"
"1428";"18";"84";"1";"8";"4";"2";"4";"1";"[2,3,4,6,10]";"0";"2";"1"
"1429";"20";"84";"1";"6";"4";"2";"4";"2";"[2,5,8,10]";"0";"1";"1"
"1430";"18";"85";"1";"8";"4";"2";"4";"1";"[2,3,4,6,10]";"0";"4";"1"
"1431";"20";"85";"1";"6";"4";"2";"4";"2";"[2,5,8,10]";"0";"2";"1"
"1432";"30";"85";"1";"7";"4";"2";"4";"0";"[2,4,9]";"1";"0";"1"
"1433";"18";"86";"1";"8";"4";"2";"4";"1";"[2,3,4,6,10]";"1";"4";"1"
"1434";"30";"86";"1";"7";"4";"2";"4";"0";"[2,4,9]";"1";"0";"1"
"1435";"18";"87";"1";"8";"4";"2";"4";"1";"[2,3,4,6,10]";"1";"4";"1"
"1436";"20";"90";"1";"6";"4";"2";"4";"2";"[2,5,8,10]";"0";"3";"1"
"1437";"20";"92";"1";"6";"4";"2";"4";"2";"[2,5,8,10]";"0";"5";"1"
"1438";"16";"93";"1";"9";"2";"2";"4";"1";"[2,7,10]";"2";"1";"1"
"1439";"20";"93";"1";"6";"4";"2";"4";"2";"[2,5,8,10]";"2";"5";"1"
"1440";"20";"94";"1";"6";"4";"2";"4";"2";"[2,5,8,10]";"2";"5";"1"
"1441";"26";"99";"1";"1";"2";"2";"4";"1";"[5,10]";"2";"0";"1"
"1442";"26";"100";"1";"1";"2";"2";"4";"1";"[5,10]";"2";"0";"1"
"1443";"6";"101";"1";"10";"3";"2";"5";"1";"[1,2,3,6,8,9]";"1";"0";"1"
"1444";"1";"101";"1";"8";"3";"2";"5";"0";"[2,3,4,6,10]";"1";"0";"1"
"1445";"21";"102";"1";"1";"3";"2";"5";"0";"[5,10]";"2";"0";"1"
"1446";"35";"2";"1";"1";"1";"2";"5";"1";"[5,10]";"1";"0";"1"
"1447";"16";"102";"1";"9";"2";"2";"5";"1";"[2,7,10]";"0";"1";"1"
"1448";"39";"102";"1";"8";"2";"2";"5";"2";"[2,3,4,6,10]";"2";"0";"1"
"1449";"33";"102";"1";"5";"2";"2";"5";"0";"[1,6]";"2";"0";"1"
"1450";"10";"102";"1";"10";"2";"2";"5";"1";"[1,2,3,6,8,9]";"2";"0";"1"
"1451";"6";"102";"1";"10";"3";"2";"5";"1";"[1,2,3,6,8,9]";"1";"0";"1"
"1452";"14";"102";"1";"6";"3";"2";"5";"0";"[2,5,8,10]";"1";"0";"1"
"1453";"26";"102";"1";"1";"2";"2";"5";"1";"[5,10]";"2";"0";"1"
"1454";"1";"102";"1";"8";"3";"2";"5";"0";"[2,3,4,6,10]";"1";"0";"1"
"1455";"12";"103";"1";"1";"4";"2";"5";"0";"[5,10]";"2";"0";"1"
"1456";"21";"103";"1";"1";"3";"2";"5";"0";"[5,10]";"2";"0";"1"
"1457";"35";"3";"1";"1";"1";"2";"5";"1";"[5,10]";"1";"0";"1"
"1458";"23";"103";"1";"4";"2";"2";"5";"0";"[7,8]";"2";"0";"1"
"1459";"32";"3";"1";"10";"1";"2";"5";"0";"[1,2,3,6,8,9]";"2";"0";"1"
"1460";"39";"103";"1";"8";"2";"2";"5";"2";"[2,3,4,6,10]";"2";"0";"1"
"1461";"33";"103";"1";"5";"2";"2";"5";"0";"[1,6]";"2";"0";"1"
"1462";"3";"103";"1";"2";"2";"2";"5";"0";"[6,7,8,9,10]";"2";"0";"1"
"1463";"10";"103";"1";"10";"2";"2";"5";"1";"[1,2,3,6,8,9]";"2";"0";"1"
"1464";"14";"103";"1";"6";"3";"2";"5";"0";"[2,5,8,10]";"1";"0";"1"
"1465";"9";"103";"1";"3";"4";"2";"5";"0";"[8,10]";"1";"0";"1"
"1466";"4";"103";"1";"3";"3";"2";"5";"1";"[8,10]";"1";"0";"1"
"1467";"8";"3";"1";"3";"1";"2";"5";"2";"[8,10]";"2";"0";"1"
"1468";"26";"103";"1";"1";"2";"2";"5";"1";"[5,10]";"2";"0";"1"
"1469";"13";"103";"1";"5";"4";"2";"5";"0";"[1,6]";"2";"0";"1"
"1470";"24";"104";"1";"2";"4";"2";"5";"1";"[6,7,8,9,10]";"1";"0";"1"
"1471";"12";"104";"1";"1";"4";"2";"5";"0";"[5,10]";"2";"0";"1"
"1472";"23";"104";"1";"4";"2";"2";"5";"0";"[7,8]";"2";"0";"1"
"1473";"32";"4";"1";"10";"1";"2";"5";"0";"[1,2,3,6,8,9]";"2";"0";"1"
"1474";"7";"104";"1";"4";"4";"2";"5";"1";"[7,8]";"1";"0";"1"
"1475";"3";"104";"1";"2";"2";"2";"5";"0";"[6,7,8,9,10]";"2";"0";"1"
"1476";"9";"104";"1";"3";"4";"2";"5";"0";"[8,10]";"1";"0";"1"
"1477";"4";"104";"1";"3";"3";"2";"5";"1";"[8,10]";"1";"0";"1"
"1478";"36";"104";"1";"7";"3";"2";"5";"2";"[2,4,9]";"1";"0";"1"
"1479";"8";"4";"1";"3";"1";"2";"5";"2";"[8,10]";"2";"0";"1"
"1480";"13";"104";"1";"5";"4";"2";"5";"0";"[1,6]";"2";"0";"1"
"1481";"34";"4";"1";"5";"1";"2";"5";"0";"[1,6]";"2";"0";"1"
"1482";"40";"105";"1";"7";"2";"2";"5";"1";"[2,4,9]";"2";"0";"1"
"1483";"24";"105";"1";"2";"4";"2";"5";"1";"[6,7,8,9,10]";"1";"0";"1"
"1484";"31";"105";"1";"4";"3";"2";"5";"1";"[7,8]";"1";"0";"1"
"1485";"2";"105";"1";"9";"4";"2";"5";"2";"[2,7,10]";"2";"0";"1"
"1486";"16";"105";"1";"9";"2";"2";"5";"1";"[2,7,10]";"0";"2";"1"
"1487";"7";"105";"1";"4";"4";"2";"5";"1";"[7,8]";"1";"0";"1"
"1488";"37";"105";"1";"9";"3";"2";"5";"1";"[2,7,10]";"1";"0";"1"
"1489";"20";"105";"1";"6";"4";"2";"5";"2";"[2,5,8,10]";"2";"0";"1"
"1490";"36";"105";"1";"7";"3";"2";"5";"2";"[2,4,9]";"1";"0";"1"
"1491";"38";"105";"1";"2";"3";"2";"5";"1";"[6,7,8,9,10]";"1";"0";"1"
"1492";"34";"5";"1";"5";"1";"2";"5";"0";"[1,6]";"2";"0";"1"
"1493";"40";"106";"1";"7";"2";"2";"5";"1";"[2,4,9]";"2";"0";"1"
"1494";"31";"106";"1";"4";"3";"2";"5";"1";"[7,8]";"1";"0";"1"
"1495";"22";"6";"1";"6";"1";"2";"5";"2";"[2,5,8,10]";"2";"0";"1"
"1496";"2";"106";"1";"9";"4";"2";"5";"2";"[2,7,10]";"2";"0";"1"
"1497";"37";"106";"1";"9";"3";"2";"5";"1";"[2,7,10]";"1";"0";"1"
"1498";"20";"106";"1";"6";"4";"2";"5";"2";"[2,5,8,10]";"2";"0";"1"
"1499";"38";"106";"1";"2";"3";"2";"5";"1";"[6,7,8,9,10]";"1";"0";"1"
"1500";"16";"106";"1";"9";"2";"2";"5";"1";"[2,7,10]";"0";"3";"1"
"1501";"22";"7";"1";"6";"1";"2";"5";"2";"[2,5,8,10]";"2";"0";"1"
"1502";"27";"7";"1";"4";"1";"2";"5";"2";"[7,8]";"2";"0";"1"
"1503";"19";"107";"1";"10";"4";"2";"5";"2";"[1,2,3,6,8,9]";"2";"0";"1"
"1504";"11";"7";"1";"8";"1";"2";"5";"2";"[2,3,4,6,10]";"2";"0";"1"
"1505";"25";"8";"1";"9";"1";"2";"5";"2";"[2,7,10]";"2";"0";"1"
"1506";"27";"8";"1";"4";"1";"2";"5";"2";"[7,8]";"2";"0";"1"
"1507";"19";"108";"1";"10";"4";"2";"5";"2";"[1,2,3,6,8,9]";"2";"0";"1"
"1508";"11";"8";"1";"8";"1";"2";"5";"2";"[2,3,4,6,10]";"2";"0";"1"
"1509";"16";"109";"1";"9";"2";"2";"5";"1";"[2,7,10]";"2";"3";"1"
"1510";"25";"9";"1";"9";"1";"2";"5";"2";"[2,7,10]";"2";"0";"1"
"1511";"18";"109";"1";"8";"4";"2";"5";"1";"[2,3,4,6,10]";"1";"0";"1"
"1512";"16";"110";"1";"9";"2";"2";"5";"1";"[2,7,10]";"2";"3";"1"
"1513";"30";"110";"1";"7";"4";"2";"5";"0";"[2,4,9]";"1";"0";"1"
"1514";"17";"10";"1";"7";"1";"2";"5";"1";"[2,4,9]";"2";"0";"1"
"1515";"18";"110";"1";"8";"4";"2";"5";"1";"[2,3,4,6,10]";"1";"0";"1"
"1516";"28";"110";"1";"6";"2";"2";"5";"2";"[2,5,8,10]";"2";"0";"1"
"1517";"29";"110";"1";"3";"2";"2";"5";"1";"[8,10]";"2";"0";"1"
"1518";"30";"111";"1";"7";"4";"2";"5";"0";"[2,4,9]";"1";"0";"1"
"1519";"17";"11";"1";"7";"1";"2";"5";"1";"[2,4,9]";"2";"0";"1"
"1520";"5";"111";"1";"5";"3";"2";"5";"1";"[1,6]";"1";"0";"1"
"1521";"28";"111";"1";"6";"2";"2";"5";"2";"[2,5,8,10]";"2";"0";"1"
"1522";"29";"112";"1";"3";"2";"2";"5";"1";"[8,10]";"2";"0";"1"
"1523";"15";"12";"1";"2";"1";"2";"5";"1";"[6,7,8,9,10]";"2";"0";"1"
"1524";"5";"112";"1";"5";"3";"2";"5";"1";"[1,6]";"1";"0";"1"
"1525";"15";"13";"1";"2";"1";"2";"5";"1";"[6,7,8,9,10]";"2";"0";"1"
"1526";"6";"114";"1";"10";"3";"2";"6";"1";"[1,2,3,6,8,9]";"1";"0";"1"
"1527";"1";"114";"1";"8";"3";"2";"6";"0";"[2,3,4,6,10]";"1";"0";"1"
"1528";"33";"114";"1";"5";"2";"2";"6";"0";"[1,6]";"2";"0";"1"
"1529";"13";"114";"1";"5";"4";"2";"6";"0";"[1,6]";"2";"0";"1"
"1530";"6";"115";"1";"10";"3";"2";"6";"1";"[1,2,3,6,8,9]";"1";"0";"1"
"1531";"34";"2";"1";"5";"1";"2";"6";"0";"[1,6]";"2";"0";"1"
"1532";"27";"2";"1";"4";"1";"2";"6";"2";"[7,8]";"2";"0";"1"
"1533";"1";"115";"1";"8";"3";"2";"6";"0";"[2,3,4,6,10]";"1";"0";"1"
"1534";"24";"115";"1";"2";"4";"2";"6";"1";"[6,7,8,9,10]";"2";"0";"1"
"1535";"23";"115";"1";"4";"2";"2";"6";"0";"[7,8]";"2";"0";"1"
"1536";"16";"115";"1";"9";"2";"2";"6";"1";"[2,7,10]";"2";"0";"1"
"1537";"36";"115";"1";"7";"3";"2";"6";"2";"[2,4,9]";"2";"0";"1"
"1538";"33";"115";"1";"5";"2";"2";"6";"0";"[1,6]";"2";"0";"1"
"1539";"38";"115";"1";"2";"3";"2";"6";"1";"[6,7,8,9,10]";"1";"0";"1"
"1540";"32";"2";"1";"10";"1";"2";"6";"0";"[1,2,3,6,8,9]";"2";"0";"1"
"1541";"13";"115";"1";"5";"4";"2";"6";"0";"[1,6]";"2";"0";"1"
