"id";"id_subj";"time";"session";"id_grp";"grp";"round";"period";"sig";"links";"choice";"hist";"active"
"1";"40";"0";"1";"11";"1";"1";"1";"1";"[16,18]";"0";"0";"1"
"2";"38";"0";"1";"2";"1";"1";"1";"1";"[4,38]";"0";"0";"1"
"3";"5";"0";"1";"31";"1";"1";"1";"1";"[15,19,24,30,34]";"0";"0";"1"
"4";"3";"0";"1";"14";"1";"1";"1";"1";"[26,35,40]";"0";"0";"1"
"5";"28";"0";"1";"7";"1";"1";"1";"1";"[28,40]";"0";"0";"1"
"6";"21";"0";"1";"28";"1";"1";"1";"1";"[7,33]";"0";"0";"1"
"7";"32";"0";"1";"20";"1";"1";"1";"1";"[8,27,38]";"0";"0";"1"
"8";"35";"0";"1";"33";"1";"1";"1";"1";"[4,28]";"0";"0";"1"
"9";"11";"0";"1";"17";"1";"1";"1";"1";"[19]";"0";"0";"1"
"10";"33";"0";"1";"9";"1";"1";"1";"2";"[1,3,10,13,29,37]";"0";"0";"1"
"11";"16";"0";"1";"37";"1";"1";"1";"2";"[9,10,13,29,30]";"0";"0";"1"
"12";"26";"0";"1";"5";"1";"1";"1";"2";"[12,22,32]";"0";"0";"1"
"13";"6";"0";"1";"1";"1";"1";"1";"2";"[3,9,13,23]";"0";"0";"1"
"14";"4";"0";"1";"22";"1";"1";"1";"1";"[5,12,32,34]";"0";"0";"1"
"15";"25";"0";"1";"16";"1";"1";"1";"2";"[3,11,18,27]";"0";"0";"1"
"16";"7";"0";"1";"3";"1";"1";"1";"1";"[1,9,10,13,16,18]";"0";"0";"1"
"17";"34";"0";"1";"19";"1";"1";"1";"1";"[17,30,31,32]";"0";"0";"1"
"18";"17";"0";"1";"15";"1";"1";"1";"2";"[6,21,24,29,30,31,32,34]";"0";"0";"1"
"19";"18";"0";"1";"32";"1";"1";"1";"1";"[5,15,19,22,24,29,34]";"0";"0";"1"
"20";"36";"0";"1";"8";"1";"1";"1";"1";"[6,20]";"0";"0";"1"
"21";"14";"0";"1";"10";"1";"1";"1";"1";"[3,9,29,37]";"0";"0";"1"
"22";"1";"0";"1";"12";"1";"1";"1";"1";"[5,22]";"0";"0";"1"
"23";"37";"0";"1";"4";"1";"1";"1";"1";"[2,33,38]";"0";"0";"1"
"24";"2";"0";"1";"6";"1";"1";"1";"1";"[8,15,24,30,34]";"0";"0";"1"
"25";"22";"0";"1";"36";"1";"1";"1";"1";"[21,38,39]";"0";"0";"1"
"26";"31";"0";"1";"34";"1";"1";"1";"2";"[6,15,22,24,29,30,31,32]";"0";"0";"1"
"27";"20";"0";"1";"39";"1";"1";"1";"1";"[21,36,38]";"0";"0";"1"
"28";"23";"0";"1";"13";"1";"1";"1";"1";"[1,3,9,21,23,37]";"0";"0";"1"
"29";"15";"0";"1";"30";"1";"1";"1";"1";"[6,15,19,24,31,34,37]";"0";"0";"1"
"30";"24";"0";"1";"35";"1";"1";"1";"1";"[14,26]";"0";"0";"1"
"31";"27";"0";"1";"40";"1";"1";"1";"1";"[7,14,38]";"0";"0";"1"
"32";"30";"0";"1";"27";"1";"1";"1";"1";"[16,18,20,25]";"0";"0";"1"
"33";"10";"0";"1";"29";"1";"1";"1";"1";"[9,10,15,24,32,34,37]";"0";"0";"1"
"34";"39";"0";"1";"25";"1";"1";"1";"1";"[27]";"0";"0";"1"
"35";"29";"0";"1";"24";"1";"1";"1";"1";"[6,15,29,30,31,32,34]";"0";"0";"1"
"36";"12";"0";"1";"23";"1";"1";"1";"2";"[1,13,21]";"0";"0";"1"
"37";"13";"0";"1";"26";"1";"1";"1";"1";"[14,35]";"0";"0";"1"
"38";"19";"0";"1";"38";"1";"1";"1";"1";"[2,4,20,36,39,40]";"0";"0";"1"
"39";"9";"0";"1";"18";"1";"1";"1";"2";"[3,11,16,27]";"0";"0";"1"
"40";"8";"0";"1";"21";"1";"1";"1";"2";"[13,15,23,36,39]";"0";"0";"1"
"41";"16";"6";"1";"37";"1";"1";"1";"2";"[9,10,13,29,30]";"2";"0";"1"
"42";"4";"6";"1";"22";"1";"1";"1";"1";"[5,12,32,34]";"1";"0";"1"
"43";"5";"7";"1";"31";"1";"1";"1";"1";"[15,19,24,30,34]";"1";"0";"1"
"44";"17";"7";"1";"15";"1";"1";"1";"2";"[6,21,24,29,30,31,32,34]";"2";"0";"1"
"45";"16";"7";"1";"37";"1";"1";"1";"2";"[9,10,13,29,30]";"2";"0";"1"
"46";"36";"7";"1";"8";"1";"1";"1";"1";"[6,20]";"1";"0";"1"
"47";"4";"7";"1";"22";"1";"1";"1";"1";"[5,12,32,34]";"1";"0";"1"
"48";"35";"7";"1";"33";"1";"1";"1";"1";"[4,28]";"1";"0";"1"
"49";"5";"8";"1";"31";"1";"1";"1";"1";"[15,19,24,30,34]";"1";"0";"1"
"50";"17";"8";"1";"15";"1";"1";"1";"2";"[6,21,24,29,30,31,32,34]";"2";"0";"1"
"51";"10";"8";"1";"29";"1";"1";"1";"1";"[9,10,15,24,32,34,37]";"1";"0";"1"
"52";"26";"8";"1";"5";"1";"1";"1";"2";"[12,22,32]";"2";"0";"1"
"53";"33";"8";"1";"9";"1";"1";"1";"2";"[1,3,10,13,29,37]";"2";"0";"1"
"54";"36";"8";"1";"8";"1";"1";"1";"1";"[6,20]";"1";"0";"1"
"55";"35";"8";"1";"33";"1";"1";"1";"1";"[4,28]";"1";"0";"1"
"56";"24";"8";"1";"35";"1";"1";"1";"1";"[14,26]";"1";"0";"1"
"57";"15";"9";"1";"30";"1";"1";"1";"1";"[6,15,19,24,31,34,37]";"1";"0";"1"
"58";"32";"9";"1";"20";"1";"1";"1";"1";"[8,27,38]";"1";"0";"1"
"59";"40";"9";"1";"11";"1";"1";"1";"1";"[16,18]";"1";"0";"1"
"60";"11";"9";"1";"17";"1";"1";"1";"1";"[19]";"1";"0";"1"
"61";"10";"9";"1";"29";"1";"1";"1";"1";"[9,10,15,24,32,34,37]";"1";"0";"1"
"62";"9";"9";"1";"18";"1";"1";"1";"2";"[3,11,16,27]";"1";"0";"1"
"63";"23";"9";"1";"13";"1";"1";"1";"1";"[1,3,9,21,23,37]";"1";"0";"1"
"64";"37";"9";"1";"4";"1";"1";"1";"1";"[2,33,38]";"1";"0";"1"
"65";"26";"9";"1";"5";"1";"1";"1";"2";"[12,22,32]";"2";"0";"1"
"66";"33";"9";"1";"9";"1";"1";"1";"2";"[1,3,10,13,29,37]";"2";"0";"1"
"67";"19";"9";"1";"38";"1";"1";"1";"1";"[2,4,20,36,39,40]";"1";"0";"1"
"68";"24";"9";"1";"35";"1";"1";"1";"1";"[14,26]";"1";"0";"1"
"69";"31";"10";"1";"34";"1";"1";"1";"2";"[6,15,22,24,29,30,31,32]";"2";"0";"1"
"70";"29";"10";"1";"24";"1";"1";"1";"1";"[6,15,29,30,31,32,34]";"1";"0";"1"
"71";"15";"10";"1";"30";"1";"1";"1";"1";"[6,15,19,24,31,34,37]";"1";"0";"1"
"72";"20";"10";"1";"39";"1";"1";"1";"1";"[21,36,38]";"1";"0";"1"
"73";"32";"10";"1";"20";"1";"1";"1";"1";"[8,27,38]";"1";"0";"1"
"74";"1";"10";"1";"12";"1";"1";"1";"1";"[5,22]";"1";"0";"1"
"75";"40";"10";"1";"11";"1";"1";"1";"1";"[16,18]";"1";"0";"1"
"76";"2";"10";"1";"6";"1";"1";"1";"1";"[8,15,24,30,34]";"1";"0";"1"
"77";"11";"10";"1";"17";"1";"1";"1";"1";"[19]";"1";"0";"1"
"78";"9";"10";"1";"18";"1";"1";"1";"2";"[3,11,16,27]";"1";"0";"1"
"79";"23";"10";"1";"13";"1";"1";"1";"1";"[1,3,9,21,23,37]";"1";"0";"1"
"80";"22";"10";"1";"36";"1";"1";"1";"1";"[21,38,39]";"1";"0";"1"
"81";"37";"10";"1";"4";"1";"1";"1";"1";"[2,33,38]";"1";"0";"1"
"82";"7";"10";"1";"3";"1";"1";"1";"1";"[1,9,10,13,16,18]";"1";"0";"1"
"83";"19";"10";"1";"38";"1";"1";"1";"1";"[2,4,20,36,39,40]";"1";"0";"1"
"84";"31";"11";"1";"34";"1";"1";"1";"2";"[6,15,22,24,29,30,31,32]";"2";"0";"1"
"85";"29";"11";"1";"24";"1";"1";"1";"1";"[6,15,29,30,31,32,34]";"1";"0";"1"
"86";"20";"11";"1";"39";"1";"1";"1";"1";"[21,36,38]";"1";"0";"1"
"87";"25";"11";"1";"16";"1";"1";"1";"2";"[3,11,18,27]";"2";"0";"1"
"88";"1";"11";"1";"12";"1";"1";"1";"1";"[5,22]";"1";"0";"1"
"89";"2";"11";"1";"6";"1";"1";"1";"1";"[8,15,24,30,34]";"1";"0";"1"
"90";"27";"11";"1";"40";"1";"1";"1";"1";"[7,14,38]";"1";"0";"1"
"91";"22";"11";"1";"36";"1";"1";"1";"1";"[21,38,39]";"1";"0";"1"
"92";"7";"11";"1";"3";"1";"1";"1";"1";"[1,9,10,13,16,18]";"1";"0";"1"
"93";"39";"11";"1";"25";"1";"1";"1";"1";"[27]";"1";"0";"1"
"94";"14";"11";"1";"10";"1";"1";"1";"1";"[3,9,29,37]";"1";"0";"1"
"95";"28";"11";"1";"7";"1";"1";"1";"1";"[28,40]";"2";"0";"1"
"96";"25";"12";"1";"16";"1";"1";"1";"2";"[3,11,18,27]";"2";"0";"1"
"97";"27";"12";"1";"40";"1";"1";"1";"1";"[7,14,38]";"1";"0";"1"
"98";"34";"12";"1";"19";"1";"1";"1";"1";"[17,30,31,32]";"2";"0";"1"
"99";"18";"12";"1";"32";"1";"1";"1";"1";"[5,15,19,22,24,29,34]";"1";"0";"1"
"100";"39";"12";"1";"25";"1";"1";"1";"1";"[27]";"1";"0";"1"
"101";"30";"12";"1";"27";"1";"1";"1";"1";"[16,18,20,25]";"1";"0";"1"
"102";"14";"12";"1";"10";"1";"1";"1";"1";"[3,9,29,37]";"1";"0";"1"
"103";"28";"12";"1";"7";"1";"1";"1";"1";"[28,40]";"2";"0";"1"
"104";"6";"13";"1";"1";"1";"1";"1";"2";"[3,9,13,23]";"1";"0";"1"
"105";"34";"13";"1";"19";"1";"1";"1";"1";"[17,30,31,32]";"2";"0";"1"
"106";"18";"13";"1";"32";"1";"1";"1";"1";"[5,15,19,22,24,29,34]";"1";"0";"1"
"107";"30";"13";"1";"27";"1";"1";"1";"1";"[16,18,20,25]";"1";"0";"1"
"108";"6";"14";"1";"1";"1";"1";"1";"2";"[3,9,13,23]";"1";"0";"1"
"109";"3";"14";"1";"14";"1";"1";"1";"1";"[26,35,40]";"1";"0";"1"
"110";"3";"15";"1";"14";"1";"1";"1";"1";"[26,35,40]";"1";"0";"1"
"111";"8";"15";"1";"21";"1";"1";"1";"2";"[13,15,23,36,39]";"2";"0";"1"
"112";"8";"16";"1";"21";"1";"1";"1";"2";"[13,15,23,36,39]";"2";"0";"1"
"113";"12";"16";"1";"23";"1";"1";"1";"2";"[1,13,21]";"2";"0";"1"
"114";"13";"17";"1";"26";"1";"1";"1";"1";"[14,35]";"1";"0";"1"
"115";"12";"17";"1";"23";"1";"1";"1";"2";"[1,13,21]";"2";"0";"1"
"116";"13";"18";"1";"26";"1";"1";"1";"1";"[14,35]";"1";"0";"1"
"117";"21";"19";"1";"28";"1";"1";"1";"1";"[7,33]";"1";"0";"1"
"118";"21";"20";"1";"28";"1";"1";"1";"1";"[7,33]";"1";"0";"1"
"119";"38";"31";"1";"2";"1";"1";"1";"1";"[4,38]";"0";"0";"1"
"120";"0";"30";"1";"2";"1";"1";"1";"1";"[4,38]";"2";"0";"0"
"121";"38";"4";"1";"2";"1";"1";"2";"1";"[4,38]";"1";"0";"1"
"122";"4";"4";"1";"22";"1";"1";"2";"1";"[5,12,32,34]";"1";"0";"1"
"123";"28";"4";"1";"7";"1";"1";"2";"1";"[28,40]";"2";"0";"1"
"124";"27";"4";"1";"40";"1";"1";"2";"1";"[7,14,38]";"1";"0";"1"
"125";"38";"5";"1";"2";"1";"1";"2";"1";"[4,38]";"1";"0";"1"
"126";"40";"5";"1";"11";"1";"1";"2";"1";"[16,18]";"1";"0";"1"
"127";"4";"5";"1";"22";"1";"1";"2";"1";"[5,12,32,34]";"1";"0";"1"
"128";"2";"5";"1";"6";"1";"1";"2";"1";"[8,15,24,30,34]";"1";"0";"1"
"129";"28";"5";"1";"7";"1";"1";"2";"1";"[28,40]";"2";"0";"1"
"130";"24";"5";"1";"35";"1";"1";"2";"1";"[14,26]";"1";"0";"1"
"131";"27";"5";"1";"40";"1";"1";"2";"1";"[7,14,38]";"1";"0";"1"
"132";"29";"6";"1";"24";"1";"1";"2";"1";"[6,15,29,30,31,32,34]";"1";"0";"1"
"133";"40";"6";"1";"11";"1";"1";"2";"1";"[16,18]";"1";"0";"1"
"134";"36";"6";"1";"8";"1";"1";"2";"1";"[6,20]";"1";"0";"1"
"135";"32";"6";"1";"20";"1";"1";"2";"1";"[8,27,38]";"1";"0";"1"
"136";"2";"6";"1";"6";"1";"1";"2";"1";"[8,15,24,30,34]";"1";"0";"1"
"137";"24";"6";"1";"35";"1";"1";"2";"1";"[14,26]";"1";"0";"1"
"138";"37";"6";"1";"4";"1";"1";"2";"1";"[2,33,38]";"1";"0";"1"
"139";"25";"6";"1";"16";"1";"1";"2";"2";"[3,11,18,27]";"1";"0";"1"
"140";"16";"6";"1";"37";"1";"1";"2";"2";"[9,10,13,29,30]";"2";"0";"1"
"141";"1";"6";"1";"12";"1";"1";"2";"1";"[5,22]";"1";"0";"1"
"142";"7";"7";"1";"3";"1";"1";"2";"1";"[1,9,10,13,16,18]";"1";"0";"1"
"143";"29";"7";"1";"24";"1";"1";"2";"1";"[6,15,29,30,31,32,34]";"1";"0";"1"
"144";"36";"7";"1";"8";"1";"1";"2";"1";"[6,20]";"1";"0";"1"
"145";"5";"7";"1";"31";"1";"1";"2";"1";"[15,19,24,30,34]";"2";"0";"1"
"146";"32";"7";"1";"20";"1";"1";"2";"1";"[8,27,38]";"1";"0";"1"
"147";"37";"7";"1";"4";"1";"1";"2";"1";"[2,33,38]";"1";"0";"1"
"148";"3";"7";"1";"14";"1";"1";"2";"1";"[26,35,40]";"1";"0";"1"
"149";"25";"7";"1";"16";"1";"1";"2";"2";"[3,11,18,27]";"1";"0";"1"
"150";"16";"7";"1";"37";"1";"1";"2";"2";"[9,10,13,29,30]";"2";"0";"1"
"151";"1";"7";"1";"12";"1";"1";"2";"1";"[5,22]";"1";"0";"1"
"152";"19";"7";"1";"38";"1";"1";"2";"1";"[2,4,20,36,39,40]";"1";"0";"1"
"153";"7";"8";"1";"3";"1";"1";"2";"1";"[1,9,10,13,16,18]";"1";"0";"1"
"154";"39";"8";"1";"25";"1";"1";"2";"1";"[27]";"1";"0";"1"
"155";"5";"8";"1";"31";"1";"1";"2";"1";"[15,19,24,30,34]";"2";"0";"1"
"156";"3";"8";"1";"14";"1";"1";"2";"1";"[26,35,40]";"1";"0";"1"
"157";"19";"8";"1";"38";"1";"1";"2";"1";"[2,4,20,36,39,40]";"1";"0";"1"
"158";"35";"9";"1";"33";"1";"1";"2";"1";"[4,28]";"1";"0";"1"
"159";"39";"9";"1";"25";"1";"1";"2";"1";"[27]";"1";"0";"1"
"160";"21";"9";"1";"28";"1";"1";"2";"1";"[7,33]";"1";"0";"1"
"161";"6";"9";"1";"1";"1";"1";"2";"2";"[3,9,13,23]";"0";"12";"1"
"162";"13";"10";"1";"26";"1";"1";"2";"1";"[14,35]";"1";"0";"1"
"163";"20";"10";"1";"39";"1";"1";"2";"1";"[21,36,38]";"1";"0";"1"
"164";"35";"10";"1";"33";"1";"1";"2";"1";"[4,28]";"1";"0";"1"
"165";"21";"10";"1";"28";"1";"1";"2";"1";"[7,33]";"1";"0";"1"
"166";"23";"10";"1";"13";"1";"1";"2";"1";"[1,3,9,21,23,37]";"1";"0";"1"
"167";"26";"10";"1";"5";"1";"1";"2";"2";"[12,22,32]";"2";"0";"1"
"168";"12";"10";"1";"23";"1";"1";"2";"2";"[1,13,21]";"2";"0";"1"
"169";"6";"10";"1";"1";"1";"1";"2";"2";"[3,9,13,23]";"0";"12";"1"
"170";"31";"10";"1";"34";"1";"1";"2";"2";"[6,15,22,24,29,30,31,32]";"1";"0";"1"
"171";"13";"11";"1";"26";"1";"1";"2";"1";"[14,35]";"1";"0";"1"
"172";"20";"11";"1";"39";"1";"1";"2";"1";"[21,36,38]";"1";"0";"1"
"173";"18";"11";"1";"32";"1";"1";"2";"1";"[5,15,19,22,24,29,34]";"1";"0";"1"
"174";"23";"11";"1";"13";"1";"1";"2";"1";"[1,3,9,21,23,37]";"1";"0";"1"
"175";"26";"11";"1";"5";"1";"1";"2";"2";"[12,22,32]";"2";"0";"1"
"176";"12";"11";"1";"23";"1";"1";"2";"2";"[1,13,21]";"2";"0";"1"
"177";"33";"11";"1";"9";"1";"1";"2";"2";"[1,3,10,13,29,37]";"1";"0";"1"
"178";"31";"11";"1";"34";"1";"1";"2";"2";"[6,15,22,24,29,30,31,32]";"1";"0";"1"
"179";"11";"12";"1";"17";"1";"1";"2";"1";"[19]";"1";"0";"1"
"180";"34";"12";"1";"19";"1";"1";"2";"1";"[17,30,31,32]";"1";"0";"1"
"181";"30";"12";"1";"27";"1";"1";"2";"1";"[16,18,20,25]";"1";"0";"1"
"182";"18";"12";"1";"32";"1";"1";"2";"1";"[5,15,19,22,24,29,34]";"1";"0";"1"
"183";"33";"12";"1";"9";"1";"1";"2";"2";"[1,3,10,13,29,37]";"1";"0";"1"
"184";"11";"13";"1";"17";"1";"1";"2";"1";"[19]";"1";"0";"1"
"185";"34";"13";"1";"19";"1";"1";"2";"1";"[17,30,31,32]";"1";"0";"1"
"186";"30";"13";"1";"27";"1";"1";"2";"1";"[16,18,20,25]";"1";"0";"1"
"187";"10";"14";"1";"29";"1";"1";"2";"1";"[9,10,15,24,32,34,37]";"1";"0";"1"
"188";"10";"15";"1";"29";"1";"1";"2";"1";"[9,10,15,24,32,34,37]";"1";"0";"1"
"189";"17";"16";"1";"15";"1";"1";"2";"2";"[6,21,24,29,30,31,32,34]";"1";"0";"1"
"190";"9";"16";"1";"18";"1";"1";"2";"2";"[3,11,16,27]";"1";"0";"1"
"191";"17";"17";"1";"15";"1";"1";"2";"2";"[6,21,24,29,30,31,32,34]";"1";"0";"1"
"192";"9";"17";"1";"18";"1";"1";"2";"2";"[3,11,16,27]";"1";"0";"1"
"193";"15";"17";"1";"30";"1";"1";"2";"1";"[6,15,19,24,31,34,37]";"2";"0";"1"
"194";"8";"18";"1";"21";"1";"1";"2";"2";"[13,15,23,36,39]";"1";"0";"1"
"195";"15";"18";"1";"30";"1";"1";"2";"1";"[6,15,19,24,31,34,37]";"2";"0";"1"
"196";"8";"19";"1";"21";"1";"1";"2";"2";"[13,15,23,36,39]";"1";"0";"1"
"197";"22";"22";"1";"36";"1";"1";"2";"1";"[21,38,39]";"2";"0";"1"
"198";"14";"22";"1";"10";"1";"1";"2";"1";"[3,9,29,37]";"1";"0";"1"
"199";"22";"23";"1";"36";"1";"1";"2";"1";"[21,38,39]";"2";"0";"1"
"200";"14";"23";"1";"10";"1";"1";"2";"1";"[3,9,29,37]";"1";"0";"1"
"201";"6";"26";"1";"1";"1";"1";"2";"2";"[3,9,13,23]";"1";"12";"1"
"202";"6";"27";"1";"1";"1";"1";"2";"2";"[3,9,13,23]";"1";"12";"1"
"203";"38";"1";"1";"2";"1";"1";"3";"1";"[4,38]";"1";"0";"1"
"204";"7";"2";"1";"3";"1";"1";"3";"1";"[1,9,10,13,16,18]";"1";"0";"1"
"205";"38";"2";"1";"2";"1";"1";"3";"1";"[4,38]";"1";"0";"1"
"206";"35";"3";"1";"33";"1";"1";"3";"1";"[4,28]";"1";"0";"1"
"207";"33";"3";"1";"9";"1";"1";"3";"2";"[1,3,10,13,29,37]";"1";"0";"1"
"208";"7";"3";"1";"3";"1";"1";"3";"1";"[1,9,10,13,16,18]";"1";"0";"1"
"209";"16";"3";"1";"37";"1";"1";"3";"2";"[9,10,13,29,30]";"2";"0";"1"
"210";"23";"3";"1";"13";"1";"1";"3";"1";"[1,3,9,21,23,37]";"1";"0";"1"
"211";"18";"3";"1";"32";"1";"1";"3";"1";"[5,15,19,22,24,29,34]";"1";"0";"1"
"212";"28";"4";"1";"7";"1";"1";"3";"1";"[28,40]";"2";"0";"1"
"213";"35";"4";"1";"33";"1";"1";"3";"1";"[4,28]";"1";"0";"1"
"214";"33";"4";"1";"9";"1";"1";"3";"2";"[1,3,10,13,29,37]";"1";"0";"1"
"215";"32";"4";"1";"20";"1";"1";"3";"1";"[8,27,38]";"1";"0";"1"
"216";"16";"4";"1";"37";"1";"1";"3";"2";"[9,10,13,29,30]";"2";"0";"1"
"217";"23";"4";"1";"13";"1";"1";"3";"1";"[1,3,9,21,23,37]";"1";"0";"1"
"218";"40";"4";"1";"11";"1";"1";"3";"1";"[16,18]";"1";"0";"1"
"219";"4";"4";"1";"22";"1";"1";"3";"1";"[5,12,32,34]";"1";"0";"1"
"220";"39";"4";"1";"25";"1";"1";"3";"1";"[27]";"1";"0";"1"
"221";"18";"4";"1";"32";"1";"1";"3";"1";"[5,15,19,22,24,29,34]";"1";"0";"1"
"222";"29";"4";"1";"24";"1";"1";"3";"1";"[6,15,29,30,31,32,34]";"1";"0";"1"
"223";"28";"5";"1";"7";"1";"1";"3";"1";"[28,40]";"2";"0";"1"
"224";"21";"5";"1";"28";"1";"1";"3";"1";"[7,33]";"1";"0";"1"
"225";"37";"5";"1";"4";"1";"1";"3";"1";"[2,33,38]";"1";"0";"1"
"226";"32";"5";"1";"20";"1";"1";"3";"1";"[8,27,38]";"1";"0";"1"
"227";"40";"5";"1";"11";"1";"1";"3";"1";"[16,18]";"1";"0";"1"
"228";"4";"5";"1";"22";"1";"1";"3";"1";"[5,12,32,34]";"1";"0";"1"
"229";"36";"5";"1";"8";"1";"1";"3";"1";"[6,20]";"2";"0";"1"
"230";"39";"5";"1";"25";"1";"1";"3";"1";"[27]";"1";"0";"1"
"231";"29";"5";"1";"24";"1";"1";"3";"1";"[6,15,29,30,31,32,34]";"1";"0";"1"
"232";"10";"6";"1";"29";"1";"1";"3";"1";"[9,10,15,24,32,34,37]";"1";"0";"1"
"233";"21";"6";"1";"28";"1";"1";"3";"1";"[7,33]";"1";"0";"1"
"234";"37";"6";"1";"4";"1";"1";"3";"1";"[2,33,38]";"1";"0";"1"
"235";"17";"6";"1";"15";"1";"1";"3";"2";"[6,21,24,29,30,31,32,34]";"1";"0";"1"
"236";"27";"6";"1";"40";"1";"1";"3";"1";"[7,14,38]";"1";"0";"1"
"237";"25";"6";"1";"16";"1";"1";"3";"2";"[3,11,18,27]";"1";"0";"1"
"238";"36";"6";"1";"8";"1";"1";"3";"1";"[6,20]";"2";"0";"1"
"239";"10";"7";"1";"29";"1";"1";"3";"1";"[9,10,15,24,32,34,37]";"1";"0";"1"
"240";"17";"7";"1";"15";"1";"1";"3";"2";"[6,21,24,29,30,31,32,34]";"1";"0";"1"
"241";"27";"7";"1";"40";"1";"1";"3";"1";"[7,14,38]";"1";"0";"1"
"242";"25";"7";"1";"16";"1";"1";"3";"2";"[3,11,18,27]";"1";"0";"1"
"243";"30";"7";"1";"27";"1";"1";"3";"1";"[16,18,20,25]";"1";"0";"1"
"244";"24";"8";"1";"35";"1";"1";"3";"1";"[14,26]";"1";"0";"1"
"245";"2";"8";"1";"6";"1";"1";"3";"1";"[8,15,24,30,34]";"1";"0";"1"
"246";"13";"8";"1";"26";"1";"1";"3";"1";"[14,35]";"2";"0";"1"
"247";"30";"8";"1";"27";"1";"1";"3";"1";"[16,18,20,25]";"1";"0";"1"
"248";"5";"8";"1";"31";"1";"1";"3";"1";"[15,19,24,30,34]";"1";"0";"1"
"249";"24";"9";"1";"35";"1";"1";"3";"1";"[14,26]";"1";"0";"1"
"250";"31";"9";"1";"34";"1";"1";"3";"2";"[6,15,22,24,29,30,31,32]";"0";"1";"1"
"251";"2";"9";"1";"6";"1";"1";"3";"1";"[8,15,24,30,34]";"1";"0";"1"
"252";"1";"9";"1";"12";"1";"1";"3";"1";"[5,22]";"1";"0";"1"
"253";"13";"9";"1";"26";"1";"1";"3";"1";"[14,35]";"2";"0";"1"
"254";"5";"9";"1";"31";"1";"1";"3";"1";"[15,19,24,30,34]";"1";"0";"1"
"255";"8";"10";"1";"21";"1";"1";"3";"2";"[13,15,23,36,39]";"2";"0";"1"
"256";"1";"10";"1";"12";"1";"1";"3";"1";"[5,22]";"1";"0";"1"
"257";"31";"10";"1";"34";"1";"1";"3";"2";"[6,15,22,24,29,30,31,32]";"0";"3";"1"
"258";"20";"10";"1";"39";"1";"1";"3";"1";"[21,36,38]";"1";"0";"1"
"259";"26";"10";"1";"5";"1";"1";"3";"2";"[12,22,32]";"2";"0";"1"
"260";"19";"10";"1";"38";"1";"1";"3";"1";"[2,4,20,36,39,40]";"1";"0";"1"
"261";"14";"10";"1";"10";"1";"1";"3";"1";"[3,9,29,37]";"1";"0";"1"
"262";"31";"11";"1";"34";"1";"1";"3";"2";"[6,15,22,24,29,30,31,32]";"1";"3";"1"
"263";"8";"11";"1";"21";"1";"1";"3";"2";"[13,15,23,36,39]";"2";"0";"1"
"264";"20";"11";"1";"39";"1";"1";"3";"1";"[21,36,38]";"1";"0";"1"
"265";"22";"11";"1";"36";"1";"1";"3";"1";"[21,38,39]";"1";"0";"1"
"266";"12";"11";"1";"23";"1";"1";"3";"2";"[1,13,21]";"1";"0";"1"
"267";"26";"11";"1";"5";"1";"1";"3";"2";"[12,22,32]";"2";"0";"1"
"268";"19";"11";"1";"38";"1";"1";"3";"1";"[2,4,20,36,39,40]";"1";"0";"1"
"269";"14";"12";"1";"10";"1";"1";"3";"1";"[3,9,29,37]";"1";"0";"1"
"270";"31";"12";"1";"34";"1";"1";"3";"2";"[6,15,22,24,29,30,31,32]";"1";"3";"1"
"271";"22";"12";"1";"36";"1";"1";"3";"1";"[21,38,39]";"1";"0";"1"
"272";"12";"12";"1";"23";"1";"1";"3";"2";"[1,13,21]";"1";"0";"1"
"273";"7";"13";"1";"3";"1";"1";"3";"1";"[1,9,10,13,16,18]";"1";"1";"1"
"274";"34";"13";"1";"19";"1";"1";"3";"1";"[17,30,31,32]";"1";"0";"1"
"275";"6";"13";"1";"1";"1";"1";"3";"2";"[3,9,13,23]";"1";"0";"1"
"276";"15";"14";"1";"30";"1";"1";"3";"1";"[6,15,19,24,31,34,37]";"1";"0";"1"
"277";"34";"14";"1";"19";"1";"1";"3";"1";"[17,30,31,32]";"1";"0";"1"
"278";"6";"14";"1";"1";"1";"1";"3";"2";"[3,9,13,23]";"1";"0";"1"
"279";"15";"15";"1";"30";"1";"1";"3";"1";"[6,15,19,24,31,34,37]";"1";"0";"1"
"280";"3";"16";"1";"14";"1";"1";"3";"1";"[26,35,40]";"1";"0";"1"
"281";"7";"17";"1";"3";"1";"1";"3";"1";"[1,9,10,13,16,18]";"1";"2";"1"
"282";"11";"17";"1";"17";"1";"1";"3";"1";"[19]";"1";"0";"1"
"283";"3";"17";"1";"14";"1";"1";"3";"1";"[26,35,40]";"1";"0";"1"
"284";"11";"18";"1";"17";"1";"1";"3";"1";"[19]";"1";"0";"1"
"285";"9";"19";"1";"18";"1";"1";"3";"2";"[3,11,16,27]";"2";"0";"1"
"286";"9";"20";"1";"18";"1";"1";"3";"2";"[3,11,16,27]";"2";"0";"1"
"287";"16";"2";"1";"37";"1";"1";"4";"2";"[9,10,13,29,30]";"2";"0";"1"
"288";"5";"3";"1";"31";"1";"1";"4";"1";"[15,19,24,30,34]";"1";"0";"1"
"289";"18";"3";"1";"32";"1";"1";"4";"1";"[5,15,19,22,24,29,34]";"1";"0";"1"
"290";"35";"3";"1";"33";"1";"1";"4";"1";"[4,28]";"1";"0";"1"
"291";"10";"3";"1";"29";"1";"1";"4";"1";"[9,10,15,24,32,34,37]";"1";"0";"1"
"292";"16";"3";"1";"37";"1";"1";"4";"2";"[9,10,13,29,30]";"2";"0";"1"
"293";"5";"4";"1";"31";"1";"1";"4";"1";"[15,19,24,30,34]";"1";"0";"1"
"294";"28";"4";"1";"7";"1";"1";"4";"1";"[28,40]";"2";"0";"1"
"295";"18";"4";"1";"32";"1";"1";"4";"1";"[5,15,19,22,24,29,34]";"1";"0";"1"
"296";"35";"4";"1";"33";"1";"1";"4";"1";"[4,28]";"1";"0";"1"
"297";"10";"4";"1";"29";"1";"1";"4";"1";"[9,10,15,24,32,34,37]";"1";"0";"1"
"298";"28";"5";"1";"7";"1";"1";"4";"1";"[28,40]";"2";"0";"1"
"299";"27";"5";"1";"40";"1";"1";"4";"1";"[7,14,38]";"0";"2";"1"
"300";"15";"5";"1";"30";"1";"1";"4";"1";"[6,15,19,24,31,34,37]";"1";"0";"1"
"301";"29";"5";"1";"24";"1";"1";"4";"1";"[6,15,29,30,31,32,34]";"1";"0";"1"
"302";"3";"5";"1";"14";"1";"1";"4";"1";"[26,35,40]";"2";"0";"1"
"303";"33";"5";"1";"9";"1";"1";"4";"2";"[1,3,10,13,29,37]";"1";"0";"1"
"304";"37";"5";"1";"4";"1";"1";"4";"1";"[2,33,38]";"1";"0";"1"
"305";"32";"6";"1";"20";"1";"1";"4";"1";"[8,27,38]";"1";"0";"1"
"306";"38";"6";"1";"2";"1";"1";"4";"1";"[4,38]";"0";"1";"1"
"307";"15";"6";"1";"30";"1";"1";"4";"1";"[6,15,19,24,31,34,37]";"1";"0";"1"
"308";"29";"6";"1";"24";"1";"1";"4";"1";"[6,15,29,30,31,32,34]";"1";"0";"1"
"309";"27";"6";"1";"40";"1";"1";"4";"1";"[7,14,38]";"0";"1";"1"
"310";"3";"6";"1";"14";"1";"1";"4";"1";"[26,35,40]";"2";"0";"1"
"311";"33";"6";"1";"9";"1";"1";"4";"2";"[1,3,10,13,29,37]";"1";"0";"1"
"312";"37";"6";"1";"4";"1";"1";"4";"1";"[2,33,38]";"1";"0";"1"
"313";"4";"7";"1";"22";"1";"1";"4";"1";"[5,12,32,34]";"1";"0";"1"
"314";"2";"7";"1";"6";"1";"1";"4";"1";"[8,15,24,30,34]";"1";"0";"1"
"315";"7";"7";"1";"3";"1";"1";"4";"1";"[1,9,10,13,16,18]";"0";"2";"1"
"316";"32";"7";"1";"20";"1";"1";"4";"1";"[8,27,38]";"1";"0";"1"
"317";"38";"7";"1";"2";"1";"1";"4";"1";"[4,38]";"0";"4";"1"
"318";"36";"7";"1";"8";"1";"1";"4";"1";"[6,20]";"1";"0";"1"
"319";"4";"8";"1";"22";"1";"1";"4";"1";"[5,12,32,34]";"1";"0";"1"
"320";"24";"8";"1";"35";"1";"1";"4";"1";"[14,26]";"0";"2";"1"
"321";"2";"8";"1";"6";"1";"1";"4";"1";"[8,15,24,30,34]";"1";"0";"1"
"322";"11";"8";"1";"17";"1";"1";"4";"1";"[19]";"1";"0";"1"
"323";"30";"8";"1";"27";"1";"1";"4";"1";"[16,18,20,25]";"1";"0";"1"
"324";"38";"8";"1";"2";"1";"1";"4";"1";"[4,38]";"1";"4";"1"
"325";"36";"8";"1";"8";"1";"1";"4";"1";"[6,20]";"1";"0";"1"
"326";"7";"8";"1";"3";"1";"1";"4";"1";"[1,9,10,13,16,18]";"0";"3";"1"
"327";"34";"8";"1";"19";"1";"1";"4";"1";"[17,30,31,32]";"2";"0";"1"
"328";"11";"9";"1";"17";"1";"1";"4";"1";"[19]";"1";"0";"1"
"329";"30";"9";"1";"27";"1";"1";"4";"1";"[16,18,20,25]";"1";"0";"1"
"330";"17";"9";"1";"15";"1";"1";"4";"2";"[6,21,24,29,30,31,32,34]";"1";"0";"1"
"331";"24";"9";"1";"35";"1";"1";"4";"1";"[14,26]";"0";"1";"1"
"332";"38";"9";"1";"2";"1";"1";"4";"1";"[4,38]";"1";"4";"1"
"333";"27";"9";"1";"40";"1";"1";"4";"1";"[7,14,38]";"0";"2";"1"
"334";"6";"9";"1";"1";"1";"1";"4";"2";"[3,9,13,23]";"1";"0";"1"
"335";"34";"9";"1";"19";"1";"1";"4";"1";"[17,30,31,32]";"2";"0";"1"
"336";"7";"10";"1";"3";"1";"1";"4";"1";"[1,9,10,13,16,18]";"1";"3";"1"
"337";"24";"10";"1";"35";"1";"1";"4";"1";"[14,26]";"0";"2";"1"
"338";"17";"10";"1";"15";"1";"1";"4";"2";"[6,21,24,29,30,31,32,34]";"1";"0";"1"
"339";"13";"10";"1";"26";"1";"1";"4";"1";"[14,35]";"2";"0";"1"
"340";"6";"10";"1";"1";"1";"1";"4";"2";"[3,9,13,23]";"1";"0";"1"
"341";"19";"10";"1";"38";"1";"1";"4";"1";"[2,4,20,36,39,40]";"1";"0";"1"
"342";"21";"10";"1";"28";"1";"1";"4";"1";"[7,33]";"1";"0";"1"
"343";"27";"11";"1";"40";"1";"1";"4";"1";"[7,14,38]";"0";"3";"1"
"344";"25";"11";"1";"16";"1";"1";"4";"2";"[3,11,18,27]";"1";"0";"1"
"345";"7";"11";"1";"3";"1";"1";"4";"1";"[1,9,10,13,16,18]";"1";"3";"1"
"346";"13";"11";"1";"26";"1";"1";"4";"1";"[14,35]";"2";"0";"1"
"347";"19";"11";"1";"38";"1";"1";"4";"1";"[2,4,20,36,39,40]";"1";"0";"1"
"348";"21";"11";"1";"28";"1";"1";"4";"1";"[7,33]";"1";"0";"1"
"349";"24";"12";"1";"35";"1";"1";"4";"1";"[14,26]";"0";"3";"1"
"350";"25";"12";"1";"16";"1";"1";"4";"2";"[3,11,18,27]";"1";"0";"1"
"351";"8";"12";"1";"21";"1";"1";"4";"2";"[13,15,23,36,39]";"1";"0";"1"
"352";"26";"12";"1";"5";"1";"1";"4";"2";"[12,22,32]";"2";"0";"1"
"353";"14";"13";"1";"10";"1";"1";"4";"1";"[3,9,29,37]";"1";"0";"1"
"354";"27";"13";"1";"40";"1";"1";"4";"1";"[7,14,38]";"0";"4";"1"
"355";"8";"13";"1";"21";"1";"1";"4";"2";"[13,15,23,36,39]";"1";"0";"1"
"356";"26";"13";"1";"5";"1";"1";"4";"2";"[12,22,32]";"2";"0";"1"
"357";"14";"14";"1";"10";"1";"1";"4";"1";"[3,9,29,37]";"1";"0";"1"
"358";"20";"14";"1";"39";"1";"1";"4";"1";"[21,36,38]";"1";"0";"1"
"359";"39";"14";"1";"25";"1";"1";"4";"1";"[27]";"2";"0";"1"
"360";"20";"15";"1";"39";"1";"1";"4";"1";"[21,36,38]";"1";"0";"1"
"361";"1";"15";"1";"12";"1";"1";"4";"1";"[5,22]";"1";"0";"1"
"362";"39";"15";"1";"25";"1";"1";"4";"1";"[27]";"2";"0";"1"
"363";"9";"15";"1";"18";"1";"1";"4";"2";"[3,11,16,27]";"2";"0";"1"
"364";"1";"16";"1";"12";"1";"1";"4";"1";"[5,22]";"1";"0";"1"
"365";"40";"16";"1";"11";"1";"1";"4";"1";"[16,18]";"1";"0";"1"
"366";"9";"16";"1";"18";"1";"1";"4";"2";"[3,11,16,27]";"2";"0";"1"
"367";"27";"16";"1";"40";"1";"1";"4";"1";"[7,14,38]";"1";"4";"1"
"368";"23";"17";"1";"13";"1";"1";"4";"1";"[1,3,9,21,23,37]";"1";"0";"1"
"369";"40";"17";"1";"11";"1";"1";"4";"1";"[16,18]";"1";"0";"1"
"370";"27";"17";"1";"40";"1";"1";"4";"1";"[7,14,38]";"1";"4";"1"
"371";"23";"18";"1";"13";"1";"1";"4";"1";"[1,3,9,21,23,37]";"1";"0";"1"
"372";"12";"18";"1";"23";"1";"1";"4";"2";"[1,13,21]";"1";"0";"1"
"373";"31";"18";"1";"34";"1";"1";"4";"2";"[6,15,22,24,29,30,31,32]";"1";"0";"1"
"374";"12";"19";"1";"23";"1";"1";"4";"2";"[1,13,21]";"1";"0";"1"
"375";"31";"19";"1";"34";"1";"1";"4";"2";"[6,15,22,24,29,30,31,32]";"1";"0";"1"
"376";"24";"20";"1";"35";"1";"1";"4";"1";"[14,26]";"1";"3";"1"
"377";"24";"21";"1";"35";"1";"1";"4";"1";"[14,26]";"1";"3";"1"
"378";"12";"22";"1";"23";"1";"1";"4";"2";"[1,13,21]";"1";"1";"1"
"379";"12";"24";"1";"23";"1";"1";"4";"2";"[1,13,21]";"1";"2";"1"
"380";"12";"24";"1";"23";"1";"1";"4";"2";"[1,13,21]";"1";"3";"1"
"381";"12";"25";"1";"23";"1";"1";"4";"2";"[1,13,21]";"1";"4";"1"
"382";"22";"26";"1";"36";"1";"1";"4";"1";"[21,38,39]";"2";"0";"1"
"383";"22";"27";"1";"36";"1";"1";"4";"1";"[21,38,39]";"2";"0";"1"
"384";"16";"2";"1";"37";"1";"1";"5";"2";"[9,10,13,29,30]";"2";"0";"1"
"385";"38";"2";"1";"2";"1";"1";"5";"1";"[4,38]";"1";"0";"1"
"386";"10";"2";"1";"29";"1";"1";"5";"1";"[9,10,15,24,32,34,37]";"1";"0";"1"
"387";"16";"3";"1";"37";"1";"1";"5";"2";"[9,10,13,29,30]";"2";"0";"1"
"388";"34";"3";"1";"19";"1";"1";"5";"1";"[17,30,31,32]";"2";"0";"1"
"389";"38";"3";"1";"2";"1";"1";"5";"1";"[4,38]";"1";"0";"1"
"390";"18";"3";"1";"32";"1";"1";"5";"1";"[5,15,19,22,24,29,34]";"1";"0";"1"
"391";"7";"3";"1";"3";"1";"1";"5";"1";"[1,9,10,13,16,18]";"1";"0";"1"
"392";"40";"3";"1";"11";"1";"1";"5";"1";"[16,18]";"1";"0";"1"
"393";"32";"3";"1";"20";"1";"1";"5";"1";"[8,27,38]";"1";"0";"1"
"394";"10";"3";"1";"29";"1";"1";"5";"1";"[9,10,15,24,32,34,37]";"1";"0";"1"
"395";"2";"4";"1";"6";"1";"1";"5";"1";"[8,15,24,30,34]";"1";"0";"1"
"396";"34";"4";"1";"19";"1";"1";"5";"1";"[17,30,31,32]";"2";"0";"1"
"397";"33";"4";"1";"9";"1";"1";"5";"2";"[1,3,10,13,29,37]";"1";"0";"1"
"398";"24";"4";"1";"35";"1";"1";"5";"1";"[14,26]";"2";"0";"1"
"399";"39";"4";"1";"25";"1";"1";"5";"1";"[27]";"1";"0";"1"
"400";"18";"4";"1";"32";"1";"1";"5";"1";"[5,15,19,22,24,29,34]";"1";"0";"1"
"401";"7";"4";"1";"3";"1";"1";"5";"1";"[1,9,10,13,16,18]";"1";"0";"1"
"402";"40";"4";"1";"11";"1";"1";"5";"1";"[16,18]";"1";"0";"1"
"403";"32";"4";"1";"20";"1";"1";"5";"1";"[8,27,38]";"1";"0";"1"
"404";"28";"5";"1";"7";"1";"1";"5";"1";"[28,40]";"2";"0";"1"
"405";"17";"5";"1";"15";"1";"1";"5";"2";"[6,21,24,29,30,31,32,34]";"1";"0";"1"
"406";"2";"5";"1";"6";"1";"1";"5";"1";"[8,15,24,30,34]";"1";"0";"1"
"407";"33";"5";"1";"9";"1";"1";"5";"2";"[1,3,10,13,29,37]";"1";"0";"1"
"408";"24";"5";"1";"35";"1";"1";"5";"1";"[14,26]";"2";"0";"1"
"409";"15";"5";"1";"30";"1";"1";"5";"1";"[6,15,19,24,31,34,37]";"1";"0";"1"
"410";"39";"5";"1";"25";"1";"1";"5";"1";"[27]";"1";"0";"1"
"411";"29";"5";"1";"24";"1";"1";"5";"1";"[6,15,29,30,31,32,34]";"1";"0";"1"
"412";"35";"6";"1";"33";"1";"1";"5";"1";"[4,28]";"1";"0";"1"
"413";"28";"6";"1";"7";"1";"1";"5";"1";"[28,40]";"2";"0";"1"
"414";"17";"6";"1";"15";"1";"1";"5";"2";"[6,21,24,29,30,31,32,34]";"1";"0";"1"
"415";"11";"6";"1";"17";"1";"1";"5";"1";"[19]";"2";"0";"1"
"416";"15";"6";"1";"30";"1";"1";"5";"1";"[6,15,19,24,31,34,37]";"1";"0";"1"
"417";"19";"6";"1";"38";"1";"1";"5";"1";"[2,4,20,36,39,40]";"1";"0";"1"
"418";"29";"6";"1";"24";"1";"1";"5";"1";"[6,15,29,30,31,32,34]";"1";"0";"1"
"419";"35";"7";"1";"33";"1";"1";"5";"1";"[4,28]";"1";"0";"1"
"420";"11";"7";"1";"17";"1";"1";"5";"1";"[19]";"2";"0";"1"
"421";"37";"7";"1";"4";"1";"1";"5";"1";"[2,33,38]";"1";"0";"1"
"422";"23";"7";"1";"13";"1";"1";"5";"1";"[1,3,9,21,23,37]";"1";"0";"1"
"423";"19";"7";"1";"38";"1";"1";"5";"1";"[2,4,20,36,39,40]";"1";"0";"1"
"424";"31";"8";"1";"34";"1";"1";"5";"2";"[6,15,22,24,29,30,31,32]";"1";"0";"1"
"425";"4";"8";"1";"22";"1";"1";"5";"1";"[5,12,32,34]";"1";"0";"1"
"426";"37";"8";"1";"4";"1";"1";"5";"1";"[2,33,38]";"1";"0";"1"
"427";"23";"8";"1";"13";"1";"1";"5";"1";"[1,3,9,21,23,37]";"1";"0";"1"
"428";"5";"8";"1";"31";"1";"1";"5";"1";"[15,19,24,30,34]";"1";"0";"1"
"429";"21";"8";"1";"28";"1";"1";"5";"1";"[7,33]";"1";"0";"1"
"430";"12";"9";"1";"23";"1";"1";"5";"2";"[1,13,21]";"1";"0";"1"
"431";"31";"9";"1";"34";"1";"1";"5";"2";"[6,15,22,24,29,30,31,32]";"1";"0";"1"
"432";"20";"9";"1";"39";"1";"1";"5";"1";"[21,36,38]";"1";"0";"1"
"433";"4";"9";"1";"22";"1";"1";"5";"1";"[5,12,32,34]";"1";"0";"1"
"434";"5";"9";"1";"31";"1";"1";"5";"1";"[15,19,24,30,34]";"1";"0";"1"
"435";"36";"9";"1";"8";"1";"1";"5";"1";"[6,20]";"1";"0";"1"
"436";"22";"9";"1";"36";"1";"1";"5";"1";"[21,38,39]";"1";"0";"1"
"437";"3";"9";"1";"14";"1";"1";"5";"1";"[26,35,40]";"1";"0";"1"
"438";"21";"9";"1";"28";"1";"1";"5";"1";"[7,33]";"1";"0";"1"
"439";"1";"9";"1";"12";"1";"1";"5";"1";"[5,22]";"1";"0";"1"
"440";"12";"10";"1";"23";"1";"1";"5";"2";"[1,13,21]";"1";"0";"1"
"441";"20";"10";"1";"39";"1";"1";"5";"1";"[21,36,38]";"1";"0";"1"
"442";"26";"10";"1";"5";"1";"1";"5";"2";"[12,22,32]";"2";"0";"1"
"443";"36";"10";"1";"8";"1";"1";"5";"1";"[6,20]";"1";"0";"1"
"444";"22";"10";"1";"36";"1";"1";"5";"1";"[21,38,39]";"1";"0";"1"
"445";"3";"10";"1";"14";"1";"1";"5";"1";"[26,35,40]";"1";"0";"1"
"446";"1";"10";"1";"12";"1";"1";"5";"1";"[5,22]";"1";"0";"1"
"447";"6";"11";"1";"1";"1";"1";"5";"2";"[3,9,13,23]";"1";"0";"1"
"448";"26";"11";"1";"5";"1";"1";"5";"2";"[12,22,32]";"2";"0";"1"
"449";"30";"11";"1";"27";"1";"1";"5";"1";"[16,18,20,25]";"1";"0";"1"
"450";"36";"12";"1";"8";"1";"1";"5";"1";"[6,20]";"1";"3";"1"
"451";"6";"12";"1";"1";"1";"1";"5";"2";"[3,9,13,23]";"1";"0";"1"
"452";"9";"12";"1";"18";"1";"1";"5";"2";"[3,11,16,27]";"2";"0";"1"
"453";"30";"12";"1";"27";"1";"1";"5";"1";"[16,18,20,25]";"1";"0";"1"
"454";"14";"13";"1";"10";"1";"1";"5";"1";"[3,9,29,37]";"1";"0";"1"
"455";"9";"13";"1";"18";"1";"1";"5";"2";"[3,11,16,27]";"2";"0";"1"
"456";"14";"14";"1";"10";"1";"1";"5";"1";"[3,9,29,37]";"1";"0";"1"
"457";"36";"15";"1";"8";"1";"1";"5";"1";"[6,20]";"1";"4";"1"
"458";"25";"16";"1";"16";"1";"1";"5";"2";"[3,11,18,27]";"1";"0";"1"
"459";"25";"17";"1";"16";"1";"1";"5";"2";"[3,11,18,27]";"1";"0";"1"
"460";"27";"17";"1";"40";"1";"1";"5";"1";"[7,14,38]";"2";"0";"1"
"461";"27";"18";"1";"40";"1";"1";"5";"1";"[7,14,38]";"2";"0";"1"
"462";"13";"19";"1";"26";"1";"1";"5";"1";"[14,35]";"2";"0";"1"
"463";"13";"20";"1";"26";"1";"1";"5";"1";"[14,35]";"2";"0";"1"
"464";"8";"20";"1";"21";"1";"1";"5";"2";"[13,15,23,36,39]";"2";"0";"1"
"465";"8";"21";"1";"21";"1";"1";"5";"2";"[13,15,23,36,39]";"2";"0";"1"
"466";"16";"2";"1";"37";"1";"1";"6";"2";"[9,10,13,29,30]";"2";"0";"1"
"467";"32";"2";"1";"20";"1";"1";"6";"1";"[8,27,38]";"1";"0";"1"
"468";"38";"3";"1";"2";"1";"1";"6";"1";"[4,38]";"1";"0";"1"
"469";"5";"3";"1";"31";"1";"1";"6";"1";"[15,19,24,30,34]";"1";"0";"1"
"470";"31";"3";"1";"34";"1";"1";"6";"2";"[6,15,22,24,29,30,31,32]";"1";"0";"1"
"471";"7";"3";"1";"3";"1";"1";"6";"1";"[1,9,10,13,16,18]";"1";"0";"1"
"472";"40";"3";"1";"11";"1";"1";"6";"1";"[16,18]";"1";"0";"1"
"473";"36";"3";"1";"8";"1";"1";"6";"1";"[6,20]";"0";"6";"1"
"474";"16";"3";"1";"37";"1";"1";"6";"2";"[9,10,13,29,30]";"2";"0";"1"
"475";"32";"3";"1";"20";"1";"1";"6";"1";"[8,27,38]";"1";"0";"1"
"476";"30";"3";"1";"27";"1";"1";"6";"1";"[16,18,20,25]";"1";"0";"1"
"477";"18";"3";"1";"32";"1";"1";"6";"1";"[5,15,19,22,24,29,34]";"1";"0";"1"
"478";"38";"4";"1";"2";"1";"1";"6";"1";"[4,38]";"1";"0";"1"
"479";"5";"4";"1";"31";"1";"1";"6";"1";"[15,19,24,30,34]";"1";"0";"1"
"480";"15";"4";"1";"30";"1";"1";"6";"1";"[6,15,19,24,31,34,37]";"1";"0";"1"
"481";"31";"4";"1";"34";"1";"1";"6";"2";"[6,15,22,24,29,30,31,32]";"1";"0";"1"
"482";"2";"4";"1";"6";"1";"1";"6";"1";"[8,15,24,30,34]";"1";"0";"1"
"483";"7";"4";"1";"3";"1";"1";"6";"1";"[1,9,10,13,16,18]";"1";"0";"1"
"484";"33";"4";"1";"9";"1";"1";"6";"2";"[1,3,10,13,29,37]";"1";"0";"1"
"485";"40";"4";"1";"11";"1";"1";"6";"1";"[16,18]";"1";"0";"1"
"486";"25";"4";"1";"16";"1";"1";"6";"2";"[3,11,18,27]";"1";"0";"1"
"487";"30";"4";"1";"27";"1";"1";"6";"1";"[16,18,20,25]";"1";"0";"1"
"488";"18";"4";"1";"32";"1";"1";"6";"1";"[5,15,19,22,24,29,34]";"1";"0";"1"
"489";"29";"4";"1";"24";"1";"1";"6";"1";"[6,15,29,30,31,32,34]";"1";"0";"1"
"490";"3";"5";"1";"14";"1";"1";"6";"1";"[26,35,40]";"2";"0";"1"
"491";"15";"5";"1";"30";"1";"1";"6";"1";"[6,15,19,24,31,34,37]";"1";"0";"1"
"492";"2";"5";"1";"6";"1";"1";"6";"1";"[8,15,24,30,34]";"1";"0";"1"
"493";"33";"5";"1";"9";"1";"1";"6";"2";"[1,3,10,13,29,37]";"1";"0";"1"
"494";"21";"5";"1";"28";"1";"1";"6";"1";"[7,33]";"1";"0";"1"
"495";"34";"5";"1";"19";"1";"1";"6";"1";"[17,30,31,32]";"1";"0";"1"
"496";"25";"5";"1";"16";"1";"1";"6";"2";"[3,11,18,27]";"1";"0";"1"
"497";"29";"5";"1";"24";"1";"1";"6";"1";"[6,15,29,30,31,32,34]";"1";"0";"1"
"498";"3";"6";"1";"14";"1";"1";"6";"1";"[26,35,40]";"2";"0";"1"
"499";"17";"6";"1";"15";"1";"1";"6";"2";"[6,21,24,29,30,31,32,34]";"1";"0";"1"
"500";"21";"6";"1";"28";"1";"1";"6";"1";"[7,33]";"1";"0";"1"
"501";"34";"6";"1";"19";"1";"1";"6";"1";"[17,30,31,32]";"1";"0";"1"
"502";"23";"6";"1";"13";"1";"1";"6";"1";"[1,3,9,21,23,37]";"0";"4";"1"
"503";"39";"6";"1";"25";"1";"1";"6";"1";"[27]";"1";"0";"1"
"504";"37";"7";"1";"4";"1";"1";"6";"1";"[2,33,38]";"1";"0";"1"
"505";"17";"7";"1";"15";"1";"1";"6";"2";"[6,21,24,29,30,31,32,34]";"1";"0";"1"
"506";"6";"7";"1";"1";"1";"1";"6";"2";"[3,9,13,23]";"1";"0";"1"
"507";"27";"7";"1";"40";"1";"1";"6";"1";"[7,14,38]";"1";"0";"1"
"508";"1";"7";"1";"12";"1";"1";"6";"1";"[5,22]";"0";"4";"1"
"509";"11";"7";"1";"17";"1";"1";"6";"1";"[19]";"2";"0";"1"
"510";"39";"7";"1";"25";"1";"1";"6";"1";"[27]";"1";"0";"1"
"511";"37";"8";"1";"4";"1";"1";"6";"1";"[2,33,38]";"1";"0";"1"
"512";"20";"8";"1";"39";"1";"1";"6";"1";"[21,36,38]";"1";"0";"1"
"513";"6";"8";"1";"1";"1";"1";"6";"2";"[3,9,13,23]";"1";"0";"1"
"514";"35";"8";"1";"33";"1";"1";"6";"1";"[4,28]";"1";"0";"1"
"515";"27";"8";"1";"40";"1";"1";"6";"1";"[7,14,38]";"1";"0";"1"
"516";"11";"8";"1";"17";"1";"1";"6";"1";"[19]";"2";"0";"1"
"517";"28";"8";"1";"7";"1";"1";"6";"1";"[28,40]";"2";"0";"1"
"518";"23";"8";"1";"13";"1";"1";"6";"1";"[1,3,9,21,23,37]";"0";"5";"1"
"519";"1";"9";"1";"12";"1";"1";"6";"1";"[5,22]";"0";"3";"1"
"520";"19";"9";"1";"38";"1";"1";"6";"1";"[2,4,20,36,39,40]";"1";"0";"1"
"521";"20";"9";"1";"39";"1";"1";"6";"1";"[21,36,38]";"1";"0";"1"
"522";"35";"9";"1";"33";"1";"1";"6";"1";"[4,28]";"1";"0";"1"
"523";"28";"9";"1";"7";"1";"1";"6";"1";"[28,40]";"2";"0";"1"
"524";"26";"10";"1";"5";"1";"1";"6";"2";"[12,22,32]";"2";"0";"1"
"525";"4";"10";"1";"22";"1";"1";"6";"1";"[5,12,32,34]";"1";"0";"1"
"526";"19";"10";"1";"38";"1";"1";"6";"1";"[2,4,20,36,39,40]";"1";"0";"1"
"527";"12";"10";"1";"23";"1";"1";"6";"2";"[1,13,21]";"1";"0";"1"
"528";"26";"11";"1";"5";"1";"1";"6";"2";"[12,22,32]";"2";"0";"1"
"529";"4";"11";"1";"22";"1";"1";"6";"1";"[5,12,32,34]";"1";"0";"1"
"530";"12";"11";"1";"23";"1";"1";"6";"2";"[1,13,21]";"1";"0";"1"
"531";"1";"11";"1";"12";"1";"1";"6";"1";"[5,22]";"0";"5";"1"
"532";"23";"12";"1";"13";"1";"1";"6";"1";"[1,3,9,21,23,37]";"0";"4";"1"
"533";"36";"13";"1";"8";"1";"1";"6";"1";"[6,20]";"1";"6";"1"
"534";"23";"14";"1";"13";"1";"1";"6";"1";"[1,3,9,21,23,37]";"0";"5";"1"
"535";"36";"14";"1";"8";"1";"1";"6";"1";"[6,20]";"1";"6";"1"
"536";"1";"14";"1";"12";"1";"1";"6";"1";"[5,22]";"0";"6";"1"
"537";"22";"15";"1";"36";"1";"1";"6";"1";"[21,38,39]";"1";"0";"1"
"538";"13";"15";"1";"26";"1";"1";"6";"1";"[14,35]";"1";"0";"1"
"539";"24";"15";"1";"35";"1";"1";"6";"1";"[14,26]";"1";"0";"1"
"540";"22";"16";"1";"36";"1";"1";"6";"1";"[21,38,39]";"1";"0";"1"
"541";"13";"16";"1";"26";"1";"1";"6";"1";"[14,35]";"1";"0";"1"
"542";"24";"16";"1";"35";"1";"1";"6";"1";"[14,26]";"1";"0";"1"
"543";"1";"17";"1";"12";"1";"1";"6";"1";"[5,22]";"1";"6";"1"
"544";"1";"18";"1";"12";"1";"1";"6";"1";"[5,22]";"1";"6";"1"
"545";"23";"18";"1";"13";"1";"1";"6";"1";"[1,3,9,21,23,37]";"1";"5";"1"
"546";"23";"19";"1";"13";"1";"1";"6";"1";"[1,3,9,21,23,37]";"1";"5";"1"
"547";"2";"19";"1";"6";"1";"1";"6";"1";"[8,15,24,30,34]";"1";"1";"1"
"548";"9";"21";"1";"18";"1";"1";"6";"2";"[3,11,16,27]";"2";"0";"1"
"549";"9";"22";"1";"18";"1";"1";"6";"2";"[3,11,16,27]";"2";"0";"1"
"550";"14";"22";"1";"10";"1";"1";"6";"1";"[3,9,29,37]";"1";"0";"1"
"551";"14";"23";"1";"10";"1";"1";"6";"1";"[3,9,29,37]";"1";"0";"1"
"552";"16";"24";"1";"37";"1";"1";"6";"2";"[9,10,13,29,30]";"2";"1";"1"
"553";"16";"26";"1";"37";"1";"1";"6";"2";"[9,10,13,29,30]";"2";"2";"1"
"554";"2";"27";"1";"6";"1";"1";"6";"1";"[8,15,24,30,34]";"1";"2";"1"
"555";"10";"27";"1";"29";"1";"1";"6";"1";"[9,10,15,24,32,34,37]";"1";"0";"1"
"556";"16";"27";"1";"37";"1";"1";"6";"2";"[9,10,13,29,30]";"2";"3";"1"
"557";"32";"28";"1";"20";"1";"1";"6";"1";"[8,27,38]";"1";"4";"1"
"558";"10";"28";"1";"29";"1";"1";"6";"1";"[9,10,15,24,32,34,37]";"1";"0";"1"
"559";"16";"28";"1";"37";"1";"1";"6";"2";"[9,10,13,29,30]";"2";"4";"1"
"560";"16";"29";"1";"37";"1";"1";"6";"2";"[9,10,13,29,30]";"2";"7";"1"
"561";"8";"30";"1";"21";"1";"1";"6";"2";"[13,15,23,36,39]";"0";"0";"1"
"562";"0";"30";"1";"21";"1";"1";"6";"2";"[13,15,23,36,39]";"2";"0";"0"
"563";"16";"0";"1";"37";"1";"1";"7";"2";"[9,10,13,29,30]";"0";"6";"1"
"564";"16";"2";"1";"37";"1";"1";"7";"2";"[9,10,13,29,30]";"0";"7";"1"
"565";"28";"2";"1";"7";"1";"1";"7";"1";"[28,40]";"1";"0";"1"
"566";"33";"2";"1";"9";"1";"1";"7";"2";"[1,3,10,13,29,37]";"1";"0";"1"
"567";"5";"2";"1";"31";"1";"1";"7";"1";"[15,19,24,30,34]";"1";"0";"1"
"568";"40";"3";"1";"11";"1";"1";"7";"1";"[16,18]";"1";"0";"1"
"569";"30";"3";"1";"27";"1";"1";"7";"1";"[16,18,20,25]";"1";"0";"1"
"570";"28";"3";"1";"7";"1";"1";"7";"1";"[28,40]";"1";"0";"1"
"571";"18";"3";"1";"32";"1";"1";"7";"1";"[5,15,19,22,24,29,34]";"1";"0";"1"
"572";"33";"3";"1";"9";"1";"1";"7";"2";"[1,3,10,13,29,37]";"1";"0";"1"
"573";"31";"3";"1";"34";"1";"1";"7";"2";"[6,15,22,24,29,30,31,32]";"1";"0";"1"
"574";"5";"3";"1";"31";"1";"1";"7";"1";"[15,19,24,30,34]";"1";"0";"1"
"575";"16";"3";"1";"37";"1";"1";"7";"2";"[9,10,13,29,30]";"2";"7";"1"
"576";"38";"3";"1";"2";"1";"1";"7";"1";"[4,38]";"0";"7";"1"
"577";"40";"4";"1";"11";"1";"1";"7";"1";"[16,18]";"1";"0";"1"
"578";"19";"4";"1";"38";"1";"1";"7";"1";"[2,4,20,36,39,40]";"1";"0";"1"
"579";"29";"4";"1";"24";"1";"1";"7";"1";"[6,15,29,30,31,32,34]";"1";"0";"1"
"580";"30";"4";"1";"27";"1";"1";"7";"1";"[16,18,20,25]";"1";"0";"1"
"581";"18";"4";"1";"32";"1";"1";"7";"1";"[5,15,19,22,24,29,34]";"1";"0";"1"
"582";"2";"4";"1";"6";"1";"1";"7";"1";"[8,15,24,30,34]";"1";"0";"1"
"583";"38";"4";"1";"2";"1";"1";"7";"1";"[4,38]";"1";"7";"1"
"584";"31";"4";"1";"34";"1";"1";"7";"2";"[6,15,22,24,29,30,31,32]";"1";"0";"1"
"585";"16";"4";"1";"37";"1";"1";"7";"2";"[9,10,13,29,30]";"2";"7";"1"
"586";"19";"5";"1";"38";"1";"1";"7";"1";"[2,4,20,36,39,40]";"1";"0";"1"
"587";"29";"5";"1";"24";"1";"1";"7";"1";"[6,15,29,30,31,32,34]";"1";"0";"1"
"588";"37";"5";"1";"4";"1";"1";"7";"1";"[2,33,38]";"2";"0";"1"
"589";"32";"5";"1";"20";"1";"1";"7";"1";"[8,27,38]";"1";"0";"1"
"590";"26";"5";"1";"5";"1";"1";"7";"2";"[12,22,32]";"2";"0";"1"
"591";"35";"5";"1";"33";"1";"1";"7";"1";"[4,28]";"1";"0";"1"
"592";"23";"5";"1";"13";"1";"1";"7";"1";"[1,3,9,21,23,37]";"0";"5";"1"
"593";"2";"5";"1";"6";"1";"1";"7";"1";"[8,15,24,30,34]";"1";"0";"1"
"594";"38";"5";"1";"2";"1";"1";"7";"1";"[4,38]";"1";"7";"1"
"595";"27";"5";"1";"40";"1";"1";"7";"1";"[7,14,38]";"0";"5";"1"
"596";"25";"6";"1";"16";"1";"1";"7";"2";"[3,11,18,27]";"1";"0";"1"
"597";"37";"6";"1";"4";"1";"1";"7";"1";"[2,33,38]";"2";"0";"1"
"598";"21";"6";"1";"28";"1";"1";"7";"1";"[7,33]";"1";"0";"1"
"599";"32";"6";"1";"20";"1";"1";"7";"1";"[8,27,38]";"1";"0";"1"
"600";"3";"6";"1";"14";"1";"1";"7";"1";"[26,35,40]";"1";"0";"1"
"601";"26";"6";"1";"5";"1";"1";"7";"2";"[12,22,32]";"2";"0";"1"
"602";"35";"6";"1";"33";"1";"1";"7";"1";"[4,28]";"1";"0";"1"
"603";"15";"6";"1";"30";"1";"1";"7";"1";"[6,15,19,24,31,34,37]";"1";"0";"1"
"604";"22";"6";"1";"36";"1";"1";"7";"1";"[21,38,39]";"1";"0";"1"
"605";"39";"6";"1";"25";"1";"1";"7";"1";"[27]";"1";"0";"1"
"606";"36";"6";"1";"8";"1";"1";"7";"1";"[6,20]";"2";"0";"1"
"607";"13";"6";"1";"26";"1";"1";"7";"1";"[14,35]";"1";"0";"1"
"608";"25";"7";"1";"16";"1";"1";"7";"2";"[3,11,18,27]";"1";"0";"1"
"609";"21";"7";"1";"28";"1";"1";"7";"1";"[7,33]";"1";"0";"1"
"610";"3";"7";"1";"14";"1";"1";"7";"1";"[26,35,40]";"1";"0";"1"
"611";"15";"7";"1";"30";"1";"1";"7";"1";"[6,15,19,24,31,34,37]";"1";"0";"1"
"612";"8";"7";"1";"21";"1";"1";"7";"2";"[13,15,23,36,39]";"1";"0";"1"
"613";"22";"7";"1";"36";"1";"1";"7";"1";"[21,38,39]";"1";"0";"1"
"614";"39";"7";"1";"25";"1";"1";"7";"1";"[27]";"1";"0";"1"
"615";"32";"7";"1";"20";"1";"1";"7";"1";"[8,27,38]";"1";"5";"1"
"616";"20";"7";"1";"39";"1";"1";"7";"1";"[21,36,38]";"1";"0";"1"
"617";"10";"7";"1";"29";"1";"1";"7";"1";"[9,10,15,24,32,34,37]";"2";"0";"1"
"618";"9";"7";"1";"18";"1";"1";"7";"2";"[3,11,16,27]";"2";"0";"1"
"619";"36";"7";"1";"8";"1";"1";"7";"1";"[6,20]";"2";"0";"1"
"620";"7";"7";"1";"3";"1";"1";"7";"1";"[1,9,10,13,16,18]";"1";"0";"1"
"621";"13";"7";"1";"26";"1";"1";"7";"1";"[14,35]";"1";"0";"1"
"622";"30";"8";"1";"27";"1";"1";"7";"1";"[16,18,20,25]";"1";"5";"1"
"623";"8";"8";"1";"21";"1";"1";"7";"2";"[13,15,23,36,39]";"1";"0";"1"
"624";"6";"8";"1";"1";"1";"1";"7";"2";"[3,9,13,23]";"1";"0";"1"
"625";"4";"8";"1";"22";"1";"1";"7";"1";"[5,12,32,34]";"1";"0";"1"
"626";"20";"8";"1";"39";"1";"1";"7";"1";"[21,36,38]";"1";"0";"1"
"627";"32";"8";"1";"20";"1";"1";"7";"1";"[8,27,38]";"1";"4";"1"
"628";"23";"8";"1";"13";"1";"1";"7";"1";"[1,3,9,21,23,37]";"0";"6";"1"
"629";"10";"8";"1";"29";"1";"1";"7";"1";"[9,10,15,24,32,34,37]";"2";"0";"1"
"630";"9";"8";"1";"18";"1";"1";"7";"2";"[3,11,16,27]";"2";"0";"1"
"631";"7";"8";"1";"3";"1";"1";"7";"1";"[1,9,10,13,16,18]";"1";"0";"1"
"632";"14";"9";"1";"10";"1";"1";"7";"1";"[3,9,29,37]";"1";"0";"1"
"633";"30";"9";"1";"27";"1";"1";"7";"1";"[16,18,20,25]";"1";"4";"1"
"634";"6";"9";"1";"1";"1";"1";"7";"2";"[3,9,13,23]";"1";"0";"1"
"635";"4";"9";"1";"22";"1";"1";"7";"1";"[5,12,32,34]";"1";"0";"1"
"636";"34";"9";"1";"19";"1";"1";"7";"1";"[17,30,31,32]";"1";"0";"1"
"637";"32";"9";"1";"20";"1";"1";"7";"1";"[8,27,38]";"1";"3";"1"
"638";"14";"10";"1";"10";"1";"1";"7";"1";"[3,9,29,37]";"1";"0";"1"
"639";"30";"10";"1";"27";"1";"1";"7";"1";"[16,18,20,25]";"1";"2";"1"
"640";"34";"10";"1";"19";"1";"1";"7";"1";"[17,30,31,32]";"1";"0";"1"
"641";"24";"10";"1";"35";"1";"1";"7";"1";"[14,26]";"1";"0";"1"
"642";"32";"11";"1";"20";"1";"1";"7";"1";"[8,27,38]";"1";"2";"1"
"643";"27";"11";"1";"40";"1";"1";"7";"1";"[7,14,38]";"0";"6";"1"
"644";"23";"11";"1";"13";"1";"1";"7";"1";"[1,3,9,21,23,37]";"0";"5";"1"
"645";"30";"11";"1";"27";"1";"1";"7";"1";"[16,18,20,25]";"1";"1";"1"
"646";"24";"11";"1";"35";"1";"1";"7";"1";"[14,26]";"1";"0";"1"
"647";"12";"11";"1";"23";"1";"1";"7";"2";"[1,13,21]";"1";"0";"1"
"648";"11";"12";"1";"17";"1";"1";"7";"1";"[19]";"1";"0";"1"
"649";"30";"12";"1";"27";"1";"1";"7";"1";"[16,18,20,25]";"1";"2";"1"
"650";"1";"12";"1";"12";"1";"1";"7";"1";"[5,22]";"1";"0";"1"
"651";"12";"12";"1";"23";"1";"1";"7";"2";"[1,13,21]";"1";"0";"1"
"652";"30";"12";"1";"27";"1";"1";"7";"1";"[16,18,20,25]";"1";"3";"1"
"653";"11";"13";"1";"17";"1";"1";"7";"1";"[19]";"1";"0";"1"
"654";"32";"13";"1";"20";"1";"1";"7";"1";"[8,27,38]";"1";"1";"1"
"655";"1";"13";"1";"12";"1";"1";"7";"1";"[5,22]";"1";"0";"1"
"656";"30";"14";"1";"27";"1";"1";"7";"1";"[16,18,20,25]";"1";"7";"1"
"657";"32";"14";"1";"20";"1";"1";"7";"1";"[8,27,38]";"1";"6";"1"
"658";"27";"14";"1";"40";"1";"1";"7";"1";"[7,14,38]";"0";"5";"1"
"659";"17";"14";"1";"15";"1";"1";"7";"2";"[6,21,24,29,30,31,32,34]";"1";"0";"1"
"660";"23";"14";"1";"13";"1";"1";"7";"1";"[1,3,9,21,23,37]";"0";"4";"1"
"661";"7";"15";"1";"3";"1";"1";"7";"1";"[1,9,10,13,16,18]";"1";"1";"1"
"662";"27";"15";"1";"40";"1";"1";"7";"1";"[7,14,38]";"0";"4";"1"
"663";"17";"15";"1";"15";"1";"1";"7";"2";"[6,21,24,29,30,31,32,34]";"1";"0";"1"
"664";"27";"16";"1";"40";"1";"1";"7";"1";"[7,14,38]";"0";"3";"1"
"665";"23";"17";"1";"13";"1";"1";"7";"1";"[1,3,9,21,23,37]";"0";"5";"1"
"666";"27";"17";"1";"40";"1";"1";"7";"1";"[7,14,38]";"0";"6";"1"
"667";"7";"18";"1";"3";"1";"1";"7";"1";"[1,9,10,13,16,18]";"1";"2";"1"
"668";"23";"18";"1";"13";"1";"1";"7";"1";"[1,3,9,21,23,37]";"0";"4";"1"
"669";"7";"19";"1";"3";"1";"1";"7";"1";"[1,9,10,13,16,18]";"1";"3";"1"
"670";"23";"19";"1";"13";"1";"1";"7";"1";"[1,3,9,21,23,37]";"0";"5";"1"
"671";"27";"20";"1";"40";"1";"1";"7";"1";"[7,14,38]";"0";"7";"1"
"672";"7";"20";"1";"3";"1";"1";"7";"1";"[1,9,10,13,16,18]";"1";"4";"1"
"673";"7";"21";"1";"3";"1";"1";"7";"1";"[1,9,10,13,16,18]";"1";"5";"1"
"674";"23";"21";"1";"13";"1";"1";"7";"1";"[1,3,9,21,23,37]";"1";"5";"1"
"675";"7";"22";"1";"3";"1";"1";"7";"1";"[1,9,10,13,16,18]";"1";"7";"1"
"676";"27";"22";"1";"40";"1";"1";"7";"1";"[7,14,38]";"1";"7";"1"
"677";"23";"22";"1";"13";"1";"1";"7";"1";"[1,3,9,21,23,37]";"1";"5";"1"
"678";"27";"23";"1";"40";"1";"1";"7";"1";"[7,14,38]";"1";"7";"1"
"679";"5";"2";"1";"31";"1";"1";"8";"1";"[15,19,24,30,34]";"1";"0";"1"
"680";"28";"2";"1";"7";"1";"1";"8";"1";"[28,40]";"1";"0";"1"
"681";"29";"2";"1";"24";"1";"1";"8";"1";"[6,15,29,30,31,32,34]";"1";"0";"1"
"682";"1";"2";"1";"12";"1";"1";"8";"1";"[5,22]";"1";"0";"1"
"683";"21";"3";"1";"28";"1";"1";"8";"1";"[7,33]";"1";"0";"1"
"684";"40";"3";"1";"11";"1";"1";"8";"1";"[16,18]";"1";"0";"1"
"685";"15";"3";"1";"30";"1";"1";"8";"1";"[6,15,19,24,31,34,37]";"1";"0";"1"
"686";"5";"3";"1";"31";"1";"1";"8";"1";"[15,19,24,30,34]";"1";"0";"1"
"687";"35";"3";"1";"33";"1";"1";"8";"1";"[4,28]";"1";"0";"1"
"688";"28";"3";"1";"7";"1";"1";"8";"1";"[28,40]";"1";"0";"1"
"689";"4";"3";"1";"22";"1";"1";"8";"1";"[5,12,32,34]";"1";"0";"1"
"690";"29";"3";"1";"24";"1";"1";"8";"1";"[6,15,29,30,31,32,34]";"1";"0";"1"
"691";"1";"3";"1";"12";"1";"1";"8";"1";"[5,22]";"1";"0";"1"
"692";"7";"4";"1";"3";"1";"1";"8";"1";"[1,9,10,13,16,18]";"1";"0";"1"
"693";"21";"4";"1";"28";"1";"1";"8";"1";"[7,33]";"1";"0";"1"
"694";"18";"4";"1";"32";"1";"1";"8";"1";"[5,15,19,22,24,29,34]";"1";"0";"1"
"695";"40";"4";"1";"11";"1";"1";"8";"1";"[16,18]";"1";"0";"1"
"696";"15";"4";"1";"30";"1";"1";"8";"1";"[6,15,19,24,31,34,37]";"1";"0";"1"
"697";"11";"4";"1";"17";"1";"1";"8";"1";"[19]";"1";"0";"1"
"698";"35";"4";"1";"33";"1";"1";"8";"1";"[4,28]";"1";"0";"1"
"699";"37";"4";"1";"4";"1";"1";"8";"1";"[2,33,38]";"1";"0";"1"
"700";"4";"4";"1";"22";"1";"1";"8";"1";"[5,12,32,34]";"1";"0";"1"
"701";"23";"5";"1";"13";"1";"1";"8";"1";"[1,3,9,21,23,37]";"0";"6";"1"
"702";"7";"5";"1";"3";"1";"1";"8";"1";"[1,9,10,13,16,18]";"1";"0";"1"
"703";"26";"5";"1";"5";"1";"1";"8";"2";"[12,22,32]";"2";"0";"1"
"704";"33";"5";"1";"9";"1";"1";"8";"2";"[1,3,10,13,29,37]";"1";"0";"1"
"705";"18";"5";"1";"32";"1";"1";"8";"1";"[5,15,19,22,24,29,34]";"1";"0";"1"
"706";"31";"5";"1";"34";"1";"1";"8";"2";"[6,15,22,24,29,30,31,32]";"1";"0";"1"
"707";"19";"5";"1";"38";"1";"1";"8";"1";"[2,4,20,36,39,40]";"1";"0";"1"
"708";"11";"5";"1";"17";"1";"1";"8";"1";"[19]";"1";"0";"1"
"709";"6";"5";"1";"1";"1";"1";"8";"2";"[3,9,13,23]";"1";"0";"1"
"710";"37";"5";"1";"4";"1";"1";"8";"1";"[2,33,38]";"1";"0";"1"
"711";"25";"6";"1";"16";"1";"1";"8";"2";"[3,11,18,27]";"1";"0";"1"
"712";"26";"6";"1";"5";"1";"1";"8";"2";"[12,22,32]";"2";"0";"1"
"713";"33";"6";"1";"9";"1";"1";"8";"2";"[1,3,10,13,29,37]";"1";"0";"1"
"714";"13";"6";"1";"26";"1";"1";"8";"1";"[14,35]";"1";"0";"1"
"715";"23";"6";"1";"13";"1";"1";"8";"1";"[1,3,9,21,23,37]";"0";"7";"1"
"716";"31";"6";"1";"34";"1";"1";"8";"2";"[6,15,22,24,29,30,31,32]";"1";"0";"1"
"717";"19";"6";"1";"38";"1";"1";"8";"1";"[2,4,20,36,39,40]";"1";"0";"1"
"718";"34";"6";"1";"19";"1";"1";"8";"1";"[17,30,31,32]";"2";"0";"1"
"719";"10";"6";"1";"29";"1";"1";"8";"1";"[9,10,15,24,32,34,37]";"2";"0";"1"
"720";"6";"6";"1";"1";"1";"1";"8";"2";"[3,9,13,23]";"1";"0";"1"
"721";"32";"6";"1";"20";"1";"1";"8";"1";"[8,27,38]";"1";"0";"1"
"722";"25";"7";"1";"16";"1";"1";"8";"2";"[3,11,18,27]";"1";"0";"1"
"723";"20";"7";"1";"39";"1";"1";"8";"1";"[21,36,38]";"1";"0";"1"
"724";"13";"7";"1";"26";"1";"1";"8";"1";"[14,35]";"1";"0";"1"
"725";"22";"7";"1";"36";"1";"1";"8";"1";"[21,38,39]";"1";"0";"1"
"726";"9";"7";"1";"18";"1";"1";"8";"2";"[3,11,16,27]";"2";"0";"1"
"727";"34";"7";"1";"19";"1";"1";"8";"1";"[17,30,31,32]";"2";"0";"1"
"728";"23";"7";"1";"13";"1";"1";"8";"1";"[1,3,9,21,23,37]";"1";"7";"1"
"729";"10";"7";"1";"29";"1";"1";"8";"1";"[9,10,15,24,32,34,37]";"2";"0";"1"
"730";"38";"7";"1";"2";"1";"1";"8";"1";"[4,38]";"1";"0";"1"
"731";"32";"7";"1";"20";"1";"1";"8";"1";"[8,27,38]";"1";"0";"1"
"732";"20";"8";"1";"39";"1";"1";"8";"1";"[21,36,38]";"1";"0";"1"
"733";"27";"8";"1";"40";"1";"1";"8";"1";"[7,14,38]";"1";"0";"1"
"734";"9";"8";"1";"18";"1";"1";"8";"2";"[3,11,16,27]";"2";"0";"1"
"735";"22";"8";"1";"36";"1";"1";"8";"1";"[21,38,39]";"1";"0";"1"
"736";"23";"8";"1";"13";"1";"1";"8";"1";"[1,3,9,21,23,37]";"1";"7";"1"
"737";"38";"8";"1";"2";"1";"1";"8";"1";"[4,38]";"1";"0";"1"
"738";"39";"8";"1";"25";"1";"1";"8";"1";"[27]";"2";"0";"1"
"739";"30";"8";"1";"27";"1";"1";"8";"1";"[16,18,20,25]";"1";"0";"1"
"740";"24";"9";"1";"35";"1";"1";"8";"1";"[14,26]";"0";"6";"1"
"741";"12";"9";"1";"23";"1";"1";"8";"2";"[1,13,21]";"1";"0";"1"
"742";"27";"9";"1";"40";"1";"1";"8";"1";"[7,14,38]";"1";"0";"1"
"743";"39";"9";"1";"25";"1";"1";"8";"1";"[27]";"2";"0";"1"
"744";"30";"9";"1";"27";"1";"1";"8";"1";"[16,18,20,25]";"1";"0";"1"
"745";"3";"10";"1";"14";"1";"1";"8";"1";"[26,35,40]";"2";"0";"1"
"746";"36";"10";"1";"8";"1";"1";"8";"1";"[6,20]";"1";"0";"1"
"747";"12";"10";"1";"23";"1";"1";"8";"2";"[1,13,21]";"1";"0";"1"
"748";"24";"10";"1";"35";"1";"1";"8";"1";"[14,26]";"0";"1";"1"
"749";"3";"11";"1";"14";"1";"1";"8";"1";"[26,35,40]";"2";"0";"1"
"750";"36";"11";"1";"8";"1";"1";"8";"1";"[6,20]";"1";"0";"1"
"751";"16";"11";"1";"37";"1";"1";"8";"2";"[9,10,13,29,30]";"0";"1";"1"
"752";"24";"12";"1";"35";"1";"1";"8";"1";"[14,26]";"0";"2";"1"
"753";"9";"12";"1";"18";"1";"1";"8";"2";"[3,11,16,27]";"2";"6";"1"
"754";"2";"12";"1";"6";"1";"1";"8";"1";"[8,15,24,30,34]";"2";"0";"1"
"755";"24";"13";"1";"35";"1";"1";"8";"1";"[14,26]";"0";"3";"1"
"756";"9";"13";"1";"18";"1";"1";"8";"2";"[3,11,16,27]";"2";"4";"1"
"757";"2";"13";"1";"6";"1";"1";"8";"1";"[8,15,24,30,34]";"2";"0";"1"
"758";"9";"14";"1";"18";"1";"1";"8";"2";"[3,11,16,27]";"2";"2";"1"
"759";"24";"14";"1";"35";"1";"1";"8";"1";"[14,26]";"0";"4";"1"
"760";"9";"15";"1";"18";"1";"1";"8";"2";"[3,11,16,27]";"2";"1";"1"
"761";"16";"15";"1";"37";"1";"1";"8";"2";"[9,10,13,29,30]";"0";"9";"1"
"762";"24";"15";"1";"35";"1";"1";"8";"1";"[14,26]";"0";"5";"1"
"763";"8";"16";"1";"21";"1";"1";"8";"2";"[13,15,23,36,39]";"1";"0";"1"
"764";"24";"16";"1";"35";"1";"1";"8";"1";"[14,26]";"0";"6";"1"
"765";"8";"17";"1";"21";"1";"1";"8";"2";"[13,15,23,36,39]";"1";"0";"1"
"766";"16";"17";"1";"37";"1";"1";"8";"2";"[9,10,13,29,30]";"2";"9";"1"
"767";"24";"17";"1";"35";"1";"1";"8";"1";"[14,26]";"0";"7";"1"
"768";"16";"18";"1";"37";"1";"1";"8";"2";"[9,10,13,29,30]";"2";"9";"1"
"769";"24";"21";"1";"35";"1";"1";"8";"1";"[14,26]";"1";"7";"1"
"770";"24";"22";"1";"35";"1";"1";"8";"1";"[14,26]";"1";"7";"1"
"771";"9";"23";"1";"18";"1";"1";"8";"2";"[3,11,16,27]";"2";"5";"1"
"772";"9";"24";"1";"18";"1";"1";"8";"2";"[3,11,16,27]";"2";"7";"1"
"773";"17";"25";"1";"15";"1";"1";"8";"2";"[6,21,24,29,30,31,32,34]";"1";"0";"1"
"774";"14";"26";"1";"10";"1";"1";"8";"1";"[3,9,29,37]";"1";"0";"1"
"775";"17";"26";"1";"15";"1";"1";"8";"2";"[6,21,24,29,30,31,32,34]";"1";"0";"1"
"776";"14";"27";"1";"10";"1";"1";"8";"1";"[3,9,29,37]";"1";"0";"1"
"777";"28";"1";"1";"7";"1";"1";"9";"1";"[28,40]";"1";"0";"1"
"778";"38";"1";"1";"2";"1";"1";"9";"1";"[4,38]";"1";"0";"1"
"779";"18";"1";"1";"32";"1";"1";"9";"1";"[5,15,19,22,24,29,34]";"1";"0";"1"
"780";"28";"2";"1";"7";"1";"1";"9";"1";"[28,40]";"1";"0";"1"
"781";"35";"2";"1";"33";"1";"1";"9";"1";"[4,28]";"1";"0";"1"
"782";"1";"2";"1";"12";"1";"1";"9";"1";"[5,22]";"1";"0";"1"
"783";"19";"2";"1";"38";"1";"1";"9";"1";"[2,4,20,36,39,40]";"1";"0";"1"
"784";"32";"2";"1";"20";"1";"1";"9";"1";"[8,27,38]";"1";"0";"1"
"785";"33";"2";"1";"9";"1";"1";"9";"2";"[1,3,10,13,29,37]";"1";"0";"1"
"786";"38";"2";"1";"2";"1";"1";"9";"1";"[4,38]";"1";"0";"1"
"787";"18";"2";"1";"32";"1";"1";"9";"1";"[5,15,19,22,24,29,34]";"1";"0";"1"
"788";"31";"2";"1";"34";"1";"1";"9";"2";"[6,15,22,24,29,30,31,32]";"2";"0";"1"
"789";"25";"3";"1";"16";"1";"1";"9";"2";"[3,11,18,27]";"0";"1";"1"
"790";"22";"3";"1";"36";"1";"1";"9";"1";"[21,38,39]";"1";"0";"1"
"791";"21";"3";"1";"28";"1";"1";"9";"1";"[7,33]";"1";"0";"1"
"792";"35";"3";"1";"33";"1";"1";"9";"1";"[4,28]";"1";"0";"1"
"793";"1";"3";"1";"12";"1";"1";"9";"1";"[5,22]";"1";"0";"1"
"794";"19";"3";"1";"38";"1";"1";"9";"1";"[2,4,20,36,39,40]";"1";"0";"1"
"795";"2";"3";"1";"6";"1";"1";"9";"1";"[8,15,24,30,34]";"1";"0";"1"
"796";"32";"3";"1";"20";"1";"1";"9";"1";"[8,27,38]";"1";"0";"1"
"797";"33";"3";"1";"9";"1";"1";"9";"2";"[1,3,10,13,29,37]";"1";"0";"1"
"798";"29";"3";"1";"24";"1";"1";"9";"1";"[6,15,29,30,31,32,34]";"1";"0";"1"
"799";"31";"3";"1";"34";"1";"1";"9";"2";"[6,15,22,24,29,30,31,32]";"2";"0";"1"
"800";"22";"4";"1";"36";"1";"1";"9";"1";"[21,38,39]";"1";"0";"1"
"801";"26";"4";"1";"5";"1";"1";"9";"2";"[12,22,32]";"2";"0";"1"
"802";"7";"4";"1";"3";"1";"1";"9";"1";"[1,9,10,13,16,18]";"1";"0";"1"
"803";"21";"4";"1";"28";"1";"1";"9";"1";"[7,33]";"1";"0";"1"
"804";"9";"4";"1";"18";"1";"1";"9";"2";"[3,11,16,27]";"2";"0";"1"
"805";"37";"4";"1";"4";"1";"1";"9";"1";"[2,33,38]";"1";"0";"1"
"806";"2";"4";"1";"6";"1";"1";"9";"1";"[8,15,24,30,34]";"1";"0";"1"
"807";"34";"4";"1";"19";"1";"1";"9";"1";"[17,30,31,32]";"1";"0";"1"
"808";"29";"4";"1";"24";"1";"1";"9";"1";"[6,15,29,30,31,32,34]";"1";"0";"1"
"809";"5";"4";"1";"31";"1";"1";"9";"1";"[15,19,24,30,34]";"2";"0";"1"
"810";"10";"5";"1";"29";"1";"1";"9";"1";"[9,10,15,24,32,34,37]";"2";"0";"1"
"811";"26";"5";"1";"5";"1";"1";"9";"2";"[12,22,32]";"2";"0";"1"
"812";"7";"5";"1";"3";"1";"1";"9";"1";"[1,9,10,13,16,18]";"1";"0";"1"
"813";"9";"5";"1";"18";"1";"1";"9";"2";"[3,11,16,27]";"2";"0";"1"
"814";"3";"5";"1";"14";"1";"1";"9";"1";"[26,35,40]";"2";"0";"1"
"815";"37";"5";"1";"4";"1";"1";"9";"1";"[2,33,38]";"1";"0";"1"
"816";"34";"5";"1";"19";"1";"1";"9";"1";"[17,30,31,32]";"1";"0";"1"
"817";"5";"5";"1";"31";"1";"1";"9";"1";"[15,19,24,30,34]";"2";"0";"1"
"818";"16";"5";"1";"37";"1";"1";"9";"2";"[9,10,13,29,30]";"2";"0";"1"
"819";"25";"5";"1";"16";"1";"1";"9";"2";"[3,11,18,27]";"0";"2";"1"
"820";"12";"6";"1";"23";"1";"1";"9";"2";"[1,13,21]";"1";"0";"1"
"821";"23";"6";"1";"13";"1";"1";"9";"1";"[1,3,9,21,23,37]";"0";"7";"1"
"822";"10";"6";"1";"29";"1";"1";"9";"1";"[9,10,15,24,32,34,37]";"2";"0";"1"
"823";"3";"6";"1";"14";"1";"1";"9";"1";"[26,35,40]";"2";"0";"1"
"824";"4";"6";"1";"22";"1";"1";"9";"1";"[5,12,32,34]";"1";"0";"1"
"825";"14";"6";"1";"10";"1";"1";"9";"1";"[3,9,29,37]";"1";"0";"1"
"826";"16";"6";"1";"37";"1";"1";"9";"2";"[9,10,13,29,30]";"2";"0";"1"
"827";"12";"7";"1";"23";"1";"1";"9";"2";"[1,13,21]";"1";"0";"1"
"828";"40";"7";"1";"11";"1";"1";"9";"1";"[16,18]";"1";"0";"1"
"829";"20";"7";"1";"39";"1";"1";"9";"1";"[21,36,38]";"1";"0";"1"
"830";"4";"7";"1";"22";"1";"1";"9";"1";"[5,12,32,34]";"1";"0";"1"
"831";"14";"7";"1";"10";"1";"1";"9";"1";"[3,9,29,37]";"1";"0";"1"
"832";"23";"8";"1";"13";"1";"1";"9";"1";"[1,3,9,21,23,37]";"0";"6";"1"
"833";"40";"8";"1";"11";"1";"1";"9";"1";"[16,18]";"1";"0";"1"
"834";"20";"8";"1";"39";"1";"1";"9";"1";"[21,36,38]";"1";"0";"1"
"835";"25";"8";"1";"16";"1";"1";"9";"2";"[3,11,18,27]";"0";"1";"1"
"836";"15";"8";"1";"30";"1";"1";"9";"1";"[6,15,19,24,31,34,37]";"1";"0";"1"
"837";"23";"8";"1";"13";"1";"1";"9";"1";"[1,3,9,21,23,37]";"0";"7";"1"
"838";"8";"9";"1";"21";"1";"1";"9";"2";"[13,15,23,36,39]";"1";"0";"1"
"839";"17";"9";"1";"15";"1";"1";"9";"2";"[6,21,24,29,30,31,32,34]";"1";"0";"1"
"840";"15";"9";"1";"30";"1";"1";"9";"1";"[6,15,19,24,31,34,37]";"1";"0";"1"
"841";"23";"9";"1";"13";"1";"1";"9";"1";"[1,3,9,21,23,37]";"0";"8";"1"
"842";"8";"10";"1";"21";"1";"1";"9";"2";"[13,15,23,36,39]";"1";"0";"1"
"843";"25";"10";"1";"16";"1";"1";"9";"2";"[3,11,18,27]";"0";"2";"1"
"844";"27";"10";"1";"40";"1";"1";"9";"1";"[7,14,38]";"1";"0";"1"
"845";"16";"10";"1";"37";"1";"1";"9";"2";"[9,10,13,29,30]";"2";"1";"1"
"846";"17";"10";"1";"15";"1";"1";"9";"2";"[6,21,24,29,30,31,32,34]";"1";"0";"1"
"847";"6";"10";"1";"1";"1";"1";"9";"2";"[3,9,13,23]";"1";"0";"1"
"848";"39";"10";"1";"25";"1";"1";"9";"1";"[27]";"1";"0";"1"
"849";"27";"11";"1";"40";"1";"1";"9";"1";"[7,14,38]";"1";"0";"1"
"850";"36";"11";"1";"8";"1";"1";"9";"1";"[6,20]";"1";"0";"1"
"851";"6";"11";"1";"1";"1";"1";"9";"2";"[3,9,13,23]";"1";"0";"1"
"852";"39";"11";"1";"25";"1";"1";"9";"1";"[27]";"1";"0";"1"
"853";"25";"12";"1";"16";"1";"1";"9";"2";"[3,11,18,27]";"0";"3";"1"
"854";"36";"12";"1";"8";"1";"1";"9";"1";"[6,20]";"1";"0";"1"
"855";"23";"12";"1";"13";"1";"1";"9";"1";"[1,3,9,21,23,37]";"0";"7";"1"
"856";"11";"12";"1";"17";"1";"1";"9";"1";"[19]";"1";"0";"1"
"857";"16";"12";"1";"37";"1";"1";"9";"2";"[9,10,13,29,30]";"2";"2";"1"
"858";"13";"13";"1";"26";"1";"1";"9";"1";"[14,35]";"2";"0";"1"
"859";"11";"13";"1";"17";"1";"1";"9";"1";"[19]";"1";"0";"1"
"860";"24";"13";"1";"35";"1";"1";"9";"1";"[14,26]";"0";"7";"1"
"861";"16";"13";"1";"37";"1";"1";"9";"2";"[9,10,13,29,30]";"2";"1";"1"
"862";"23";"13";"1";"13";"1";"1";"9";"1";"[1,3,9,21,23,37]";"0";"6";"1"
"863";"13";"14";"1";"26";"1";"1";"9";"1";"[14,35]";"2";"0";"1"
"864";"25";"14";"1";"16";"1";"1";"9";"2";"[3,11,18,27]";"0";"8";"1"
"865";"30";"14";"1";"27";"1";"1";"9";"1";"[16,18,20,25]";"1";"0";"1"
"866";"24";"14";"1";"35";"1";"1";"9";"1";"[14,26]";"0";"6";"1"
"867";"24";"15";"1";"35";"1";"1";"9";"1";"[14,26]";"0";"5";"1"
"868";"23";"15";"1";"13";"1";"1";"9";"1";"[1,3,9,21,23,37]";"0";"8";"1"
"869";"30";"15";"1";"27";"1";"1";"9";"1";"[16,18,20,25]";"1";"0";"1"
"870";"24";"15";"1";"35";"1";"1";"9";"1";"[14,26]";"0";"4";"1"
"871";"23";"16";"1";"13";"1";"1";"9";"1";"[1,3,9,21,23,37]";"1";"8";"1"
"872";"25";"16";"1";"16";"1";"1";"9";"2";"[3,11,18,27]";"1";"8";"1"
"873";"16";"16";"1";"37";"1";"1";"9";"2";"[9,10,13,29,30]";"2";"2";"1"
"874";"24";"16";"1";"35";"1";"1";"9";"1";"[14,26]";"0";"3";"1"
"875";"25";"17";"1";"16";"1";"1";"9";"2";"[3,11,18,27]";"1";"8";"1"
"876";"23";"17";"1";"13";"1";"1";"9";"1";"[1,3,9,21,23,37]";"1";"8";"1"
"877";"16";"17";"1";"37";"1";"1";"9";"2";"[9,10,13,29,30]";"2";"3";"1"
"878";"24";"17";"1";"35";"1";"1";"9";"1";"[14,26]";"0";"2";"1"
"879";"24";"18";"1";"35";"1";"1";"9";"1";"[14,26]";"0";"1";"1"
"880";"16";"18";"1";"37";"1";"1";"9";"2";"[9,10,13,29,30]";"2";"1";"1"
"881";"24";"19";"1";"35";"1";"1";"9";"1";"[14,26]";"0";"7";"1"
"882";"24";"20";"1";"35";"1";"1";"9";"1";"[14,26]";"0";"8";"1"
"883";"24";"24";"1";"35";"1";"1";"9";"1";"[14,26]";"1";"8";"1"
"884";"24";"25";"1";"35";"1";"1";"9";"1";"[14,26]";"1";"8";"1"
"885";"28";"1";"1";"7";"1";"1";"10";"1";"[28,40]";"1";"0";"1"
"886";"38";"1";"1";"2";"1";"1";"10";"1";"[4,38]";"1";"0";"1"
"887";"29";"1";"1";"24";"1";"1";"10";"1";"[6,15,29,30,31,32,34]";"1";"0";"1"
"888";"18";"2";"1";"32";"1";"1";"10";"1";"[5,15,19,22,24,29,34]";"1";"0";"1"
"889";"28";"2";"1";"7";"1";"1";"10";"1";"[28,40]";"1";"0";"1"
"890";"7";"2";"1";"3";"1";"1";"10";"1";"[1,9,10,13,16,18]";"1";"0";"1"
"891";"25";"2";"1";"16";"1";"1";"10";"2";"[3,11,18,27]";"1";"0";"1"
"892";"32";"2";"1";"20";"1";"1";"10";"1";"[8,27,38]";"1";"0";"1"
"893";"33";"2";"1";"9";"1";"1";"10";"2";"[1,3,10,13,29,37]";"1";"0";"1"
"894";"38";"2";"1";"2";"1";"1";"10";"1";"[4,38]";"1";"0";"1"
"895";"29";"2";"1";"24";"1";"1";"10";"1";"[6,15,29,30,31,32,34]";"1";"0";"1"
"896";"5";"3";"1";"31";"1";"1";"10";"1";"[15,19,24,30,34]";"2";"0";"1"
"897";"19";"3";"1";"38";"1";"1";"10";"1";"[2,4,20,36,39,40]";"1";"0";"1"
"898";"18";"3";"1";"32";"1";"1";"10";"1";"[5,15,19,22,24,29,34]";"1";"0";"1"
"899";"40";"3";"1";"11";"1";"1";"10";"1";"[16,18]";"1";"0";"1"
"900";"7";"3";"1";"3";"1";"1";"10";"1";"[1,9,10,13,16,18]";"1";"0";"1"
"901";"37";"3";"1";"4";"1";"1";"10";"1";"[2,33,38]";"1";"0";"1"
"902";"25";"3";"1";"16";"1";"1";"10";"2";"[3,11,18,27]";"1";"0";"1"
"903";"32";"3";"1";"20";"1";"1";"10";"1";"[8,27,38]";"1";"0";"1"
"904";"33";"3";"1";"9";"1";"1";"10";"2";"[1,3,10,13,29,37]";"1";"0";"1"
"905";"16";"3";"1";"37";"1";"1";"10";"2";"[9,10,13,29,30]";"2";"0";"1"
"906";"21";"3";"1";"28";"1";"1";"10";"1";"[7,33]";"1";"0";"1"
"907";"5";"4";"1";"31";"1";"1";"10";"1";"[15,19,24,30,34]";"2";"0";"1"
"908";"19";"4";"1";"38";"1";"1";"10";"1";"[2,4,20,36,39,40]";"1";"0";"1"
"909";"40";"4";"1";"11";"1";"1";"10";"1";"[16,18]";"1";"0";"1"
"910";"9";"4";"1";"18";"1";"1";"10";"2";"[3,11,16,27]";"2";"0";"1"
"911";"36";"4";"1";"8";"1";"1";"10";"1";"[6,20]";"2";"0";"1"
"912";"12";"4";"1";"23";"1";"1";"10";"2";"[1,13,21]";"1";"0";"1"
"913";"31";"4";"1";"34";"1";"1";"10";"2";"[6,15,22,24,29,30,31,32]";"2";"0";"1"
"914";"27";"4";"1";"40";"1";"1";"10";"1";"[7,14,38]";"0";"8";"1"
"915";"37";"4";"1";"4";"1";"1";"10";"1";"[2,33,38]";"1";"0";"1"
"916";"26";"4";"1";"5";"1";"1";"10";"2";"[12,22,32]";"2";"0";"1"
"917";"8";"4";"1";"21";"1";"1";"10";"2";"[13,15,23,36,39]";"2";"0";"1"
"918";"16";"4";"1";"37";"1";"1";"10";"2";"[9,10,13,29,30]";"2";"0";"1"
"919";"39";"4";"1";"25";"1";"1";"10";"1";"[27]";"2";"0";"1"
"920";"21";"4";"1";"28";"1";"1";"10";"1";"[7,33]";"1";"0";"1"
"921";"9";"5";"1";"18";"1";"1";"10";"2";"[3,11,16,27]";"2";"0";"1"
"922";"36";"5";"1";"8";"1";"1";"10";"1";"[6,20]";"2";"0";"1"
"923";"12";"5";"1";"23";"1";"1";"10";"2";"[1,13,21]";"1";"0";"1"
"924";"31";"5";"1";"34";"1";"1";"10";"2";"[6,15,22,24,29,30,31,32]";"2";"0";"1"
"925";"8";"5";"1";"21";"1";"1";"10";"2";"[13,15,23,36,39]";"2";"0";"1"
"926";"26";"5";"1";"5";"1";"1";"10";"2";"[12,22,32]";"2";"0";"1"
"927";"35";"5";"1";"33";"1";"1";"10";"1";"[4,28]";"1";"0";"1"
"928";"20";"5";"1";"39";"1";"1";"10";"1";"[21,36,38]";"1";"0";"1"
"929";"13";"5";"1";"26";"1";"1";"10";"1";"[14,35]";"2";"0";"1"
"930";"39";"5";"1";"25";"1";"1";"10";"1";"[27]";"2";"0";"1"
"931";"27";"6";"1";"40";"1";"1";"10";"1";"[7,14,38]";"0";"6";"1"
"932";"1";"6";"1";"12";"1";"1";"10";"1";"[5,22]";"1";"0";"1"
"933";"17";"6";"1";"15";"1";"1";"10";"2";"[6,21,24,29,30,31,32,34]";"1";"0";"1"
"934";"10";"6";"1";"29";"1";"1";"10";"1";"[9,10,15,24,32,34,37]";"1";"0";"1"
"935";"23";"6";"1";"13";"1";"1";"10";"1";"[1,3,9,21,23,37]";"0";"8";"1"
"936";"11";"6";"1";"17";"1";"1";"10";"1";"[19]";"1";"0";"1"
"937";"35";"6";"1";"33";"1";"1";"10";"1";"[4,28]";"1";"0";"1"
"938";"20";"6";"1";"39";"1";"1";"10";"1";"[21,36,38]";"1";"0";"1"
"939";"13";"6";"1";"26";"1";"1";"10";"1";"[14,35]";"2";"0";"1"
"940";"24";"7";"1";"35";"1";"1";"10";"1";"[14,26]";"2";"0";"1"
"941";"1";"7";"1";"12";"1";"1";"10";"1";"[5,22]";"1";"0";"1"
"942";"17";"7";"1";"15";"1";"1";"10";"2";"[6,21,24,29,30,31,32,34]";"1";"0";"1"
"943";"10";"7";"1";"29";"1";"1";"10";"1";"[9,10,15,24,32,34,37]";"1";"0";"1"
"944";"11";"7";"1";"17";"1";"1";"10";"1";"[19]";"1";"0";"1"
"945";"3";"8";"1";"14";"1";"1";"10";"1";"[26,35,40]";"1";"0";"1"
"946";"24";"8";"1";"35";"1";"1";"10";"1";"[14,26]";"2";"0";"1"
"947";"14";"8";"1";"10";"1";"1";"10";"1";"[3,9,29,37]";"1";"0";"1"
"948";"23";"8";"1";"13";"1";"1";"10";"1";"[1,3,9,21,23,37]";"0";"9";"1"
"949";"15";"8";"1";"30";"1";"1";"10";"1";"[6,15,19,24,31,34,37]";"1";"0";"1"
"950";"23";"8";"1";"13";"1";"1";"10";"1";"[1,3,9,21,23,37]";"1";"9";"1"
"951";"27";"8";"1";"40";"1";"1";"10";"1";"[7,14,38]";"0";"5";"1"
"952";"3";"9";"1";"14";"1";"1";"10";"1";"[26,35,40]";"1";"0";"1"
"953";"14";"9";"1";"10";"1";"1";"10";"1";"[3,9,29,37]";"1";"0";"1"
"954";"15";"9";"1";"30";"1";"1";"10";"1";"[6,15,19,24,31,34,37]";"1";"0";"1"
"955";"23";"9";"1";"13";"1";"1";"10";"1";"[1,3,9,21,23,37]";"1";"9";"1"
"956";"4";"10";"1";"22";"1";"1";"10";"1";"[5,12,32,34]";"1";"0";"1"
"957";"27";"11";"1";"40";"1";"1";"10";"1";"[7,14,38]";"0";"8";"1"
"958";"6";"11";"1";"1";"1";"1";"10";"2";"[3,9,13,23]";"1";"0";"1"
"959";"4";"11";"1";"22";"1";"1";"10";"1";"[5,12,32,34]";"1";"0";"1"
"960";"2";"11";"1";"6";"1";"1";"10";"1";"[8,15,24,30,34]";"1";"0";"1"
"961";"6";"12";"1";"1";"1";"1";"10";"2";"[3,9,13,23]";"1";"0";"1"
"962";"27";"12";"1";"40";"1";"1";"10";"1";"[7,14,38]";"0";"9";"1"
"963";"2";"12";"1";"6";"1";"1";"10";"1";"[8,15,24,30,34]";"1";"0";"1"
"964";"22";"13";"1";"36";"1";"1";"10";"1";"[21,38,39]";"1";"0";"1"
"965";"30";"13";"1";"27";"1";"1";"10";"1";"[16,18,20,25]";"1";"0";"1"
"966";"22";"14";"1";"36";"1";"1";"10";"1";"[21,38,39]";"1";"0";"1"
"967";"30";"14";"1";"27";"1";"1";"10";"1";"[16,18,20,25]";"1";"0";"1"
"968";"27";"14";"1";"40";"1";"1";"10";"1";"[7,14,38]";"1";"9";"1"
"969";"27";"15";"1";"40";"1";"1";"10";"1";"[7,14,38]";"1";"9";"1"
"970";"33";"16";"1";"9";"1";"1";"10";"2";"[1,3,10,13,29,37]";"1";"7";"1"
"971";"33";"18";"1";"9";"1";"1";"10";"2";"[1,3,10,13,29,37]";"1";"4";"1"
"972";"33";"20";"1";"9";"1";"1";"10";"2";"[1,3,10,13,29,37]";"1";"10";"1"
"973";"34";"21";"1";"19";"1";"1";"10";"1";"[17,30,31,32]";"2";"0";"1"
"974";"34";"22";"1";"19";"1";"1";"10";"1";"[17,30,31,32]";"2";"0";"1"
"975";"18";"2";"1";"32";"1";"1";"11";"1";"[5,15,19,22,24,29,34]";"1";"0";"1"
"976";"19";"2";"1";"38";"1";"1";"11";"1";"[2,4,20,36,39,40]";"1";"0";"1"
"977";"28";"2";"1";"7";"1";"1";"11";"1";"[28,40]";"1";"0";"1"
"978";"40";"2";"1";"11";"1";"1";"11";"1";"[16,18]";"1";"0";"1"
"979";"29";"3";"1";"24";"1";"1";"11";"1";"[6,15,29,30,31,32,34]";"1";"0";"1"
"980";"2";"3";"1";"6";"1";"1";"11";"1";"[8,15,24,30,34]";"2";"0";"1"
"981";"18";"3";"1";"32";"1";"1";"11";"1";"[5,15,19,22,24,29,34]";"1";"0";"1"
"982";"5";"3";"1";"31";"1";"1";"11";"1";"[15,19,24,30,34]";"2";"0";"1"
"983";"32";"3";"1";"20";"1";"1";"11";"1";"[8,27,38]";"1";"0";"1"
"984";"7";"3";"1";"3";"1";"1";"11";"1";"[1,9,10,13,16,18]";"1";"0";"1"
"985";"19";"3";"1";"38";"1";"1";"11";"1";"[2,4,20,36,39,40]";"1";"0";"1"
"986";"14";"3";"1";"10";"1";"1";"11";"1";"[3,9,29,37]";"1";"0";"1"
"987";"10";"3";"1";"29";"1";"1";"11";"1";"[9,10,15,24,32,34,37]";"1";"0";"1"
"988";"28";"3";"1";"7";"1";"1";"11";"1";"[28,40]";"1";"0";"1"
"989";"25";"3";"1";"16";"1";"1";"11";"2";"[3,11,18,27]";"1";"0";"1"
"990";"1";"3";"1";"12";"1";"1";"11";"1";"[5,22]";"1";"0";"1"
"991";"38";"3";"1";"2";"1";"1";"11";"1";"[4,38]";"1";"0";"1"
"992";"40";"3";"1";"11";"1";"1";"11";"1";"[16,18]";"1";"0";"1"
"993";"33";"3";"1";"9";"1";"1";"11";"2";"[1,3,10,13,29,37]";"1";"0";"1"
"994";"29";"4";"1";"24";"1";"1";"11";"1";"[6,15,29,30,31,32,34]";"1";"0";"1"
"995";"24";"4";"1";"35";"1";"1";"11";"1";"[14,26]";"0";"11";"1"
"996";"2";"4";"1";"6";"1";"1";"11";"1";"[8,15,24,30,34]";"2";"0";"1"
"997";"5";"4";"1";"31";"1";"1";"11";"1";"[15,19,24,30,34]";"2";"0";"1"
"998";"32";"4";"1";"20";"1";"1";"11";"1";"[8,27,38]";"1";"0";"1"
"999";"27";"4";"1";"40";"1";"1";"11";"1";"[7,14,38]";"1";"0";"1"
"1000";"7";"4";"1";"3";"1";"1";"11";"1";"[1,9,10,13,16,18]";"1";"0";"1"
"1001";"14";"4";"1";"10";"1";"1";"11";"1";"[3,9,29,37]";"1";"0";"1"
"1002";"10";"4";"1";"29";"1";"1";"11";"1";"[9,10,15,24,32,34,37]";"1";"0";"1"
"1003";"25";"4";"1";"16";"1";"1";"11";"2";"[3,11,18,27]";"1";"0";"1"
"1004";"9";"4";"1";"18";"1";"1";"11";"2";"[3,11,16,27]";"2";"0";"1"
"1005";"11";"4";"1";"17";"1";"1";"11";"1";"[19]";"1";"0";"1"
"1006";"26";"4";"1";"5";"1";"1";"11";"2";"[12,22,32]";"2";"0";"1"
"1007";"1";"4";"1";"12";"1";"1";"11";"1";"[5,22]";"1";"0";"1"
"1008";"38";"4";"1";"2";"1";"1";"11";"1";"[4,38]";"1";"0";"1"
"1009";"33";"4";"1";"9";"1";"1";"11";"2";"[1,3,10,13,29,37]";"1";"0";"1"
"1010";"3";"5";"1";"14";"1";"1";"11";"1";"[26,35,40]";"2";"0";"1"
"1011";"22";"5";"1";"36";"1";"1";"11";"1";"[21,38,39]";"2";"0";"1"
"1012";"24";"5";"1";"35";"1";"1";"11";"1";"[14,26]";"0";"9";"1"
"1013";"35";"5";"1";"33";"1";"1";"11";"1";"[4,28]";"1";"0";"1"
"1014";"27";"5";"1";"40";"1";"1";"11";"1";"[7,14,38]";"1";"0";"1"
"1015";"21";"5";"1";"28";"1";"1";"11";"1";"[7,33]";"1";"0";"1"
"1016";"9";"5";"1";"18";"1";"1";"11";"2";"[3,11,16,27]";"2";"0";"1"
"1017";"37";"5";"1";"4";"1";"1";"11";"1";"[2,33,38]";"1";"0";"1"
"1018";"11";"5";"1";"17";"1";"1";"11";"1";"[19]";"1";"0";"1"
"1019";"15";"5";"1";"30";"1";"1";"11";"1";"[6,15,19,24,31,34,37]";"1";"0";"1"
"1020";"26";"5";"1";"5";"1";"1";"11";"2";"[12,22,32]";"2";"0";"1"
"1021";"12";"5";"1";"23";"1";"1";"11";"2";"[1,13,21]";"1";"0";"1"
"1022";"6";"6";"1";"1";"1";"1";"11";"2";"[3,9,13,23]";"0";"8";"1"
"1023";"3";"6";"1";"14";"1";"1";"11";"1";"[26,35,40]";"2";"0";"1"
"1024";"22";"6";"1";"36";"1";"1";"11";"1";"[21,38,39]";"2";"0";"1"
"1025";"35";"6";"1";"33";"1";"1";"11";"1";"[4,28]";"1";"0";"1"
"1026";"24";"6";"1";"35";"1";"1";"11";"1";"[14,26]";"0";"8";"1"
"1027";"21";"6";"1";"28";"1";"1";"11";"1";"[7,33]";"1";"0";"1"
"1028";"37";"6";"1";"4";"1";"1";"11";"1";"[2,33,38]";"1";"0";"1"
"1029";"15";"6";"1";"30";"1";"1";"11";"1";"[6,15,19,24,31,34,37]";"1";"0";"1"
"1030";"12";"6";"1";"23";"1";"1";"11";"2";"[1,13,21]";"1";"0";"1"
"1031";"4";"7";"1";"22";"1";"1";"11";"1";"[5,12,32,34]";"1";"0";"1"
"1032";"6";"7";"1";"1";"1";"1";"11";"2";"[3,9,13,23]";"0";"6";"1"
"1033";"34";"7";"1";"19";"1";"1";"11";"1";"[17,30,31,32]";"2";"0";"1"
"1034";"8";"7";"1";"21";"1";"1";"11";"2";"[13,15,23,36,39]";"2";"0";"1"
"1035";"17";"7";"1";"15";"1";"1";"11";"2";"[6,21,24,29,30,31,32,34]";"1";"0";"1"
"1036";"4";"8";"1";"22";"1";"1";"11";"1";"[5,12,32,34]";"1";"0";"1"
"1037";"34";"8";"1";"19";"1";"1";"11";"1";"[17,30,31,32]";"2";"0";"1"
"1038";"8";"8";"1";"21";"1";"1";"11";"2";"[13,15,23,36,39]";"2";"0";"1"
"1039";"17";"8";"1";"15";"1";"1";"11";"2";"[6,21,24,29,30,31,32,34]";"1";"0";"1"
"1040";"24";"8";"1";"35";"1";"1";"11";"1";"[14,26]";"0";"7";"1"
"1041";"6";"9";"1";"1";"1";"1";"11";"2";"[3,9,13,23]";"0";"1";"1"
"1042";"16";"9";"1";"37";"1";"1";"11";"2";"[9,10,13,29,30]";"2";"0";"1"
"1043";"23";"9";"1";"13";"1";"1";"11";"1";"[1,3,9,21,23,37]";"1";"0";"1"
"1044";"24";"10";"1";"35";"1";"1";"11";"1";"[14,26]";"0";"6";"1"
"1045";"16";"10";"1";"37";"1";"1";"11";"2";"[9,10,13,29,30]";"2";"0";"1"
"1046";"23";"10";"1";"13";"1";"1";"11";"1";"[1,3,9,21,23,37]";"1";"0";"1"
"1047";"13";"11";"1";"26";"1";"1";"11";"1";"[14,35]";"2";"0";"1"
"1048";"36";"11";"1";"8";"1";"1";"11";"1";"[6,20]";"2";"0";"1"
"1049";"6";"11";"1";"1";"1";"1";"11";"2";"[3,9,13,23]";"0";"2";"1"
"1050";"24";"11";"1";"35";"1";"1";"11";"1";"[14,26]";"0";"5";"1"
"1051";"39";"11";"1";"25";"1";"1";"11";"1";"[27]";"0";"9";"1"
"1052";"13";"12";"1";"26";"1";"1";"11";"1";"[14,35]";"2";"0";"1"
"1053";"36";"12";"1";"8";"1";"1";"11";"1";"[6,20]";"2";"0";"1"
"1054";"39";"12";"1";"25";"1";"1";"11";"1";"[27]";"0";"8";"1"
"1055";"24";"12";"1";"35";"1";"1";"11";"1";"[14,26]";"0";"4";"1"
"1056";"10";"13";"1";"29";"1";"1";"11";"1";"[9,10,15,24,32,34,37]";"1";"11";"1"
"1057";"20";"13";"1";"39";"1";"1";"11";"1";"[21,36,38]";"1";"0";"1"
"1058";"16";"13";"1";"37";"1";"1";"11";"2";"[9,10,13,29,30]";"2";"1";"1"
"1059";"6";"13";"1";"1";"1";"1";"11";"2";"[3,9,13,23]";"0";"3";"1"
"1060";"30";"13";"1";"27";"1";"1";"11";"1";"[16,18,20,25]";"1";"0";"1"
"1061";"24";"13";"1";"35";"1";"1";"11";"1";"[14,26]";"0";"3";"1"
"1062";"20";"14";"1";"39";"1";"1";"11";"1";"[21,36,38]";"1";"0";"1"
"1063";"24";"14";"1";"35";"1";"1";"11";"1";"[14,26]";"0";"5";"1"
"1064";"39";"14";"1";"25";"1";"1";"11";"1";"[27]";"0";"5";"1"
"1065";"30";"14";"1";"27";"1";"1";"11";"1";"[16,18,20,25]";"1";"0";"1"
"1066";"6";"15";"1";"1";"1";"1";"11";"2";"[3,9,13,23]";"1";"3";"1"
"1067";"24";"15";"1";"35";"1";"1";"11";"1";"[14,26]";"0";"6";"1"
"1068";"6";"16";"1";"1";"1";"1";"11";"2";"[3,9,13,23]";"1";"3";"1"
"1069";"16";"16";"1";"37";"1";"1";"11";"2";"[9,10,13,29,30]";"2";"11";"1"
"1070";"24";"16";"1";"35";"1";"1";"11";"1";"[14,26]";"0";"7";"1"
"1071";"24";"17";"1";"35";"1";"1";"11";"1";"[14,26]";"0";"8";"1"
"1072";"24";"18";"1";"35";"1";"1";"11";"1";"[14,26]";"0";"9";"1"
"1073";"31";"18";"1";"34";"1";"1";"11";"2";"[6,15,22,24,29,30,31,32]";"2";"0";"1"
"1074";"24";"19";"1";"35";"1";"1";"11";"1";"[14,26]";"0";"10";"1"
"1075";"31";"19";"1";"34";"1";"1";"11";"2";"[6,15,22,24,29,30,31,32]";"2";"0";"1"
"1076";"39";"20";"1";"25";"1";"1";"11";"1";"[27]";"2";"5";"1"
"1077";"24";"20";"1";"35";"1";"1";"11";"1";"[14,26]";"0";"11";"1"
"1078";"39";"21";"1";"25";"1";"1";"11";"1";"[27]";"2";"5";"1"
"1079";"6";"26";"1";"1";"1";"1";"11";"2";"[3,9,13,23]";"1";"4";"1"
"1080";"6";"27";"1";"1";"1";"1";"11";"2";"[3,9,13,23]";"1";"12";"1"
"1081";"24";"28";"1";"35";"1";"1";"11";"1";"[14,26]";"1";"11";"1"
"1082";"24";"29";"1";"35";"1";"1";"11";"1";"[14,26]";"1";"11";"1"
"1083";"6";"1";"1";"1";"1";"1";"12";"2";"[3,9,13,23]";"0";"1";"1"
"1084";"38";"2";"1";"2";"1";"1";"12";"1";"[4,38]";"1";"0";"1"
"1085";"28";"2";"1";"7";"1";"1";"12";"1";"[28,40]";"1";"0";"1"
"1086";"33";"2";"1";"9";"1";"1";"12";"2";"[1,3,10,13,29,37]";"1";"0";"1"
"1087";"32";"2";"1";"20";"1";"1";"12";"1";"[8,27,38]";"1";"0";"1"
"1088";"18";"2";"1";"32";"1";"1";"12";"1";"[5,15,19,22,24,29,34]";"1";"0";"1"
"1089";"40";"2";"1";"11";"1";"1";"12";"1";"[16,18]";"1";"0";"1"
"1090";"35";"2";"1";"33";"1";"1";"12";"1";"[4,28]";"1";"0";"1"
"1091";"7";"2";"1";"3";"1";"1";"12";"1";"[1,9,10,13,16,18]";"1";"0";"1"
"1092";"37";"3";"1";"4";"1";"1";"12";"1";"[2,33,38]";"2";"0";"1"
"1093";"38";"3";"1";"2";"1";"1";"12";"1";"[4,38]";"1";"0";"1"
"1094";"28";"3";"1";"7";"1";"1";"12";"1";"[28,40]";"1";"0";"1"
"1095";"19";"3";"1";"38";"1";"1";"12";"1";"[2,4,20,36,39,40]";"1";"0";"1"
"1096";"9";"3";"1";"18";"1";"1";"12";"2";"[3,11,16,27]";"2";"0";"1"
"1097";"33";"3";"1";"9";"1";"1";"12";"2";"[1,3,10,13,29,37]";"1";"0";"1"
"1098";"6";"3";"1";"1";"1";"1";"12";"2";"[3,9,13,23]";"0";"12";"1"
"1099";"29";"3";"1";"24";"1";"1";"12";"1";"[6,15,29,30,31,32,34]";"1";"0";"1"
"1100";"32";"3";"1";"20";"1";"1";"12";"1";"[8,27,38]";"1";"0";"1"
"1101";"18";"3";"1";"32";"1";"1";"12";"1";"[5,15,19,22,24,29,34]";"1";"0";"1"
"1102";"40";"3";"1";"11";"1";"1";"12";"1";"[16,18]";"1";"0";"1"
"1103";"16";"3";"1";"37";"1";"1";"12";"2";"[9,10,13,29,30]";"1";"0";"1"
"1104";"35";"3";"1";"33";"1";"1";"12";"1";"[4,28]";"1";"0";"1"
"1105";"7";"3";"1";"3";"1";"1";"12";"1";"[1,9,10,13,16,18]";"1";"0";"1"
"1106";"15";"4";"1";"30";"1";"1";"12";"1";"[6,15,19,24,31,34,37]";"1";"0";"1"
"1107";"37";"4";"1";"4";"1";"1";"12";"1";"[2,33,38]";"2";"0";"1"
"1108";"27";"4";"1";"40";"1";"1";"12";"1";"[7,14,38]";"0";"10";"1"
"1109";"19";"4";"1";"38";"1";"1";"12";"1";"[2,4,20,36,39,40]";"1";"0";"1"
"1110";"9";"4";"1";"18";"1";"1";"12";"2";"[3,11,16,27]";"2";"0";"1"
"1111";"1";"4";"1";"12";"1";"1";"12";"1";"[5,22]";"1";"0";"1"
"1112";"29";"4";"1";"24";"1";"1";"12";"1";"[6,15,29,30,31,32,34]";"1";"0";"1"
"1113";"3";"4";"1";"14";"1";"1";"12";"1";"[26,35,40]";"1";"0";"1"
"1114";"16";"4";"1";"37";"1";"1";"12";"2";"[9,10,13,29,30]";"1";"0";"1"
"1115";"36";"4";"1";"8";"1";"1";"12";"1";"[6,20]";"1";"0";"1"
"1116";"15";"5";"1";"30";"1";"1";"12";"1";"[6,15,19,24,31,34,37]";"1";"0";"1"
"1117";"13";"5";"1";"26";"1";"1";"12";"1";"[14,35]";"1";"0";"1"
"1118";"23";"5";"1";"13";"1";"1";"12";"1";"[1,3,9,21,23,37]";"1";"0";"1"
"1119";"1";"5";"1";"12";"1";"1";"12";"1";"[5,22]";"1";"0";"1"
"1120";"31";"5";"1";"34";"1";"1";"12";"2";"[6,15,22,24,29,30,31,32]";"1";"0";"1"
"1121";"3";"5";"1";"14";"1";"1";"12";"1";"[26,35,40]";"1";"0";"1"
"1122";"5";"5";"1";"31";"1";"1";"12";"1";"[15,19,24,30,34]";"1";"0";"1"
"1123";"21";"5";"1";"28";"1";"1";"12";"1";"[7,33]";"1";"0";"1"
"1124";"6";"5";"1";"1";"1";"1";"12";"2";"[3,9,13,23]";"0";"12";"1"
"1125";"36";"5";"1";"8";"1";"1";"12";"1";"[6,20]";"1";"0";"1"
"1126";"13";"6";"1";"26";"1";"1";"12";"1";"[14,35]";"1";"0";"1"
"1127";"34";"6";"1";"19";"1";"1";"12";"1";"[17,30,31,32]";"2";"0";"1"
"1128";"20";"6";"1";"39";"1";"1";"12";"1";"[21,36,38]";"2";"0";"1"
"1129";"4";"6";"1";"22";"1";"1";"12";"1";"[5,12,32,34]";"1";"0";"1"
"1130";"23";"6";"1";"13";"1";"1";"12";"1";"[1,3,9,21,23,37]";"1";"0";"1"
"1131";"31";"6";"1";"34";"1";"1";"12";"2";"[6,15,22,24,29,30,31,32]";"1";"0";"1"
"1132";"5";"6";"1";"31";"1";"1";"12";"1";"[15,19,24,30,34]";"1";"0";"1"
"1133";"21";"6";"1";"28";"1";"1";"12";"1";"[7,33]";"1";"0";"1"
"1134";"34";"7";"1";"19";"1";"1";"12";"1";"[17,30,31,32]";"2";"0";"1"
"1135";"20";"7";"1";"39";"1";"1";"12";"1";"[21,36,38]";"2";"0";"1"
"1136";"4";"7";"1";"22";"1";"1";"12";"1";"[5,12,32,34]";"1";"0";"1"
"1137";"39";"7";"1";"25";"1";"1";"12";"1";"[27]";"1";"0";"1"
"1138";"27";"7";"1";"40";"1";"1";"12";"1";"[7,14,38]";"0";"9";"1"
"1139";"10";"7";"1";"29";"1";"1";"12";"1";"[9,10,15,24,32,34,37]";"2";"0";"1"
"1140";"14";"7";"1";"10";"1";"1";"12";"1";"[3,9,29,37]";"1";"0";"1"
"1141";"11";"8";"1";"17";"1";"1";"12";"1";"[19]";"1";"0";"1"
"1142";"26";"8";"1";"5";"1";"1";"12";"2";"[12,22,32]";"2";"0";"1"
"1143";"24";"8";"1";"35";"1";"1";"12";"1";"[14,26]";"2";"0";"1"
"1144";"30";"8";"1";"27";"1";"1";"12";"1";"[16,18,20,25]";"1";"0";"1"
"1145";"39";"8";"1";"25";"1";"1";"12";"1";"[27]";"1";"0";"1"
"1146";"8";"8";"1";"21";"1";"1";"12";"2";"[13,15,23,36,39]";"2";"0";"1"
"1147";"10";"8";"1";"29";"1";"1";"12";"1";"[9,10,15,24,32,34,37]";"2";"0";"1"
"1148";"14";"8";"1";"10";"1";"1";"12";"1";"[3,9,29,37]";"1";"0";"1"
"1149";"11";"9";"1";"17";"1";"1";"12";"1";"[19]";"1";"0";"1"
"1150";"26";"9";"1";"5";"1";"1";"12";"2";"[12,22,32]";"2";"0";"1"
"1151";"2";"9";"1";"6";"1";"1";"12";"1";"[8,15,24,30,34]";"1";"0";"1"
"1152";"24";"9";"1";"35";"1";"1";"12";"1";"[14,26]";"2";"0";"1"
"1153";"30";"9";"1";"27";"1";"1";"12";"1";"[16,18,20,25]";"1";"0";"1"
"1154";"27";"9";"1";"40";"1";"1";"12";"1";"[7,14,38]";"0";"10";"1"
"1155";"8";"9";"1";"21";"1";"1";"12";"2";"[13,15,23,36,39]";"2";"0";"1"
"1156";"12";"10";"1";"23";"1";"1";"12";"2";"[1,13,21]";"0";"10";"1"
"1157";"2";"10";"1";"6";"1";"1";"12";"1";"[8,15,24,30,34]";"1";"0";"1"
"1158";"27";"10";"1";"40";"1";"1";"12";"1";"[7,14,38]";"0";"11";"1"
"1159";"25";"12";"1";"16";"1";"1";"12";"2";"[3,11,18,27]";"1";"0";"1"
"1160";"6";"12";"1";"1";"1";"1";"12";"2";"[3,9,13,23]";"1";"12";"1"
"1161";"12";"12";"1";"23";"1";"1";"12";"2";"[1,13,21]";"0";"9";"1"
"1162";"17";"12";"1";"15";"1";"1";"12";"2";"[6,21,24,29,30,31,32,34]";"2";"0";"1"
"1163";"25";"13";"1";"16";"1";"1";"12";"2";"[3,11,18,27]";"1";"0";"1"
"1164";"6";"13";"1";"1";"1";"1";"12";"2";"[3,9,13,23]";"1";"12";"1"
"1165";"27";"13";"1";"40";"1";"1";"12";"1";"[7,14,38]";"1";"11";"1"
"1166";"12";"13";"1";"23";"1";"1";"12";"2";"[1,13,21]";"0";"8";"1"
"1167";"17";"13";"1";"15";"1";"1";"12";"2";"[6,21,24,29,30,31,32,34]";"2";"0";"1"
"1168";"27";"14";"1";"40";"1";"1";"12";"1";"[7,14,38]";"1";"11";"1"
"1169";"12";"14";"1";"23";"1";"1";"12";"2";"[1,13,21]";"0";"7";"1"
"1170";"22";"16";"1";"36";"1";"1";"12";"1";"[21,38,39]";"1";"0";"1"
"1171";"22";"17";"1";"36";"1";"1";"12";"1";"[21,38,39]";"1";"0";"1"
"1172";"12";"17";"1";"23";"1";"1";"12";"2";"[1,13,21]";"0";"12";"1"
"1173";"12";"22";"1";"23";"1";"1";"12";"2";"[1,13,21]";"1";"12";"1"
"1174";"12";"23";"1";"23";"1";"1";"12";"2";"[1,13,21]";"1";"12";"1"
"1175";"15";"0";"1";"35";"1";"2";"12";"1";"[14,26]";"2";"0";"1"
"1176";"40";"0";"1";"3";"1";"2";"12";"2";"[1,9,10,13,16,18]";"1";"0";"1"
"1177";"18";"0";"1";"16";"1";"2";"12";"2";"[3,11,18,27]";"1";"0";"1"
"1178";"33";"0";"1";"9";"1";"2";"12";"2";"[1,3,10,13,29,37]";"1";"0";"1"
"1179";"22";"0";"1";"37";"1";"2";"12";"2";"[9,10,13,29,30]";"1";"0";"1"
"1180";"19";"0";"1";"11";"1";"2";"12";"2";"[16,18]";"1";"0";"1"
"1181";"3";"0";"1";"1";"1";"2";"12";"2";"[3,9,13,23]";"1";"12";"1"
"1182";"30";"0";"1";"13";"1";"2";"12";"2";"[1,3,9,21,23,37]";"1";"0";"1"
"1183";"14";"0";"1";"30";"1";"2";"12";"2";"[6,15,19,24,31,34,37]";"1";"0";"1"
"1184";"9";"0";"1";"19";"1";"2";"12";"2";"[17,30,31,32]";"2";"0";"1"
"1185";"24";"0";"1";"20";"1";"2";"12";"2";"[8,27,38]";"1";"0";"1"
"1186";"29";"0";"1";"15";"1";"2";"12";"2";"[6,21,24,29,30,31,32,34]";"2";"0";"1"
"1187";"10";"0";"1";"24";"1";"2";"12";"2";"[6,15,29,30,31,32,34]";"1";"0";"1"
"1188";"11";"0";"1";"36";"1";"2";"12";"1";"[21,38,39]";"1";"0";"1"
"1189";"17";"0";"1";"22";"1";"2";"12";"1";"[5,12,32,34]";"1";"0";"1"
"1190";"4";"0";"1";"31";"1";"2";"12";"1";"[15,19,24,30,34]";"1";"0";"1"
"1191";"7";"0";"1";"6";"1";"2";"12";"2";"[8,15,24,30,34]";"1";"0";"1"
"1192";"23";"0";"1";"2";"1";"2";"12";"2";"[4,38]";"1";"0";"1"
"1193";"35";"0";"1";"17";"1";"2";"12";"1";"[19]";"1";"0";"1"
"1194";"5";"0";"1";"25";"1";"2";"12";"2";"[27]";"1";"0";"1"
"1195";"32";"0";"1";"14";"1";"2";"12";"2";"[26,35,40]";"1";"0";"1"
"1196";"26";"0";"1";"8";"1";"2";"12";"2";"[6,20]";"1";"0";"1"
"1197";"28";"0";"1";"40";"1";"2";"12";"2";"[7,14,38]";"1";"11";"1"
"1198";"2";"0";"1";"10";"1";"2";"12";"1";"[3,9,29,37]";"1";"0";"1"
"1199";"25";"0";"1";"5";"1";"2";"12";"2";"[12,22,32]";"2";"0";"1"
"1200";"1";"0";"1";"34";"1";"2";"12";"2";"[6,15,22,24,29,30,31,32]";"1";"0";"1"
"1201";"12";"0";"1";"28";"1";"2";"12";"1";"[7,33]";"1";"0";"1"
"1202";"20";"0";"1";"7";"1";"2";"12";"2";"[28,40]";"1";"0";"1"
"1203";"6";"0";"1";"4";"1";"2";"12";"2";"[2,33,38]";"2";"0";"1"
"1204";"27";"0";"1";"23";"1";"2";"12";"1";"[1,13,21]";"1";"12";"1"
"1205";"36";"0";"1";"29";"1";"2";"12";"2";"[9,10,15,24,32,34,37]";"2";"0";"1"
"1206";"37";"0";"1";"18";"1";"2";"12";"2";"[3,11,16,27]";"2";"0";"1"
"1207";"21";"0";"1";"12";"1";"2";"12";"2";"[5,22]";"1";"0";"1"
"1208";"8";"0";"1";"21";"1";"2";"12";"2";"[13,15,23,36,39]";"2";"0";"1"
"1209";"34";"0";"1";"26";"1";"2";"12";"1";"[14,35]";"1";"0";"1"
"1210";"38";"0";"1";"39";"1";"2";"12";"2";"[21,36,38]";"2";"0";"1"
"1211";"31";"0";"1";"27";"1";"2";"12";"2";"[16,18,20,25]";"1";"0";"1"
"1212";"13";"0";"1";"38";"1";"2";"12";"1";"[2,4,20,36,39,40]";"1";"0";"1"
"1213";"39";"0";"1";"33";"1";"2";"12";"2";"[4,28]";"1";"0";"1"
"1214";"16";"0";"1";"32";"1";"2";"12";"2";"[5,15,19,22,24,29,34]";"1";"0";"1"
"1215";"10";"2";"1";"24";"1";"2";"1";"2";"[6,15,29,30,31,32,34]";"2";"0";"1"
"1216";"7";"2";"1";"6";"1";"2";"1";"2";"[8,15,24,30,34]";"2";"0";"1"
"1217";"31";"2";"1";"27";"1";"2";"1";"2";"[16,18,20,25]";"2";"0";"1"
"1218";"17";"2";"1";"22";"1";"2";"1";"1";"[5,12,32,34]";"1";"0";"1"
"1219";"28";"2";"1";"40";"1";"2";"1";"2";"[7,14,38]";"2";"0";"1"
"1220";"5";"3";"1";"25";"1";"2";"1";"2";"[27]";"2";"0";"1"
"1221";"1";"3";"1";"34";"1";"2";"1";"2";"[6,15,22,24,29,30,31,32]";"2";"0";"1"
"1222";"4";"3";"1";"31";"1";"2";"1";"1";"[15,19,24,30,34]";"1";"0";"1"
"1223";"14";"3";"1";"30";"1";"2";"1";"2";"[6,15,19,24,31,34,37]";"2";"0";"1"
"1224";"39";"3";"1";"33";"1";"2";"1";"2";"[4,28]";"2";"0";"1"
"1225";"32";"3";"1";"14";"1";"2";"1";"2";"[26,35,40]";"2";"0";"1"
"1226";"10";"3";"1";"24";"1";"2";"1";"2";"[6,15,29,30,31,32,34]";"2";"0";"1"
"1227";"25";"3";"1";"5";"1";"2";"1";"2";"[12,22,32]";"2";"0";"1"
"1228";"36";"3";"1";"29";"1";"2";"1";"2";"[9,10,15,24,32,34,37]";"2";"0";"1"
"1229";"7";"3";"1";"6";"1";"2";"1";"2";"[8,15,24,30,34]";"2";"0";"1"
"1230";"33";"3";"1";"9";"1";"2";"1";"2";"[1,3,10,13,29,37]";"2";"0";"1"
"1231";"29";"3";"1";"15";"1";"2";"1";"2";"[6,21,24,29,30,31,32,34]";"2";"0";"1"
"1232";"31";"3";"1";"27";"1";"2";"1";"2";"[16,18,20,25]";"2";"0";"1"
"1233";"17";"3";"1";"22";"1";"2";"1";"1";"[5,12,32,34]";"1";"0";"1"
"1234";"28";"3";"1";"40";"1";"2";"1";"2";"[7,14,38]";"2";"0";"1"
"1235";"5";"4";"1";"25";"1";"2";"1";"2";"[27]";"2";"0";"1"
"1236";"16";"4";"1";"32";"1";"2";"1";"2";"[5,15,19,22,24,29,34]";"2";"0";"1"
"1237";"1";"4";"1";"34";"1";"2";"1";"2";"[6,15,22,24,29,30,31,32]";"2";"0";"1"
"1238";"4";"4";"1";"31";"1";"2";"1";"1";"[15,19,24,30,34]";"1";"0";"1"
"1239";"14";"4";"1";"30";"1";"2";"1";"2";"[6,15,19,24,31,34,37]";"2";"0";"1"
"1240";"32";"4";"1";"14";"1";"2";"1";"2";"[26,35,40]";"2";"0";"1"
"1241";"39";"4";"1";"33";"1";"2";"1";"2";"[4,28]";"2";"0";"1"
"1242";"20";"4";"1";"7";"1";"2";"1";"2";"[28,40]";"2";"0";"1"
"1243";"35";"4";"1";"17";"1";"2";"1";"1";"[19]";"1";"0";"1"
"1244";"27";"4";"1";"23";"1";"2";"1";"1";"[1,13,21]";"1";"0";"1"
"1245";"25";"4";"1";"5";"1";"2";"1";"2";"[12,22,32]";"2";"0";"1"
"1246";"36";"4";"1";"29";"1";"2";"1";"2";"[9,10,15,24,32,34,37]";"2";"0";"1"
"1247";"33";"4";"1";"9";"1";"2";"1";"2";"[1,3,10,13,29,37]";"2";"0";"1"
"1248";"29";"4";"1";"15";"1";"2";"1";"2";"[6,21,24,29,30,31,32,34]";"2";"0";"1"
"1249";"37";"4";"1";"18";"1";"2";"1";"2";"[3,11,16,27]";"2";"0";"1"
"1250";"9";"4";"1";"19";"1";"2";"1";"2";"[17,30,31,32]";"1";"0";"1"
"1251";"11";"4";"1";"36";"1";"2";"1";"1";"[21,38,39]";"1";"0";"1"
"1252";"2";"4";"1";"10";"1";"2";"1";"1";"[3,9,29,37]";"1";"0";"1"
"1253";"16";"5";"1";"32";"1";"2";"1";"2";"[5,15,19,22,24,29,34]";"2";"0";"1"
"1254";"20";"5";"1";"7";"1";"2";"1";"2";"[28,40]";"2";"0";"1"
"1255";"23";"5";"1";"2";"1";"2";"1";"2";"[4,38]";"2";"0";"1"
"1256";"35";"5";"1";"17";"1";"2";"1";"1";"[19]";"1";"0";"1"
"1257";"26";"5";"1";"8";"1";"2";"1";"2";"[6,20]";"2";"0";"1"
"1258";"27";"5";"1";"23";"1";"2";"1";"1";"[1,13,21]";"1";"0";"1"
"1259";"40";"5";"1";"3";"1";"2";"1";"2";"[1,9,10,13,16,18]";"2";"0";"1"
"1260";"3";"5";"1";"1";"1";"2";"1";"2";"[3,9,13,23]";"2";"0";"1"
"1261";"38";"5";"1";"39";"1";"2";"1";"2";"[21,36,38]";"2";"0";"1"
"1262";"15";"5";"1";"35";"1";"2";"1";"1";"[14,26]";"1";"0";"1"
"1263";"37";"5";"1";"18";"1";"2";"1";"2";"[3,11,16,27]";"2";"0";"1"
"1264";"9";"5";"1";"19";"1";"2";"1";"2";"[17,30,31,32]";"1";"0";"1"
"1265";"11";"5";"1";"36";"1";"2";"1";"1";"[21,38,39]";"1";"0";"1"
"1266";"2";"5";"1";"10";"1";"2";"1";"1";"[3,9,29,37]";"1";"0";"1"
"1267";"6";"6";"1";"4";"1";"2";"1";"2";"[2,33,38]";"2";"0";"1"
"1268";"30";"6";"1";"13";"1";"2";"1";"2";"[1,3,9,21,23,37]";"2";"0";"1"
"1269";"23";"6";"1";"2";"1";"2";"1";"2";"[4,38]";"2";"0";"1"
"1270";"26";"6";"1";"8";"1";"2";"1";"2";"[6,20]";"2";"0";"1"
"1271";"40";"6";"1";"3";"1";"2";"1";"2";"[1,9,10,13,16,18]";"2";"0";"1"
"1272";"3";"6";"1";"1";"1";"2";"1";"2";"[3,9,13,23]";"2";"0";"1"
"1273";"38";"6";"1";"39";"1";"2";"1";"2";"[21,36,38]";"2";"0";"1"
"1274";"15";"6";"1";"35";"1";"2";"1";"1";"[14,26]";"1";"0";"1"
"1275";"34";"6";"1";"26";"1";"2";"1";"1";"[14,35]";"1";"0";"1"
"1276";"6";"7";"1";"4";"1";"2";"1";"2";"[2,33,38]";"2";"0";"1"
"1277";"24";"7";"1";"20";"1";"2";"1";"2";"[8,27,38]";"2";"0";"1"
"1278";"30";"7";"1";"13";"1";"2";"1";"2";"[1,3,9,21,23,37]";"2";"0";"1"
"1279";"18";"7";"1";"16";"1";"2";"1";"2";"[3,11,18,27]";"2";"0";"1"
"1280";"22";"7";"1";"37";"1";"2";"1";"2";"[9,10,13,29,30]";"2";"0";"1"
"1281";"34";"7";"1";"26";"1";"2";"1";"1";"[14,35]";"1";"0";"1"
"1282";"24";"8";"1";"20";"1";"2";"1";"2";"[8,27,38]";"2";"0";"1"
"1283";"18";"8";"1";"16";"1";"2";"1";"2";"[3,11,18,27]";"2";"0";"1"
"1284";"22";"8";"1";"37";"1";"2";"1";"2";"[9,10,13,29,30]";"2";"0";"1"
"1285";"19";"8";"1";"11";"1";"2";"1";"2";"[16,18]";"2";"0";"1"
"1286";"13";"8";"1";"38";"1";"2";"1";"1";"[2,4,20,36,39,40]";"2";"0";"1"
"1287";"19";"9";"1";"11";"1";"2";"1";"2";"[16,18]";"2";"0";"1"
"1288";"13";"9";"1";"38";"1";"2";"1";"1";"[2,4,20,36,39,40]";"2";"0";"1"
"1289";"21";"15";"1";"12";"1";"2";"1";"2";"[5,22]";"2";"0";"1"
"1290";"8";"16";"1";"21";"1";"2";"1";"2";"[13,15,23,36,39]";"2";"0";"1"
"1291";"21";"16";"1";"12";"1";"2";"1";"2";"[5,22]";"2";"0";"1"
"1292";"8";"17";"1";"21";"1";"2";"1";"2";"[13,15,23,36,39]";"2";"0";"1"
"1293";"12";"21";"1";"28";"1";"2";"1";"1";"[7,33]";"2";"0";"1"
"1294";"12";"22";"1";"28";"1";"2";"1";"1";"[7,33]";"2";"0";"1"
"1295";"3";"2";"1";"1";"1";"2";"2";"2";"[3,9,13,23]";"2";"0";"1"
"1296";"24";"2";"1";"20";"1";"2";"2";"2";"[8,27,38]";"2";"0";"1"
"1297";"29";"2";"1";"15";"1";"2";"2";"2";"[6,21,24,29,30,31,32,34]";"2";"0";"1"
"1298";"5";"2";"1";"25";"1";"2";"2";"2";"[27]";"2";"0";"1"
"1299";"31";"3";"1";"27";"1";"2";"2";"2";"[16,18,20,25]";"2";"0";"1"
"1300";"18";"3";"1";"16";"1";"2";"2";"2";"[3,11,18,27]";"2";"0";"1"
"1301";"10";"3";"1";"24";"1";"2";"2";"2";"[6,15,29,30,31,32,34]";"2";"0";"1"
"1302";"3";"3";"1";"1";"1";"2";"2";"2";"[3,9,13,23]";"2";"0";"1"
"1303";"7";"3";"1";"6";"1";"2";"2";"2";"[8,15,24,30,34]";"2";"0";"1"
"1304";"28";"3";"1";"40";"1";"2";"2";"2";"[7,14,38]";"2";"0";"1"
"1305";"24";"3";"1";"20";"1";"2";"2";"2";"[8,27,38]";"2";"0";"1"
"1306";"29";"3";"1";"15";"1";"2";"2";"2";"[6,21,24,29,30,31,32,34]";"2";"0";"1"
"1307";"26";"3";"1";"8";"1";"2";"2";"2";"[6,20]";"2";"0";"1"
"1308";"5";"3";"1";"25";"1";"2";"2";"2";"[27]";"2";"0";"1"
"1309";"31";"4";"1";"27";"1";"2";"2";"2";"[16,18,20,25]";"2";"0";"1"
"1310";"18";"4";"1";"16";"1";"2";"2";"2";"[3,11,18,27]";"2";"0";"1"
"1311";"19";"4";"1";"11";"1";"2";"2";"2";"[16,18]";"2";"0";"1"
"1312";"10";"4";"1";"24";"1";"2";"2";"2";"[6,15,29,30,31,32,34]";"2";"0";"1"
"1313";"7";"4";"1";"6";"1";"2";"2";"2";"[8,15,24,30,34]";"2";"0";"1"
"1314";"35";"4";"1";"17";"1";"2";"2";"1";"[19]";"1";"0";"1"
"1315";"40";"4";"1";"3";"1";"2";"2";"2";"[1,9,10,13,16,18]";"2";"0";"1"
"1316";"28";"4";"1";"40";"1";"2";"2";"2";"[7,14,38]";"2";"0";"1"
"1317";"17";"4";"1";"22";"1";"2";"2";"1";"[5,12,32,34]";"2";"0";"1"
"1318";"37";"4";"1";"18";"1";"2";"2";"2";"[3,11,16,27]";"2";"0";"1"
"1319";"26";"4";"1";"8";"1";"2";"2";"2";"[6,20]";"2";"0";"1"
"1320";"2";"5";"1";"10";"1";"2";"2";"1";"[3,9,29,37]";"2";"0";"1"
"1321";"1";"5";"1";"34";"1";"2";"2";"2";"[6,15,22,24,29,30,31,32]";"2";"0";"1"
"1322";"19";"5";"1";"11";"1";"2";"2";"2";"[16,18]";"2";"0";"1"
"1323";"35";"5";"1";"17";"1";"2";"2";"1";"[19]";"1";"0";"1"
"1324";"40";"5";"1";"3";"1";"2";"2";"2";"[1,9,10,13,16,18]";"2";"0";"1"
"1325";"17";"5";"1";"22";"1";"2";"2";"1";"[5,12,32,34]";"2";"0";"1"
"1326";"33";"5";"1";"9";"1";"2";"2";"2";"[1,3,10,13,29,37]";"2";"0";"1"
"1327";"4";"5";"1";"31";"1";"2";"2";"1";"[15,19,24,30,34]";"1";"0";"1"
"1328";"16";"5";"1";"32";"1";"2";"2";"2";"[5,15,19,22,24,29,34]";"2";"0";"1"
"1329";"37";"5";"1";"18";"1";"2";"2";"2";"[3,11,16,27]";"2";"0";"1"
"1330";"8";"6";"1";"21";"1";"2";"2";"2";"[13,15,23,36,39]";"2";"0";"1"
"1331";"2";"6";"1";"10";"1";"2";"2";"1";"[3,9,29,37]";"2";"0";"1"
"1332";"1";"6";"1";"34";"1";"2";"2";"2";"[6,15,22,24,29,30,31,32]";"2";"0";"1"
"1333";"34";"6";"1";"26";"1";"2";"2";"1";"[14,35]";"2";"0";"1"
"1334";"30";"6";"1";"13";"1";"2";"2";"2";"[1,3,9,21,23,37]";"2";"0";"1"
"1335";"33";"6";"1";"9";"1";"2";"2";"2";"[1,3,10,13,29,37]";"2";"0";"1"
"1336";"27";"6";"1";"23";"1";"2";"2";"1";"[1,13,21]";"2";"0";"1"
"1337";"4";"6";"1";"31";"1";"2";"2";"1";"[15,19,24,30,34]";"1";"0";"1"
"1338";"16";"6";"1";"32";"1";"2";"2";"2";"[5,15,19,22,24,29,34]";"2";"0";"1"
"1339";"23";"6";"1";"2";"1";"2";"2";"2";"[4,38]";"2";"0";"1"
"1340";"8";"7";"1";"21";"1";"2";"2";"2";"[13,15,23,36,39]";"2";"0";"1"
"1341";"15";"7";"1";"35";"1";"2";"2";"1";"[14,26]";"1";"0";"1"
"1342";"34";"7";"1";"26";"1";"2";"2";"1";"[14,35]";"2";"0";"1"
"1343";"14";"7";"1";"30";"1";"2";"2";"2";"[6,15,19,24,31,34,37]";"2";"0";"1"
"1344";"30";"7";"1";"13";"1";"2";"2";"2";"[1,3,9,21,23,37]";"2";"0";"1"
"1345";"27";"7";"1";"23";"1";"2";"2";"1";"[1,13,21]";"2";"0";"1"
"1346";"23";"7";"1";"2";"1";"2";"2";"2";"[4,38]";"2";"0";"1"
"1347";"15";"8";"1";"35";"1";"2";"2";"1";"[14,26]";"1";"0";"1"
"1348";"14";"8";"1";"30";"1";"2";"2";"2";"[6,15,19,24,31,34,37]";"2";"0";"1"
"1349";"22";"8";"1";"37";"1";"2";"2";"2";"[9,10,13,29,30]";"2";"0";"1"
"1350";"39";"8";"1";"33";"1";"2";"2";"2";"[4,28]";"2";"0";"1"
"1351";"20";"8";"1";"7";"1";"2";"2";"2";"[28,40]";"2";"0";"1"
"1352";"6";"9";"1";"4";"1";"2";"2";"2";"[2,33,38]";"2";"0";"1"
"1353";"22";"9";"1";"37";"1";"2";"2";"2";"[9,10,13,29,30]";"2";"0";"1"
"1354";"39";"9";"1";"33";"1";"2";"2";"2";"[4,28]";"2";"0";"1"
"1355";"20";"9";"1";"7";"1";"2";"2";"2";"[28,40]";"2";"0";"1"
"1356";"6";"10";"1";"4";"1";"2";"2";"2";"[2,33,38]";"2";"0";"1"
"1357";"32";"10";"1";"14";"1";"2";"2";"2";"[26,35,40]";"2";"0";"1"
"1358";"32";"11";"1";"14";"1";"2";"2";"2";"[26,35,40]";"2";"0";"1"
"1359";"25";"12";"1";"5";"1";"2";"2";"2";"[12,22,32]";"2";"0";"1"
"1360";"13";"12";"1";"38";"1";"2";"2";"1";"[2,4,20,36,39,40]";"2";"0";"1"
"1361";"9";"12";"1";"19";"1";"2";"2";"2";"[17,30,31,32]";"1";"0";"1"
"1362";"38";"12";"1";"39";"1";"2";"2";"2";"[21,36,38]";"2";"0";"1"
"1363";"25";"13";"1";"5";"1";"2";"2";"2";"[12,22,32]";"2";"0";"1"
"1364";"13";"13";"1";"38";"1";"2";"2";"1";"[2,4,20,36,39,40]";"2";"0";"1"
"1365";"11";"13";"1";"36";"1";"2";"2";"1";"[21,38,39]";"2";"0";"1"
"1366";"9";"13";"1";"19";"1";"2";"2";"2";"[17,30,31,32]";"1";"0";"1"
"1367";"38";"13";"1";"39";"1";"2";"2";"2";"[21,36,38]";"2";"0";"1"
"1368";"12";"14";"1";"28";"1";"2";"2";"1";"[7,33]";"2";"0";"1"
"1369";"11";"14";"1";"36";"1";"2";"2";"1";"[21,38,39]";"2";"0";"1"
"1370";"21";"14";"1";"12";"1";"2";"2";"2";"[5,22]";"2";"0";"1"
"1371";"12";"15";"1";"28";"1";"2";"2";"1";"[7,33]";"2";"0";"1"
"1372";"36";"15";"1";"29";"1";"2";"2";"2";"[9,10,15,24,32,34,37]";"2";"0";"1"
"1373";"21";"15";"1";"12";"1";"2";"2";"2";"[5,22]";"2";"0";"1"
"1374";"36";"16";"1";"29";"1";"2";"2";"2";"[9,10,15,24,32,34,37]";"2";"0";"1"
"1375";"5";"1";"1";"25";"1";"2";"3";"2";"[27]";"2";"0";"1"
"1376";"7";"1";"1";"6";"1";"2";"3";"2";"[8,15,24,30,34]";"2";"0";"1"
"1377";"18";"1";"1";"16";"1";"2";"3";"2";"[3,11,18,27]";"2";"0";"1"
"1378";"28";"2";"1";"40";"1";"2";"3";"2";"[7,14,38]";"2";"0";"1"
"1379";"37";"2";"1";"18";"1";"2";"3";"2";"[3,11,16,27]";"2";"0";"1"
"1380";"10";"2";"1";"24";"1";"2";"3";"2";"[6,15,29,30,31,32,34]";"2";"0";"1"
"1381";"35";"2";"1";"17";"1";"2";"3";"1";"[19]";"1";"0";"1"
"1382";"5";"2";"1";"25";"1";"2";"3";"2";"[27]";"2";"0";"1"
"1383";"40";"2";"1";"3";"1";"2";"3";"2";"[1,9,10,13,16,18]";"2";"0";"1"
"1384";"7";"2";"1";"6";"1";"2";"3";"2";"[8,15,24,30,34]";"2";"0";"1"
"1385";"19";"2";"1";"11";"1";"2";"3";"2";"[16,18]";"2";"0";"1"
"1386";"18";"2";"1";"16";"1";"2";"3";"2";"[3,11,18,27]";"2";"0";"1"
"1387";"2";"2";"1";"10";"1";"2";"3";"1";"[3,9,29,37]";"2";"0";"1"
"1388";"25";"2";"1";"5";"1";"2";"3";"2";"[12,22,32]";"2";"0";"1"
"1389";"29";"2";"1";"15";"1";"2";"3";"2";"[6,21,24,29,30,31,32,34]";"2";"0";"1"
"1390";"28";"3";"1";"40";"1";"2";"3";"2";"[7,14,38]";"2";"0";"1"
"1391";"37";"3";"1";"18";"1";"2";"3";"2";"[3,11,16,27]";"2";"0";"1"
"1392";"10";"3";"1";"24";"1";"2";"3";"2";"[6,15,29,30,31,32,34]";"2";"0";"1"
"1393";"9";"3";"1";"19";"1";"2";"3";"2";"[17,30,31,32]";"1";"0";"1"
"1394";"27";"3";"1";"23";"1";"2";"3";"1";"[1,13,21]";"2";"0";"1"
"1395";"35";"3";"1";"17";"1";"2";"3";"1";"[19]";"1";"0";"1"
"1396";"33";"3";"1";"9";"1";"2";"3";"2";"[1,3,10,13,29,37]";"2";"0";"1"
"1397";"40";"3";"1";"3";"1";"2";"3";"2";"[1,9,10,13,16,18]";"2";"0";"1"
"1398";"26";"3";"1";"8";"1";"2";"3";"2";"[6,20]";"2";"0";"1"
"1399";"19";"3";"1";"11";"1";"2";"3";"2";"[16,18]";"2";"0";"1"
"1400";"2";"3";"1";"10";"1";"2";"3";"1";"[3,9,29,37]";"2";"0";"1"
"1401";"14";"3";"1";"30";"1";"2";"3";"2";"[6,15,19,24,31,34,37]";"2";"0";"1"
"1402";"25";"3";"1";"5";"1";"2";"3";"2";"[12,22,32]";"2";"0";"1"
"1403";"29";"3";"1";"15";"1";"2";"3";"2";"[6,21,24,29,30,31,32,34]";"2";"0";"1"
"1404";"34";"3";"1";"26";"1";"2";"3";"1";"[14,35]";"2";"0";"1"
"1405";"3";"3";"1";"1";"1";"2";"3";"2";"[3,9,13,23]";"2";"0";"1"
"1406";"39";"3";"1";"33";"1";"2";"3";"2";"[4,28]";"2";"0";"1"
"1407";"38";"4";"1";"39";"1";"2";"3";"2";"[21,36,38]";"2";"0";"1"
"1408";"23";"4";"1";"2";"1";"2";"3";"2";"[4,38]";"0";"1";"1"
"1409";"4";"4";"1";"31";"1";"2";"3";"1";"[15,19,24,30,34]";"1";"0";"1"
"1410";"27";"4";"1";"23";"1";"2";"3";"1";"[1,13,21]";"2";"0";"1"
"1411";"9";"4";"1";"19";"1";"2";"3";"2";"[17,30,31,32]";"1";"0";"1"
"1412";"17";"4";"1";"22";"1";"2";"3";"1";"[5,12,32,34]";"2";"0";"1"
"1413";"33";"4";"1";"9";"1";"2";"3";"2";"[1,3,10,13,29,37]";"2";"0";"1"
"1414";"26";"4";"1";"8";"1";"2";"3";"2";"[6,20]";"2";"0";"1"
"1415";"16";"4";"1";"32";"1";"2";"3";"2";"[5,15,19,22,24,29,34]";"2";"0";"1"
"1416";"14";"4";"1";"30";"1";"2";"3";"2";"[6,15,19,24,31,34,37]";"2";"0";"1"
"1417";"15";"4";"1";"35";"1";"2";"3";"1";"[14,26]";"1";"0";"1"
"1418";"34";"4";"1";"26";"1";"2";"3";"1";"[14,35]";"2";"0";"1"
"1419";"24";"4";"1";"20";"1";"2";"3";"2";"[8,27,38]";"2";"0";"1"
"1420";"3";"4";"1";"1";"1";"2";"3";"2";"[3,9,13,23]";"2";"0";"1"
"1421";"21";"4";"1";"12";"1";"2";"3";"2";"[5,22]";"2";"0";"1"
"1422";"39";"5";"1";"33";"1";"2";"3";"2";"[4,28]";"2";"0";"1"
"1423";"38";"5";"1";"39";"1";"2";"3";"2";"[21,36,38]";"2";"0";"1"
"1424";"23";"5";"1";"2";"1";"2";"3";"2";"[4,38]";"0";"2";"1"
"1425";"4";"5";"1";"31";"1";"2";"3";"1";"[15,19,24,30,34]";"1";"0";"1"
"1426";"1";"5";"1";"34";"1";"2";"3";"2";"[6,15,22,24,29,30,31,32]";"2";"0";"1"
"1427";"17";"5";"1";"22";"1";"2";"3";"1";"[5,12,32,34]";"2";"0";"1"
"1428";"32";"5";"1";"14";"1";"2";"3";"2";"[26,35,40]";"2";"0";"1"
"1429";"11";"5";"1";"36";"1";"2";"3";"1";"[21,38,39]";"2";"0";"1"
"1430";"16";"5";"1";"32";"1";"2";"3";"2";"[5,15,19,22,24,29,34]";"2";"0";"1"
"1431";"36";"5";"1";"29";"1";"2";"3";"2";"[9,10,15,24,32,34,37]";"1";"0";"1"
"1432";"15";"5";"1";"35";"1";"2";"3";"1";"[14,26]";"1";"0";"1"
"1433";"24";"5";"1";"20";"1";"2";"3";"2";"[8,27,38]";"2";"0";"1"
"1434";"21";"5";"1";"12";"1";"2";"3";"2";"[5,22]";"2";"0";"1"
"1435";"20";"5";"1";"7";"1";"2";"3";"2";"[28,40]";"2";"0";"1"
"1436";"1";"6";"1";"34";"1";"2";"3";"2";"[6,15,22,24,29,30,31,32]";"2";"0";"1"
"1437";"32";"6";"1";"14";"1";"2";"3";"2";"[26,35,40]";"2";"0";"1"
"1438";"11";"6";"1";"36";"1";"2";"3";"1";"[21,38,39]";"2";"0";"1"
"1439";"36";"6";"1";"29";"1";"2";"3";"2";"[9,10,15,24,32,34,37]";"1";"0";"1"
"1440";"6";"6";"1";"4";"1";"2";"3";"2";"[2,33,38]";"2";"0";"1"
"1441";"20";"6";"1";"7";"1";"2";"3";"2";"[28,40]";"2";"0";"1"
"1442";"23";"7";"1";"2";"1";"2";"3";"2";"[4,38]";"2";"2";"1"
"1443";"6";"7";"1";"4";"1";"2";"3";"2";"[2,33,38]";"2";"0";"1"
"1444";"31";"8";"1";"27";"1";"2";"3";"2";"[16,18,20,25]";"2";"0";"1"
"1445";"23";"8";"1";"2";"1";"2";"3";"2";"[4,38]";"2";"2";"1"
"1446";"30";"9";"1";"13";"1";"2";"3";"2";"[1,3,9,21,23,37]";"2";"0";"1"
"1447";"31";"9";"1";"27";"1";"2";"3";"2";"[16,18,20,25]";"2";"0";"1"
"1448";"22";"9";"1";"37";"1";"2";"3";"2";"[9,10,13,29,30]";"2";"0";"1"
"1449";"30";"10";"1";"13";"1";"2";"3";"2";"[1,3,9,21,23,37]";"2";"0";"1"
"1450";"13";"10";"1";"38";"1";"2";"3";"1";"[2,4,20,36,39,40]";"2";"0";"1"
"1451";"22";"10";"1";"37";"1";"2";"3";"2";"[9,10,13,29,30]";"2";"0";"1"
"1452";"13";"11";"1";"38";"1";"2";"3";"1";"[2,4,20,36,39,40]";"2";"0";"1"
"1453";"8";"12";"1";"21";"1";"2";"3";"2";"[13,15,23,36,39]";"2";"0";"1"
"1454";"8";"13";"1";"21";"1";"2";"3";"2";"[13,15,23,36,39]";"2";"0";"1"
"1455";"12";"19";"1";"28";"1";"2";"3";"1";"[7,33]";"2";"0";"1"
"1456";"12";"20";"1";"28";"1";"2";"3";"1";"[7,33]";"2";"0";"1"
"1457";"38";"1";"1";"39";"1";"2";"4";"2";"[21,36,38]";"2";"0";"1"
"1458";"7";"2";"1";"6";"1";"2";"4";"2";"[8,15,24,30,34]";"2";"0";"1"
"1459";"28";"2";"1";"40";"1";"2";"4";"2";"[7,14,38]";"2";"0";"1"
"1460";"18";"2";"1";"16";"1";"2";"4";"2";"[3,11,18,27]";"2";"0";"1"
