"id";"id_subj";"time";"session";"id_grp";"grp";"round";"period";"sig";"links";"choice";"hist";"active"
"1";"11";"0";"1";"21";"1";"1";"1";"1";"[1,2,3,22]";"0";"0";"1"
"2";"31";"0";"1";"15";"1";"1";"1";"2";"[1,2,3,16]";"0";"0";"1"
"3";"34";"0";"1";"12";"1";"1";"1";"1";"[1,2,3,13]";"0";"0";"1"
"4";"35";"0";"1";"36";"1";"1";"1";"1";"[1,2,3,37]";"0";"0";"1"
"5";"28";"0";"1";"25";"1";"1";"1";"1";"[1,2,3,26]";"0";"0";"1"
"6";"5";"0";"1";"29";"1";"1";"1";"1";"[1,2,3,30]";"0";"0";"1"
"7";"27";"0";"1";"40";"1";"1";"1";"2";"[1,2,3]";"0";"0";"1"
"8";"36";"0";"1";"39";"1";"1";"1";"2";"[1,2,3,40]";"0";"0";"1"
"9";"25";"0";"1";"18";"1";"1";"1";"1";"[1,2,3,19]";"0";"0";"1"
"10";"30";"0";"1";"10";"1";"1";"1";"1";"[1,2,3,11]";"0";"0";"1"
"11";"15";"0";"1";"30";"1";"1";"1";"2";"[1,2,3,31]";"0";"0";"1"
"12";"7";"0";"1";"2";"1";"1";"1";"1";"[1,3]";"0";"0";"1"
"13";"1";"0";"1";"23";"1";"1";"1";"1";"[1,2,3,24]";"0";"0";"1"
"14";"4";"0";"1";"19";"1";"1";"1";"2";"[1,2,3,20]";"0";"0";"1"
"15";"32";"0";"1";"20";"1";"1";"1";"2";"[1,2,3,21]";"0";"0";"1"
"16";"8";"0";"1";"16";"1";"1";"1";"1";"[1,2,3,17]";"0";"0";"1"
"17";"37";"0";"1";"34";"1";"1";"1";"1";"[1,2,3,35]";"0";"0";"1"
"18";"18";"0";"1";"28";"1";"1";"1";"1";"[1,2,3,29]";"0";"0";"1"
"19";"13";"0";"1";"1";"1";"1";"1";"1";"[2,3]";"0";"0";"1"
"20";"6";"0";"1";"4";"1";"1";"1";"2";"[1,2,3,5]";"0";"0";"1"
"21";"16";"0";"1";"9";"1";"1";"1";"1";"[1,2,3,10]";"0";"0";"1"
"22";"24";"0";"1";"11";"1";"1";"1";"1";"[1,2,3,12]";"0";"0";"1"
"23";"22";"0";"1";"26";"1";"1";"1";"1";"[1,2,3,27]";"0";"0";"1"
"24";"12";"0";"1";"6";"1";"1";"1";"1";"[1,2,3,7]";"0";"0";"1"
"25";"26";"0";"1";"31";"1";"1";"1";"2";"[1,2,3,32]";"0";"0";"1"
"26";"2";"0";"1";"22";"1";"1";"1";"2";"[1,2,3,23]";"0";"0";"1"
"27";"33";"0";"1";"37";"1";"1";"1";"1";"[1,2,3,38]";"0";"0";"1"
"28";"39";"0";"1";"27";"1";"1";"1";"1";"[1,2,3,28]";"0";"0";"1"
"29";"10";"0";"1";"14";"1";"1";"1";"1";"[1,2,3,15]";"0";"0";"1"
"30";"9";"0";"1";"7";"1";"1";"1";"1";"[1,2,3,8]";"0";"0";"1"
"31";"3";"0";"1";"35";"1";"1";"1";"1";"[1,2,3,36]";"0";"0";"1"
"32";"19";"0";"1";"33";"1";"1";"1";"1";"[1,2,3,34]";"0";"0";"1"
"33";"23";"0";"1";"8";"1";"1";"1";"2";"[1,2,3,9]";"0";"0";"1"
"34";"40";"0";"1";"17";"1";"1";"1";"1";"[1,2,3,18]";"0";"0";"1"
"35";"14";"0";"1";"13";"1";"1";"1";"2";"[1,2,3,14]";"0";"0";"1"
"36";"38";"0";"1";"3";"1";"1";"1";"2";"[1,2,4]";"0";"0";"1"
"37";"29";"0";"1";"5";"1";"1";"1";"1";"[1,2,3,6]";"0";"0";"1"
"38";"17";"0";"1";"38";"1";"1";"1";"1";"[1,2,3,39]";"0";"0";"1"
"39";"20";"0";"1";"32";"1";"1";"1";"1";"[1,2,3,33]";"0";"0";"1"
"40";"21";"0";"1";"24";"1";"1";"1";"1";"[1,2,3,25]";"0";"0";"1"
"41";"35";"5";"1";"36";"1";"1";"1";"1";"[1,2,3,37]";"1";"0";"1"
"42";"6";"5";"1";"4";"1";"1";"1";"2";"[1,2,3,5]";"2";"0";"1"
"43";"32";"5";"1";"20";"1";"1";"1";"2";"[1,2,3,21]";"2";"0";"1"
"44";"37";"5";"1";"34";"1";"1";"1";"1";"[1,2,3,35]";"2";"0";"1"
"45";"2";"5";"1";"22";"1";"1";"1";"2";"[1,2,3,23]";"2";"0";"1"
"46";"35";"6";"1";"36";"1";"1";"1";"1";"[1,2,3,37]";"1";"0";"1"
"47";"9";"6";"1";"7";"1";"1";"1";"1";"[1,2,3,8]";"1";"0";"1"
"48";"6";"6";"1";"4";"1";"1";"1";"2";"[1,2,3,5]";"2";"0";"1"
"49";"1";"6";"1";"23";"1";"1";"1";"1";"[1,2,3,24]";"1";"0";"1"
"50";"32";"6";"1";"20";"1";"1";"1";"2";"[1,2,3,21]";"2";"0";"1"
"51";"37";"6";"1";"34";"1";"1";"1";"1";"[1,2,3,35]";"2";"0";"1"
"52";"4";"6";"1";"19";"1";"1";"1";"2";"[1,2,3,20]";"2";"0";"1"
"53";"5";"6";"1";"29";"1";"1";"1";"1";"[1,2,3,30]";"1";"0";"1"
"54";"27";"6";"1";"40";"1";"1";"1";"2";"[1,2,3]";"2";"0";"1"
"55";"2";"6";"1";"22";"1";"1";"1";"2";"[1,2,3,23]";"2";"0";"1"
"56";"9";"7";"1";"7";"1";"1";"1";"1";"[1,2,3,8]";"1";"0";"1"
"57";"1";"7";"1";"23";"1";"1";"1";"1";"[1,2,3,24]";"1";"0";"1"
"58";"4";"7";"1";"19";"1";"1";"1";"2";"[1,2,3,20]";"2";"0";"1"
"59";"27";"7";"1";"40";"1";"1";"1";"2";"[1,2,3]";"2";"0";"1"
"60";"5";"7";"1";"29";"1";"1";"1";"1";"[1,2,3,30]";"1";"0";"1"
"61";"33";"7";"1";"37";"1";"1";"1";"1";"[1,2,3,38]";"1";"0";"1"
"62";"29";"7";"1";"5";"1";"1";"1";"1";"[1,2,3,6]";"1";"0";"1"
"63";"33";"8";"1";"37";"1";"1";"1";"1";"[1,2,3,38]";"1";"0";"1"
"64";"38";"8";"1";"3";"1";"1";"1";"2";"[1,2,4]";"2";"0";"1"
"65";"29";"8";"1";"5";"1";"1";"1";"1";"[1,2,3,6]";"1";"0";"1"
"66";"16";"9";"1";"9";"1";"1";"1";"1";"[1,2,3,10]";"1";"0";"1"
"67";"3";"9";"1";"35";"1";"1";"1";"1";"[1,2,3,36]";"1";"0";"1"
"68";"21";"9";"1";"24";"1";"1";"1";"1";"[1,2,3,25]";"1";"0";"1"
"69";"20";"9";"1";"32";"1";"1";"1";"1";"[1,2,3,33]";"1";"0";"1"
"70";"19";"9";"1";"33";"1";"1";"1";"1";"[1,2,3,34]";"1";"0";"1"
"71";"38";"9";"1";"3";"1";"1";"1";"2";"[1,2,4]";"2";"0";"1"
"72";"36";"10";"1";"39";"1";"1";"1";"2";"[1,2,3,40]";"2";"0";"1"
"73";"16";"10";"1";"9";"1";"1";"1";"1";"[1,2,3,10]";"1";"0";"1"
"74";"3";"10";"1";"35";"1";"1";"1";"1";"[1,2,3,36]";"1";"0";"1"
"75";"24";"10";"1";"11";"1";"1";"1";"1";"[1,2,3,12]";"1";"0";"1"
"76";"21";"10";"1";"24";"1";"1";"1";"1";"[1,2,3,25]";"1";"0";"1"
"77";"20";"10";"1";"32";"1";"1";"1";"1";"[1,2,3,33]";"1";"0";"1"
"78";"26";"10";"1";"31";"1";"1";"1";"2";"[1,2,3,32]";"2";"0";"1"
"79";"19";"10";"1";"33";"1";"1";"1";"1";"[1,2,3,34]";"1";"0";"1"
"80";"15";"10";"1";"30";"1";"1";"1";"2";"[1,2,3,31]";"2";"0";"1"
"81";"36";"11";"1";"39";"1";"1";"1";"2";"[1,2,3,40]";"2";"0";"1"
"82";"24";"11";"1";"11";"1";"1";"1";"1";"[1,2,3,12]";"1";"0";"1"
"83";"26";"11";"1";"31";"1";"1";"1";"2";"[1,2,3,32]";"2";"0";"1"
"84";"15";"11";"1";"30";"1";"1";"1";"2";"[1,2,3,31]";"2";"0";"1"
"85";"23";"12";"1";"8";"1";"1";"1";"2";"[1,2,3,9]";"2";"0";"1"
"86";"13";"12";"1";"1";"1";"1";"1";"1";"[2,3]";"1";"0";"1"
"87";"11";"12";"1";"21";"1";"1";"1";"1";"[1,2,3,22]";"1";"0";"1"
"88";"31";"12";"1";"15";"1";"1";"1";"2";"[1,2,3,16]";"1";"0";"1"
"89";"12";"12";"1";"6";"1";"1";"1";"1";"[1,2,3,7]";"1";"0";"1"
"90";"10";"13";"1";"14";"1";"1";"1";"1";"[1,2,3,15]";"1";"0";"1"
"91";"34";"13";"1";"12";"1";"1";"1";"1";"[1,2,3,13]";"1";"0";"1"
"92";"23";"13";"1";"8";"1";"1";"1";"2";"[1,2,3,9]";"2";"0";"1"
"93";"13";"13";"1";"1";"1";"1";"1";"1";"[2,3]";"1";"0";"1"
"94";"11";"13";"1";"21";"1";"1";"1";"1";"[1,2,3,22]";"1";"0";"1"
"95";"25";"13";"1";"18";"1";"1";"1";"1";"[1,2,3,19]";"1";"0";"1"
"96";"31";"13";"1";"15";"1";"1";"1";"2";"[1,2,3,16]";"1";"0";"1"
"97";"12";"13";"1";"6";"1";"1";"1";"1";"[1,2,3,7]";"1";"0";"1"
"98";"7";"14";"1";"2";"1";"1";"1";"1";"[1,3]";"2";"0";"1"
"99";"8";"14";"1";"16";"1";"1";"1";"1";"[1,2,3,17]";"1";"0";"1"
"100";"10";"14";"1";"14";"1";"1";"1";"1";"[1,2,3,15]";"1";"0";"1"
"101";"34";"14";"1";"12";"1";"1";"1";"1";"[1,2,3,13]";"1";"0";"1"
"102";"25";"14";"1";"18";"1";"1";"1";"1";"[1,2,3,19]";"1";"0";"1"
"103";"30";"14";"1";"10";"1";"1";"1";"1";"[1,2,3,11]";"1";"0";"1"
"104";"7";"15";"1";"2";"1";"1";"1";"1";"[1,3]";"2";"0";"1"
"105";"39";"15";"1";"27";"1";"1";"1";"1";"[1,2,3,28]";"1";"0";"1"
"106";"8";"15";"1";"16";"1";"1";"1";"1";"[1,2,3,17]";"1";"0";"1"
"107";"30";"15";"1";"10";"1";"1";"1";"1";"[1,2,3,11]";"1";"0";"1"
"108";"39";"16";"1";"27";"1";"1";"1";"1";"[1,2,3,28]";"1";"0";"1"
"109";"40";"16";"1";"17";"1";"1";"1";"1";"[1,2,3,18]";"2";"0";"1"
"110";"18";"16";"1";"28";"1";"1";"1";"1";"[1,2,3,29]";"1";"0";"1"
"111";"40";"17";"1";"17";"1";"1";"1";"1";"[1,2,3,18]";"2";"0";"1"
"112";"18";"17";"1";"28";"1";"1";"1";"1";"[1,2,3,29]";"1";"0";"1"
"113";"28";"19";"1";"25";"1";"1";"1";"1";"[1,2,3,26]";"1";"0";"1"
"114";"28";"20";"1";"25";"1";"1";"1";"1";"[1,2,3,26]";"1";"0";"1"
"115";"14";"23";"1";"13";"1";"1";"1";"2";"[1,2,3,14]";"2";"0";"1"
"116";"22";"24";"1";"26";"1";"1";"1";"1";"[1,2,3,27]";"2";"0";"1"
"117";"14";"24";"1";"13";"1";"1";"1";"2";"[1,2,3,14]";"2";"0";"1"
"118";"22";"25";"1";"26";"1";"1";"1";"1";"[1,2,3,27]";"2";"0";"1"
"119";"17";"27";"1";"38";"1";"1";"1";"1";"[1,2,3,39]";"1";"0";"1"
"120";"17";"28";"1";"38";"1";"1";"1";"1";"[1,2,3,39]";"1";"0";"1"
"121";"11";"4";"1";"21";"1";"1";"2";"1";"[1,2,3,22]";"1";"0";"1"
"122";"32";"4";"1";"20";"1";"1";"2";"2";"[1,2,3,21]";"2";"0";"1"
"123";"27";"4";"1";"40";"1";"1";"2";"2";"[1,2,3]";"2";"0";"1"
"124";"11";"5";"1";"21";"1";"1";"2";"1";"[1,2,3,22]";"1";"0";"1"
"125";"32";"5";"1";"20";"1";"1";"2";"2";"[1,2,3,21]";"2";"0";"1"
"126";"27";"5";"1";"40";"1";"1";"2";"2";"[1,2,3]";"2";"0";"1"
"127";"4";"5";"1";"19";"1";"1";"2";"2";"[1,2,3,20]";"2";"0";"1"
"128";"28";"5";"1";"25";"1";"1";"2";"1";"[1,2,3,26]";"1";"0";"1"
"129";"15";"6";"1";"30";"1";"1";"2";"2";"[1,2,3,31]";"2";"0";"1"
"130";"5";"6";"1";"29";"1";"1";"2";"1";"[1,2,3,30]";"2";"0";"1"
"131";"4";"6";"1";"19";"1";"1";"2";"2";"[1,2,3,20]";"2";"0";"1"
"132";"28";"6";"1";"25";"1";"1";"2";"1";"[1,2,3,26]";"1";"0";"1"
"133";"15";"7";"1";"30";"1";"1";"2";"2";"[1,2,3,31]";"2";"0";"1"
"134";"6";"7";"1";"4";"1";"1";"2";"2";"[1,2,3,5]";"2";"0";"1"
"135";"5";"7";"1";"29";"1";"1";"2";"1";"[1,2,3,30]";"2";"0";"1"
"136";"1";"8";"1";"23";"1";"1";"2";"1";"[1,2,3,24]";"1";"0";"1"
"137";"35";"8";"1";"36";"1";"1";"2";"1";"[1,2,3,37]";"1";"0";"1"
"138";"6";"8";"1";"4";"1";"1";"2";"2";"[1,2,3,5]";"2";"0";"1"
"139";"8";"8";"1";"16";"1";"1";"2";"1";"[1,2,3,17]";"2";"0";"1"
"140";"30";"8";"1";"10";"1";"1";"2";"1";"[1,2,3,11]";"1";"0";"1"
"141";"26";"8";"1";"31";"1";"1";"2";"2";"[1,2,3,32]";"2";"0";"1"
"142";"1";"9";"1";"23";"1";"1";"2";"1";"[1,2,3,24]";"1";"0";"1"
"143";"35";"9";"1";"36";"1";"1";"2";"1";"[1,2,3,37]";"1";"0";"1"
"144";"8";"9";"1";"16";"1";"1";"2";"1";"[1,2,3,17]";"2";"0";"1"
"145";"30";"9";"1";"10";"1";"1";"2";"1";"[1,2,3,11]";"1";"0";"1"
"146";"19";"9";"1";"33";"1";"1";"2";"1";"[1,2,3,34]";"2";"0";"1"
"147";"26";"9";"1";"31";"1";"1";"2";"2";"[1,2,3,32]";"2";"0";"1"
"148";"36";"10";"1";"39";"1";"1";"2";"2";"[1,2,3,40]";"2";"0";"1"
"149";"16";"10";"1";"9";"1";"1";"2";"1";"[1,2,3,10]";"1";"0";"1"
"150";"19";"10";"1";"33";"1";"1";"2";"1";"[1,2,3,34]";"2";"0";"1"
"151";"36";"11";"1";"39";"1";"1";"2";"2";"[1,2,3,40]";"2";"0";"1"
"152";"16";"11";"1";"9";"1";"1";"2";"1";"[1,2,3,10]";"1";"0";"1"
"153";"20";"12";"1";"32";"1";"1";"2";"1";"[1,2,3,33]";"1";"0";"1"
"154";"33";"12";"1";"37";"1";"1";"2";"1";"[1,2,3,38]";"1";"0";"1"
"155";"24";"13";"1";"11";"1";"1";"2";"1";"[1,2,3,12]";"1";"0";"1"
"156";"20";"13";"1";"32";"1";"1";"2";"1";"[1,2,3,33]";"1";"0";"1"
"157";"7";"13";"1";"2";"1";"1";"2";"1";"[1,3]";"1";"0";"1"
"158";"33";"13";"1";"37";"1";"1";"2";"1";"[1,2,3,38]";"1";"0";"1"
"159";"12";"13";"1";"6";"1";"1";"2";"1";"[1,2,3,7]";"2";"0";"1"
"160";"31";"14";"1";"15";"1";"1";"2";"2";"[1,2,3,16]";"2";"0";"1"
"161";"24";"14";"1";"11";"1";"1";"2";"1";"[1,2,3,12]";"1";"0";"1"
"162";"7";"14";"1";"2";"1";"1";"2";"1";"[1,3]";"1";"0";"1"
"163";"37";"14";"1";"34";"1";"1";"2";"1";"[1,2,3,35]";"1";"0";"1"
"164";"12";"15";"1";"6";"1";"1";"2";"1";"[1,2,3,7]";"2";"0";"1"
"165";"31";"15";"1";"15";"1";"1";"2";"2";"[1,2,3,16]";"2";"0";"1"
"166";"17";"15";"1";"38";"1";"1";"2";"1";"[1,2,3,39]";"2";"0";"1"
"167";"3";"15";"1";"35";"1";"1";"2";"1";"[1,2,3,36]";"1";"0";"1"
"168";"13";"15";"1";"1";"1";"1";"2";"1";"[2,3]";"2";"0";"1"
"169";"10";"15";"1";"14";"1";"1";"2";"1";"[1,2,3,15]";"1";"0";"1"
"170";"39";"15";"1";"27";"1";"1";"2";"1";"[1,2,3,28]";"1";"0";"1"
"171";"37";"15";"1";"34";"1";"1";"2";"1";"[1,2,3,35]";"1";"0";"1"
"172";"17";"16";"1";"38";"1";"1";"2";"1";"[1,2,3,39]";"2";"0";"1"
"173";"34";"16";"1";"12";"1";"1";"2";"1";"[1,2,3,13]";"1";"0";"1"
"174";"3";"16";"1";"35";"1";"1";"2";"1";"[1,2,3,36]";"1";"0";"1"
"175";"13";"16";"1";"1";"1";"1";"2";"1";"[2,3]";"2";"0";"1"
"176";"29";"16";"1";"5";"1";"1";"2";"1";"[1,2,3,6]";"1";"0";"1"
"177";"10";"16";"1";"14";"1";"1";"2";"1";"[1,2,3,15]";"1";"0";"1"
"178";"39";"16";"1";"27";"1";"1";"2";"1";"[1,2,3,28]";"1";"0";"1"
"179";"34";"17";"1";"12";"1";"1";"2";"1";"[1,2,3,13]";"1";"0";"1"
"180";"29";"17";"1";"5";"1";"1";"2";"1";"[1,2,3,6]";"1";"0";"1"
"181";"23";"19";"1";"8";"1";"1";"2";"2";"[1,2,3,9]";"2";"0";"1"
"182";"21";"20";"1";"24";"1";"1";"2";"1";"[1,2,3,25]";"1";"0";"1"
"183";"23";"20";"1";"8";"1";"1";"2";"2";"[1,2,3,9]";"2";"0";"1"
"184";"18";"21";"1";"28";"1";"1";"2";"1";"[1,2,3,29]";"1";"0";"1"
"185";"21";"21";"1";"24";"1";"1";"2";"1";"[1,2,3,25]";"1";"0";"1"
"186";"22";"21";"1";"26";"1";"1";"2";"1";"[1,2,3,27]";"2";"0";"1"
"187";"2";"22";"1";"22";"1";"1";"2";"2";"[1,2,3,23]";"2";"0";"1"
"188";"18";"22";"1";"28";"1";"1";"2";"1";"[1,2,3,29]";"1";"0";"1"
"189";"22";"22";"1";"26";"1";"1";"2";"1";"[1,2,3,27]";"2";"0";"1"
"190";"25";"22";"1";"18";"1";"1";"2";"1";"[1,2,3,19]";"2";"0";"1"
"191";"40";"22";"1";"17";"1";"1";"2";"1";"[1,2,3,18]";"2";"0";"1"
"192";"38";"22";"1";"3";"1";"1";"2";"2";"[1,2,4]";"2";"0";"1"
"193";"2";"23";"1";"22";"1";"1";"2";"2";"[1,2,3,23]";"2";"0";"1"
"194";"25";"23";"1";"18";"1";"1";"2";"1";"[1,2,3,19]";"2";"0";"1"
"195";"40";"23";"1";"17";"1";"1";"2";"1";"[1,2,3,18]";"2";"0";"1"
"196";"38";"23";"1";"3";"1";"1";"2";"2";"[1,2,4]";"2";"0";"1"
"197";"9";"25";"1";"7";"1";"1";"2";"1";"[1,2,3,8]";"1";"0";"1"
"198";"14";"25";"1";"13";"1";"1";"2";"2";"[1,2,3,14]";"2";"0";"1"
"199";"9";"26";"1";"7";"1";"1";"2";"1";"[1,2,3,8]";"1";"0";"1"
"200";"14";"26";"1";"13";"1";"1";"2";"2";"[1,2,3,14]";"2";"0";"1"
"201";"35";"2";"1";"36";"1";"1";"3";"1";"[1,2,3,37]";"1";"0";"1"
"202";"35";"3";"1";"36";"1";"1";"3";"1";"[1,2,3,37]";"1";"0";"1"
"203";"22";"3";"1";"26";"1";"1";"3";"1";"[1,2,3,27]";"2";"0";"1"
"204";"11";"3";"1";"21";"1";"1";"3";"1";"[1,2,3,22]";"1";"0";"1"
"205";"15";"4";"1";"30";"1";"1";"3";"2";"[1,2,3,31]";"2";"0";"1"
"206";"26";"4";"1";"31";"1";"1";"3";"2";"[1,2,3,32]";"2";"0";"1"
"207";"36";"4";"1";"39";"1";"1";"3";"2";"[1,2,3,40]";"2";"0";"1"
"208";"22";"4";"1";"26";"1";"1";"3";"1";"[1,2,3,27]";"2";"0";"1"
"209";"32";"4";"1";"20";"1";"1";"3";"2";"[1,2,3,21]";"2";"0";"1"
"210";"11";"4";"1";"21";"1";"1";"3";"1";"[1,2,3,22]";"1";"0";"1"
"211";"1";"5";"1";"23";"1";"1";"3";"1";"[1,2,3,24]";"1";"0";"1"
"212";"15";"5";"1";"30";"1";"1";"3";"2";"[1,2,3,31]";"2";"0";"1"
"213";"26";"5";"1";"31";"1";"1";"3";"2";"[1,2,3,32]";"2";"0";"1"
"214";"27";"5";"1";"40";"1";"1";"3";"2";"[1,2,3]";"2";"0";"1"
"215";"36";"5";"1";"39";"1";"1";"3";"2";"[1,2,3,40]";"2";"0";"1"
"216";"32";"5";"1";"20";"1";"1";"3";"2";"[1,2,3,21]";"2";"0";"1"
"217";"30";"5";"1";"10";"1";"1";"3";"1";"[1,2,3,11]";"1";"0";"1"
"218";"37";"6";"1";"34";"1";"1";"3";"1";"[1,2,3,35]";"2";"0";"1"
"219";"1";"6";"1";"23";"1";"1";"3";"1";"[1,2,3,24]";"1";"0";"1"
"220";"6";"6";"1";"4";"1";"1";"3";"2";"[1,2,3,5]";"0";"1";"1"
"221";"27";"6";"1";"40";"1";"1";"3";"2";"[1,2,3]";"2";"0";"1"
"222";"24";"6";"1";"11";"1";"1";"3";"1";"[1,2,3,12]";"1";"0";"1"
"223";"30";"6";"1";"10";"1";"1";"3";"1";"[1,2,3,11]";"1";"0";"1"
"224";"37";"7";"1";"34";"1";"1";"3";"1";"[1,2,3,35]";"2";"0";"1"
"225";"16";"7";"1";"9";"1";"1";"3";"1";"[1,2,3,10]";"1";"0";"1"
"226";"4";"7";"1";"19";"1";"1";"3";"2";"[1,2,3,20]";"2";"0";"1"
"227";"5";"7";"1";"29";"1";"1";"3";"1";"[1,2,3,30]";"0";"1";"1"
"228";"20";"7";"1";"32";"1";"1";"3";"1";"[1,2,3,33]";"2";"0";"1"
"229";"25";"7";"1";"18";"1";"1";"3";"1";"[1,2,3,19]";"0";"1";"1"
"230";"24";"7";"1";"11";"1";"1";"3";"1";"[1,2,3,12]";"1";"0";"1"
"231";"29";"8";"1";"5";"1";"1";"3";"1";"[1,2,3,6]";"2";"0";"1"
"232";"16";"8";"1";"9";"1";"1";"3";"1";"[1,2,3,10]";"1";"0";"1"
"233";"4";"8";"1";"19";"1";"1";"3";"2";"[1,2,3,20]";"2";"0";"1"
"234";"6";"8";"1";"4";"1";"1";"3";"2";"[1,2,3,5]";"0";"2";"1"
"235";"28";"8";"1";"25";"1";"1";"3";"1";"[1,2,3,26]";"1";"0";"1"
"236";"8";"8";"1";"16";"1";"1";"3";"1";"[1,2,3,17]";"2";"0";"1"
"237";"20";"8";"1";"32";"1";"1";"3";"1";"[1,2,3,33]";"2";"0";"1"
"238";"31";"8";"1";"15";"1";"1";"3";"2";"[1,2,3,16]";"1";"0";"1"
"239";"9";"8";"1";"7";"1";"1";"3";"1";"[1,2,3,8]";"0";"1";"1"
"240";"29";"9";"1";"5";"1";"1";"3";"1";"[1,2,3,6]";"2";"0";"1"
"241";"38";"9";"1";"3";"1";"1";"3";"2";"[1,2,4]";"0";"1";"1"
"242";"28";"9";"1";"25";"1";"1";"3";"1";"[1,2,3,26]";"1";"0";"1"
"243";"8";"9";"1";"16";"1";"1";"3";"1";"[1,2,3,17]";"2";"0";"1"
"244";"31";"9";"1";"15";"1";"1";"3";"2";"[1,2,3,16]";"1";"0";"1"
"245";"12";"9";"1";"6";"1";"1";"3";"1";"[1,2,3,7]";"1";"0";"1"
"246";"5";"9";"1";"29";"1";"1";"3";"1";"[1,2,3,30]";"0";"2";"1"
"247";"14";"9";"1";"13";"1";"1";"3";"2";"[1,2,3,14]";"2";"0";"1"
"248";"38";"10";"1";"3";"1";"1";"3";"2";"[1,2,4]";"0";"2";"1"
"249";"25";"10";"1";"18";"1";"1";"3";"1";"[1,2,3,19]";"0";"2";"1"
"250";"9";"10";"1";"7";"1";"1";"3";"1";"[1,2,3,8]";"0";"2";"1"
"251";"12";"10";"1";"6";"1";"1";"3";"1";"[1,2,3,7]";"1";"0";"1"
"252";"14";"10";"1";"13";"1";"1";"3";"2";"[1,2,3,14]";"2";"0";"1"
"253";"38";"11";"1";"3";"1";"1";"3";"2";"[1,2,4]";"0";"1";"1"
"254";"33";"11";"1";"37";"1";"1";"3";"1";"[1,2,3,38]";"2";"0";"1"
"255";"5";"11";"1";"29";"1";"1";"3";"1";"[1,2,3,30]";"0";"3";"1"
"256";"38";"11";"1";"3";"1";"1";"3";"2";"[1,2,4]";"0";"2";"1"
"257";"34";"12";"1";"12";"1";"1";"3";"1";"[1,2,3,13]";"1";"0";"1"
"258";"25";"12";"1";"18";"1";"1";"3";"1";"[1,2,3,19]";"0";"1";"1"
"259";"13";"12";"1";"1";"1";"1";"3";"1";"[2,3]";"2";"0";"1"
"260";"33";"12";"1";"37";"1";"1";"3";"1";"[1,2,3,38]";"2";"0";"1"
"261";"5";"12";"1";"29";"1";"1";"3";"1";"[1,2,3,30]";"2";"3";"1"
"262";"34";"13";"1";"12";"1";"1";"3";"1";"[1,2,3,13]";"1";"0";"1"
"263";"6";"13";"1";"4";"1";"1";"3";"2";"[1,2,3,5]";"0";"1";"1"
"264";"13";"13";"1";"1";"1";"1";"3";"1";"[2,3]";"2";"0";"1"
"265";"5";"13";"1";"29";"1";"1";"3";"1";"[1,2,3,30]";"2";"3";"1"
"266";"25";"13";"1";"18";"1";"1";"3";"1";"[1,2,3,19]";"0";"2";"1"
"267";"21";"15";"1";"24";"1";"1";"3";"1";"[1,2,3,25]";"2";"0";"1"
"268";"6";"15";"1";"4";"1";"1";"3";"2";"[1,2,3,5]";"0";"2";"1"
"269";"21";"16";"1";"24";"1";"1";"3";"1";"[1,2,3,25]";"2";"0";"1"
"270";"10";"16";"1";"14";"1";"1";"3";"1";"[1,2,3,15]";"1";"0";"1"
"271";"6";"17";"1";"4";"1";"1";"3";"2";"[1,2,3,5]";"0";"1";"1"
"272";"19";"17";"1";"33";"1";"1";"3";"1";"[1,2,3,34]";"0";"1";"1"
"273";"10";"17";"1";"14";"1";"1";"3";"1";"[1,2,3,15]";"1";"0";"1"
"274";"9";"18";"1";"7";"1";"1";"3";"1";"[1,2,3,8]";"1";"2";"1"
"275";"7";"18";"1";"2";"1";"1";"3";"1";"[1,3]";"2";"0";"1"
"276";"19";"18";"1";"33";"1";"1";"3";"1";"[1,2,3,34]";"0";"2";"1"
"277";"2";"18";"1";"22";"1";"1";"3";"2";"[1,2,3,23]";"1";"0";"1"
"278";"6";"19";"1";"4";"1";"1";"3";"2";"[1,2,3,5]";"0";"2";"1"
"279";"9";"19";"1";"7";"1";"1";"3";"1";"[1,2,3,8]";"1";"2";"1"
"280";"7";"19";"1";"2";"1";"1";"3";"1";"[1,3]";"2";"0";"1"
"281";"25";"19";"1";"18";"1";"1";"3";"1";"[1,2,3,19]";"2";"2";"1"
"282";"2";"19";"1";"22";"1";"1";"3";"2";"[1,2,3,23]";"1";"0";"1"
"283";"23";"20";"1";"8";"1";"1";"3";"2";"[1,2,3,9]";"2";"0";"1"
"284";"19";"20";"1";"33";"1";"1";"3";"1";"[1,2,3,34]";"0";"1";"1"
"285";"25";"20";"1";"18";"1";"1";"3";"1";"[1,2,3,19]";"2";"2";"1"
"286";"3";"21";"1";"35";"1";"1";"3";"1";"[1,2,3,36]";"1";"0";"1"
"287";"39";"21";"1";"27";"1";"1";"3";"1";"[1,2,3,28]";"1";"0";"1"
"288";"40";"21";"1";"17";"1";"1";"3";"1";"[1,2,3,18]";"2";"0";"1"
"289";"23";"21";"1";"8";"1";"1";"3";"2";"[1,2,3,9]";"2";"0";"1"
"290";"3";"22";"1";"35";"1";"1";"3";"1";"[1,2,3,36]";"1";"0";"1"
"291";"39";"22";"1";"27";"1";"1";"3";"1";"[1,2,3,28]";"1";"0";"1"
"292";"40";"22";"1";"17";"1";"1";"3";"1";"[1,2,3,18]";"2";"0";"1"
"293";"19";"23";"1";"33";"1";"1";"3";"1";"[1,2,3,34]";"0";"3";"1"
"294";"19";"24";"1";"33";"1";"1";"3";"1";"[1,2,3,34]";"2";"3";"1"
"295";"6";"24";"1";"4";"1";"1";"3";"2";"[1,2,3,5]";"2";"2";"1"
"296";"17";"24";"1";"38";"1";"1";"3";"1";"[1,2,3,39]";"2";"0";"1"
"297";"19";"25";"1";"33";"1";"1";"3";"1";"[1,2,3,34]";"2";"3";"1"
"298";"6";"25";"1";"4";"1";"1";"3";"2";"[1,2,3,5]";"2";"2";"1"
"299";"18";"25";"1";"28";"1";"1";"3";"1";"[1,2,3,29]";"1";"0";"1"
"300";"17";"25";"1";"38";"1";"1";"3";"1";"[1,2,3,39]";"2";"0";"1"
"301";"38";"26";"1";"3";"1";"1";"3";"2";"[1,2,4]";"2";"2";"1"
"302";"18";"26";"1";"28";"1";"1";"3";"1";"[1,2,3,29]";"1";"0";"1"
"303";"38";"27";"1";"3";"1";"1";"3";"2";"[1,2,4]";"2";"2";"1"
"304";"26";"2";"1";"31";"1";"1";"4";"2";"[1,2,3,32]";"2";"0";"1"
"305";"38";"2";"1";"3";"1";"1";"4";"2";"[1,2,4]";"2";"0";"1"
"306";"36";"2";"1";"39";"1";"1";"4";"2";"[1,2,3,40]";"2";"0";"1"
"307";"15";"2";"1";"30";"1";"1";"4";"2";"[1,2,3,31]";"2";"0";"1"
"308";"27";"3";"1";"40";"1";"1";"4";"2";"[1,2,3]";"2";"0";"1"
"309";"26";"3";"1";"31";"1";"1";"4";"2";"[1,2,3,32]";"2";"0";"1"
"310";"11";"3";"1";"21";"1";"1";"4";"1";"[1,2,3,22]";"2";"0";"1"
"311";"32";"3";"1";"20";"1";"1";"4";"2";"[1,2,3,21]";"2";"0";"1"
"312";"20";"3";"1";"32";"1";"1";"4";"1";"[1,2,3,33]";"2";"0";"1"
"313";"10";"3";"1";"14";"1";"1";"4";"1";"[1,2,3,15]";"2";"0";"1"
"314";"1";"3";"1";"23";"1";"1";"4";"1";"[1,2,3,24]";"2";"0";"1"
"315";"38";"3";"1";"3";"1";"1";"4";"2";"[1,2,4]";"2";"0";"1"
"316";"36";"3";"1";"39";"1";"1";"4";"2";"[1,2,3,40]";"2";"0";"1"
"317";"8";"3";"1";"16";"1";"1";"4";"1";"[1,2,3,17]";"2";"0";"1"
"318";"15";"3";"1";"30";"1";"1";"4";"2";"[1,2,3,31]";"2";"0";"1"
"319";"27";"4";"1";"40";"1";"1";"4";"2";"[1,2,3]";"2";"0";"1"
"320";"11";"4";"1";"21";"1";"1";"4";"1";"[1,2,3,22]";"2";"0";"1"
"321";"32";"4";"1";"20";"1";"1";"4";"2";"[1,2,3,21]";"2";"0";"1"
"322";"16";"4";"1";"9";"1";"1";"4";"1";"[1,2,3,10]";"1";"0";"1"
"323";"20";"4";"1";"32";"1";"1";"4";"1";"[1,2,3,33]";"2";"0";"1"
"324";"10";"4";"1";"14";"1";"1";"4";"1";"[1,2,3,15]";"2";"0";"1"
"325";"5";"4";"1";"29";"1";"1";"4";"1";"[1,2,3,30]";"2";"0";"1"
"326";"37";"4";"1";"34";"1";"1";"4";"1";"[1,2,3,35]";"2";"0";"1"
"327";"1";"4";"1";"23";"1";"1";"4";"1";"[1,2,3,24]";"2";"0";"1"
"328";"8";"4";"1";"16";"1";"1";"4";"1";"[1,2,3,17]";"2";"0";"1"
"329";"16";"5";"1";"9";"1";"1";"4";"1";"[1,2,3,10]";"1";"0";"1"
"330";"37";"5";"1";"34";"1";"1";"4";"1";"[1,2,3,35]";"2";"0";"1"
"331";"5";"5";"1";"29";"1";"1";"4";"1";"[1,2,3,30]";"2";"0";"1"
"332";"22";"5";"1";"26";"1";"1";"4";"1";"[1,2,3,27]";"1";"0";"1"
"333";"34";"5";"1";"12";"1";"1";"4";"1";"[1,2,3,13]";"2";"0";"1"
"334";"17";"5";"1";"38";"1";"1";"4";"1";"[1,2,3,39]";"2";"0";"1"
"335";"14";"5";"1";"13";"1";"1";"4";"2";"[1,2,3,14]";"2";"0";"1"
"336";"29";"6";"1";"5";"1";"1";"4";"1";"[1,2,3,6]";"2";"0";"1"
"337";"3";"6";"1";"35";"1";"1";"4";"1";"[1,2,3,36]";"2";"0";"1"
"338";"25";"6";"1";"18";"1";"1";"4";"1";"[1,2,3,19]";"2";"0";"1"
"339";"6";"6";"1";"4";"1";"1";"4";"2";"[1,2,3,5]";"2";"0";"1"
"340";"22";"6";"1";"26";"1";"1";"4";"1";"[1,2,3,27]";"1";"0";"1"
"341";"34";"6";"1";"12";"1";"1";"4";"1";"[1,2,3,13]";"2";"0";"1"
"342";"17";"6";"1";"38";"1";"1";"4";"1";"[1,2,3,39]";"2";"0";"1"
"343";"14";"6";"1";"13";"1";"1";"4";"2";"[1,2,3,14]";"2";"0";"1"
"344";"29";"7";"1";"5";"1";"1";"4";"1";"[1,2,3,6]";"2";"0";"1"
"345";"3";"7";"1";"35";"1";"1";"4";"1";"[1,2,3,36]";"2";"0";"1"
"346";"25";"7";"1";"18";"1";"1";"4";"1";"[1,2,3,19]";"2";"0";"1"
"347";"6";"7";"1";"4";"1";"1";"4";"2";"[1,2,3,5]";"2";"0";"1"
"348";"2";"7";"1";"22";"1";"1";"4";"2";"[1,2,3,23]";"2";"0";"1"
"349";"33";"8";"1";"37";"1";"1";"4";"1";"[1,2,3,38]";"2";"0";"1"
"350";"13";"8";"1";"1";"1";"1";"4";"1";"[2,3]";"2";"0";"1"
"351";"35";"8";"1";"36";"1";"1";"4";"1";"[1,2,3,37]";"1";"0";"1"
"352";"21";"8";"1";"24";"1";"1";"4";"1";"[1,2,3,25]";"1";"0";"1"
"353";"30";"8";"1";"10";"1";"1";"4";"1";"[1,2,3,11]";"2";"0";"1"
"354";"2";"8";"1";"22";"1";"1";"4";"2";"[1,2,3,23]";"2";"0";"1"
"355";"33";"9";"1";"37";"1";"1";"4";"1";"[1,2,3,38]";"2";"0";"1"
"356";"13";"9";"1";"1";"1";"1";"4";"1";"[2,3]";"2";"0";"1"
"357";"35";"9";"1";"36";"1";"1";"4";"1";"[1,2,3,37]";"1";"0";"1"
"358";"21";"9";"1";"24";"1";"1";"4";"1";"[1,2,3,25]";"1";"0";"1"
"359";"30";"9";"1";"10";"1";"1";"4";"1";"[1,2,3,11]";"2";"0";"1"
"360";"31";"10";"1";"15";"1";"1";"4";"2";"[1,2,3,16]";"2";"0";"1"
"361";"23";"10";"1";"8";"1";"1";"4";"2";"[1,2,3,9]";"2";"0";"1"
"362";"18";"11";"1";"28";"1";"1";"4";"1";"[1,2,3,29]";"2";"0";"1"
"363";"31";"11";"1";"15";"1";"1";"4";"2";"[1,2,3,16]";"2";"0";"1"
"364";"7";"11";"1";"2";"1";"1";"4";"1";"[1,3]";"2";"0";"1"
"365";"23";"11";"1";"8";"1";"1";"4";"2";"[1,2,3,9]";"2";"0";"1"
"366";"18";"12";"1";"28";"1";"1";"4";"1";"[1,2,3,29]";"2";"0";"1"
"367";"7";"12";"1";"2";"1";"1";"4";"1";"[1,3]";"2";"0";"1"
"368";"12";"12";"1";"6";"1";"1";"4";"1";"[1,2,3,7]";"1";"0";"1"
"369";"28";"13";"1";"25";"1";"1";"4";"1";"[1,2,3,26]";"2";"0";"1"
"370";"12";"13";"1";"6";"1";"1";"4";"1";"[1,2,3,7]";"1";"0";"1"
"371";"28";"14";"1";"25";"1";"1";"4";"1";"[1,2,3,26]";"2";"0";"1"
"372";"4";"14";"1";"19";"1";"1";"4";"2";"[1,2,3,20]";"2";"0";"1"
"373";"4";"15";"1";"19";"1";"1";"4";"2";"[1,2,3,20]";"2";"0";"1"
"374";"40";"16";"1";"17";"1";"1";"4";"1";"[1,2,3,18]";"1";"0";"1"
"375";"40";"17";"1";"17";"1";"1";"4";"1";"[1,2,3,18]";"1";"0";"1"
"376";"19";"17";"1";"33";"1";"1";"4";"1";"[1,2,3,34]";"2";"0";"1"
"377";"19";"18";"1";"33";"1";"1";"4";"1";"[1,2,3,34]";"2";"0";"1"
"378";"39";"18";"1";"27";"1";"1";"4";"1";"[1,2,3,28]";"2";"0";"1"
"379";"24";"19";"1";"11";"1";"1";"4";"1";"[1,2,3,12]";"2";"0";"1"
"380";"39";"19";"1";"27";"1";"1";"4";"1";"[1,2,3,28]";"2";"0";"1"
"381";"10";"20";"1";"14";"1";"1";"4";"1";"[1,2,3,15]";"2";"2";"1"
"382";"24";"20";"1";"11";"1";"1";"4";"1";"[1,2,3,12]";"2";"0";"1"
"383";"10";"24";"1";"14";"1";"1";"4";"1";"[1,2,3,15]";"2";"1";"1"
"384";"9";"24";"1";"7";"1";"1";"4";"1";"[1,2,3,8]";"2";"0";"1"
"385";"9";"25";"1";"7";"1";"1";"4";"1";"[1,2,3,8]";"2";"0";"1"
"386";"38";"1";"1";"3";"1";"1";"5";"2";"[1,2,4]";"0";"5";"1"
"387";"26";"1";"1";"31";"1";"1";"5";"2";"[1,2,3,32]";"2";"0";"1"
"388";"37";"1";"1";"34";"1";"1";"5";"1";"[1,2,3,35]";"1";"0";"1"
"389";"15";"2";"1";"30";"1";"1";"5";"2";"[1,2,3,31]";"2";"0";"1"
"390";"5";"2";"1";"29";"1";"1";"5";"1";"[1,2,3,30]";"2";"0";"1"
"391";"32";"2";"1";"20";"1";"1";"5";"2";"[1,2,3,21]";"2";"0";"1"
"392";"36";"2";"1";"39";"1";"1";"5";"2";"[1,2,3,40]";"2";"0";"1"
"393";"26";"2";"1";"31";"1";"1";"5";"2";"[1,2,3,32]";"2";"0";"1"
"394";"37";"2";"1";"34";"1";"1";"5";"1";"[1,2,3,35]";"1";"0";"1"
"395";"35";"2";"1";"36";"1";"1";"5";"1";"[1,2,3,37]";"1";"0";"1"
"396";"15";"3";"1";"30";"1";"1";"5";"2";"[1,2,3,31]";"2";"0";"1"
"397";"27";"3";"1";"40";"1";"1";"5";"2";"[1,2,3]";"2";"0";"1"
"398";"5";"3";"1";"29";"1";"1";"5";"1";"[1,2,3,30]";"2";"0";"1"
"399";"16";"3";"1";"9";"1";"1";"5";"1";"[1,2,3,10]";"1";"0";"1"
"400";"32";"3";"1";"20";"1";"1";"5";"2";"[1,2,3,21]";"2";"0";"1"
"401";"36";"3";"1";"39";"1";"1";"5";"2";"[1,2,3,40]";"2";"0";"1"
"402";"1";"3";"1";"23";"1";"1";"5";"1";"[1,2,3,24]";"2";"0";"1"
"403";"24";"3";"1";"11";"1";"1";"5";"1";"[1,2,3,12]";"2";"0";"1"
"404";"35";"3";"1";"36";"1";"1";"5";"1";"[1,2,3,37]";"1";"0";"1"
"405";"11";"4";"1";"21";"1";"1";"5";"1";"[1,2,3,22]";"2";"0";"1"
"406";"22";"4";"1";"26";"1";"1";"5";"1";"[1,2,3,27]";"1";"0";"1"
"407";"27";"4";"1";"40";"1";"1";"5";"2";"[1,2,3]";"2";"0";"1"
"408";"16";"4";"1";"9";"1";"1";"5";"1";"[1,2,3,10]";"1";"0";"1"
"409";"34";"4";"1";"12";"1";"1";"5";"1";"[1,2,3,13]";"1";"0";"1"
"410";"28";"4";"1";"25";"1";"1";"5";"1";"[1,2,3,26]";"1";"0";"1"
"411";"1";"4";"1";"23";"1";"1";"5";"1";"[1,2,3,24]";"2";"0";"1"
"412";"24";"4";"1";"11";"1";"1";"5";"1";"[1,2,3,12]";"2";"0";"1"
"413";"12";"4";"1";"6";"1";"1";"5";"1";"[1,2,3,7]";"2";"0";"1"
"414";"11";"5";"1";"21";"1";"1";"5";"1";"[1,2,3,22]";"2";"0";"1"
"415";"22";"5";"1";"26";"1";"1";"5";"1";"[1,2,3,27]";"1";"0";"1"
"416";"34";"5";"1";"12";"1";"1";"5";"1";"[1,2,3,13]";"1";"0";"1"
"417";"28";"5";"1";"25";"1";"1";"5";"1";"[1,2,3,26]";"1";"0";"1"
"418";"20";"5";"1";"32";"1";"1";"5";"1";"[1,2,3,33]";"2";"0";"1"
"419";"33";"5";"1";"37";"1";"1";"5";"1";"[1,2,3,38]";"2";"0";"1"
"420";"12";"5";"1";"6";"1";"1";"5";"1";"[1,2,3,7]";"2";"0";"1"
"421";"8";"5";"1";"16";"1";"1";"5";"1";"[1,2,3,17]";"2";"0";"1"
"422";"25";"6";"1";"18";"1";"1";"5";"1";"[1,2,3,19]";"2";"0";"1"
"423";"20";"6";"1";"32";"1";"1";"5";"1";"[1,2,3,33]";"2";"0";"1"
"424";"21";"6";"1";"24";"1";"1";"5";"1";"[1,2,3,25]";"1";"0";"1"
"425";"33";"6";"1";"37";"1";"1";"5";"1";"[1,2,3,38]";"2";"0";"1"
"426";"8";"6";"1";"16";"1";"1";"5";"1";"[1,2,3,17]";"2";"0";"1"
"427";"25";"7";"1";"18";"1";"1";"5";"1";"[1,2,3,19]";"2";"0";"1"
"428";"10";"7";"1";"14";"1";"1";"5";"1";"[1,2,3,15]";"1";"0";"1"
"429";"21";"7";"1";"24";"1";"1";"5";"1";"[1,2,3,25]";"1";"0";"1"
"430";"30";"7";"1";"10";"1";"1";"5";"1";"[1,2,3,11]";"1";"0";"1"
"431";"14";"7";"1";"13";"1";"1";"5";"2";"[1,2,3,14]";"2";"0";"1"
"432";"10";"8";"1";"14";"1";"1";"5";"1";"[1,2,3,15]";"1";"0";"1"
"433";"4";"8";"1";"19";"1";"1";"5";"2";"[1,2,3,20]";"1";"0";"1"
"434";"30";"8";"1";"10";"1";"1";"5";"1";"[1,2,3,11]";"1";"0";"1"
"435";"14";"9";"1";"13";"1";"1";"5";"2";"[1,2,3,14]";"2";"0";"1"
"436";"4";"9";"1";"19";"1";"1";"5";"2";"[1,2,3,20]";"1";"0";"1"
"437";"19";"9";"1";"33";"1";"1";"5";"1";"[1,2,3,34]";"2";"0";"1"
"438";"9";"10";"1";"7";"1";"1";"5";"1";"[1,2,3,8]";"2";"0";"1"
"439";"19";"10";"1";"33";"1";"1";"5";"1";"[1,2,3,34]";"2";"0";"1"
"440";"13";"10";"1";"1";"1";"1";"5";"1";"[2,3]";"2";"0";"1"
"441";"40";"11";"1";"17";"1";"1";"5";"1";"[1,2,3,18]";"2";"0";"1"
"442";"9";"11";"1";"7";"1";"1";"5";"1";"[1,2,3,8]";"2";"0";"1"
"443";"23";"11";"1";"8";"1";"1";"5";"2";"[1,2,3,9]";"2";"0";"1"
"444";"6";"11";"1";"4";"1";"1";"5";"2";"[1,2,3,5]";"2";"0";"1"
"445";"13";"11";"1";"1";"1";"1";"5";"1";"[2,3]";"2";"0";"1"
"446";"40";"12";"1";"17";"1";"1";"5";"1";"[1,2,3,18]";"2";"0";"1"
"447";"23";"12";"1";"8";"1";"1";"5";"2";"[1,2,3,9]";"2";"0";"1"
"448";"6";"12";"1";"4";"1";"1";"5";"2";"[1,2,3,5]";"2";"0";"1"
"449";"31";"15";"1";"15";"1";"1";"5";"2";"[1,2,3,16]";"1";"0";"1"
"450";"7";"16";"1";"2";"1";"1";"5";"1";"[1,3]";"1";"0";"1"
"451";"31";"16";"1";"15";"1";"1";"5";"2";"[1,2,3,16]";"1";"0";"1"
"452";"18";"16";"1";"28";"1";"1";"5";"1";"[1,2,3,29]";"2";"0";"1"
"453";"17";"17";"1";"38";"1";"1";"5";"1";"[1,2,3,39]";"2";"0";"1"
"454";"7";"17";"1";"2";"1";"1";"5";"1";"[1,3]";"1";"0";"1"
"455";"18";"17";"1";"28";"1";"1";"5";"1";"[1,2,3,29]";"2";"0";"1"
"456";"17";"18";"1";"38";"1";"1";"5";"1";"[1,2,3,39]";"2";"0";"1"
"457";"29";"18";"1";"5";"1";"1";"5";"1";"[1,2,3,6]";"2";"0";"1"
"458";"38";"18";"1";"3";"1";"1";"5";"2";"[1,2,4]";"2";"5";"1"
"459";"29";"19";"1";"5";"1";"1";"5";"1";"[1,2,3,6]";"2";"0";"1"
"460";"3";"19";"1";"35";"1";"1";"5";"1";"[1,2,3,36]";"2";"0";"1"
"461";"38";"19";"1";"3";"1";"1";"5";"2";"[1,2,4]";"2";"5";"1"
"462";"3";"20";"1";"35";"1";"1";"5";"1";"[1,2,3,36]";"2";"0";"1"
"463";"39";"21";"1";"27";"1";"1";"5";"1";"[1,2,3,28]";"2";"0";"1"
"464";"2";"21";"1";"22";"1";"1";"5";"2";"[1,2,3,23]";"2";"0";"1"
"465";"39";"22";"1";"27";"1";"1";"5";"1";"[1,2,3,28]";"2";"0";"1"
"466";"2";"23";"1";"22";"1";"1";"5";"2";"[1,2,3,23]";"2";"0";"1"
"467";"37";"1";"1";"34";"1";"1";"6";"1";"[1,2,3,35]";"1";"0";"1"
"468";"11";"1";"1";"21";"1";"1";"6";"1";"[1,2,3,22]";"1";"0";"1"
"469";"35";"2";"1";"36";"1";"1";"6";"1";"[1,2,3,37]";"1";"0";"1"
"470";"15";"2";"1";"30";"1";"1";"6";"2";"[1,2,3,31]";"2";"0";"1"
"471";"36";"2";"1";"39";"1";"1";"6";"2";"[1,2,3,40]";"2";"0";"1"
"472";"16";"2";"1";"9";"1";"1";"6";"1";"[1,2,3,10]";"0";"4";"1"
"473";"1";"2";"1";"23";"1";"1";"6";"1";"[1,2,3,24]";"2";"0";"1"
"474";"27";"2";"1";"40";"1";"1";"6";"2";"[1,2,3]";"2";"0";"1"
"475";"37";"2";"1";"34";"1";"1";"6";"1";"[1,2,3,35]";"1";"0";"1"
"476";"32";"2";"1";"20";"1";"1";"6";"2";"[1,2,3,21]";"2";"0";"1"
"477";"11";"2";"1";"21";"1";"1";"6";"1";"[1,2,3,22]";"1";"0";"1"
"478";"4";"3";"1";"19";"1";"1";"6";"2";"[1,2,3,20]";"2";"0";"1"
"479";"7";"3";"1";"2";"1";"1";"6";"1";"[1,3]";"2";"0";"1"
"480";"35";"3";"1";"36";"1";"1";"6";"1";"[1,2,3,37]";"1";"0";"1"
"481";"15";"3";"1";"30";"1";"1";"6";"2";"[1,2,3,31]";"2";"0";"1"
"482";"36";"3";"1";"39";"1";"1";"6";"2";"[1,2,3,40]";"2";"0";"1"
"483";"1";"3";"1";"23";"1";"1";"6";"1";"[1,2,3,24]";"2";"0";"1"
"484";"21";"3";"1";"24";"1";"1";"6";"1";"[1,2,3,25]";"1";"0";"1"
"485";"27";"3";"1";"40";"1";"1";"6";"2";"[1,2,3]";"2";"0";"1"
"486";"10";"3";"1";"14";"1";"1";"6";"1";"[1,2,3,15]";"2";"0";"1"
"487";"32";"3";"1";"20";"1";"1";"6";"2";"[1,2,3,21]";"2";"0";"1"
"488";"4";"4";"1";"19";"1";"1";"6";"2";"[1,2,3,20]";"2";"0";"1"
"489";"7";"4";"1";"2";"1";"1";"6";"1";"[1,3]";"2";"0";"1"
"490";"28";"4";"1";"25";"1";"1";"6";"1";"[1,2,3,26]";"1";"0";"1"
"491";"26";"4";"1";"31";"1";"1";"6";"2";"[1,2,3,32]";"2";"0";"1"
"492";"12";"4";"1";"6";"1";"1";"6";"1";"[1,2,3,7]";"2";"0";"1"
"493";"16";"4";"1";"9";"1";"1";"6";"1";"[1,2,3,10]";"0";"3";"1"
"494";"5";"4";"1";"29";"1";"1";"6";"1";"[1,2,3,30]";"1";"0";"1"
"495";"21";"4";"1";"24";"1";"1";"6";"1";"[1,2,3,25]";"1";"0";"1"
"496";"10";"4";"1";"14";"1";"1";"6";"1";"[1,2,3,15]";"2";"0";"1"
"497";"28";"5";"1";"25";"1";"1";"6";"1";"[1,2,3,26]";"1";"0";"1"
"498";"26";"5";"1";"31";"1";"1";"6";"2";"[1,2,3,32]";"2";"0";"1"
"499";"12";"5";"1";"6";"1";"1";"6";"1";"[1,2,3,7]";"2";"0";"1"
"500";"18";"5";"1";"28";"1";"1";"6";"1";"[1,2,3,29]";"1";"0";"1"
"501";"5";"5";"1";"29";"1";"1";"6";"1";"[1,2,3,30]";"1";"0";"1"
"502";"30";"5";"1";"10";"1";"1";"6";"1";"[1,2,3,11]";"1";"0";"1"
"503";"16";"6";"1";"9";"1";"1";"6";"1";"[1,2,3,10]";"0";"2";"1"
"504";"18";"6";"1";"28";"1";"1";"6";"1";"[1,2,3,29]";"1";"0";"1"
"505";"25";"6";"1";"18";"1";"1";"6";"1";"[1,2,3,19]";"0";"4";"1"
"506";"30";"6";"1";"10";"1";"1";"6";"1";"[1,2,3,11]";"1";"0";"1"
"507";"39";"7";"1";"27";"1";"1";"6";"1";"[1,2,3,28]";"1";"0";"1"
"508";"19";"7";"1";"33";"1";"1";"6";"1";"[1,2,3,34]";"2";"0";"1"
"509";"16";"8";"1";"9";"1";"1";"6";"1";"[1,2,3,10]";"0";"1";"1"
"510";"31";"8";"1";"15";"1";"1";"6";"2";"[1,2,3,16]";"1";"0";"1"
"511";"39";"8";"1";"27";"1";"1";"6";"1";"[1,2,3,28]";"1";"0";"1"
"512";"19";"8";"1";"33";"1";"1";"6";"1";"[1,2,3,34]";"2";"0";"1"
"513";"31";"9";"1";"15";"1";"1";"6";"2";"[1,2,3,16]";"1";"0";"1"
"514";"33";"9";"1";"37";"1";"1";"6";"1";"[1,2,3,38]";"2";"0";"1"
"515";"25";"9";"1";"18";"1";"1";"6";"1";"[1,2,3,19]";"0";"5";"1"
"516";"8";"9";"1";"16";"1";"1";"6";"1";"[1,2,3,17]";"2";"0";"1"
"517";"22";"9";"1";"26";"1";"1";"6";"1";"[1,2,3,27]";"2";"0";"1"
"518";"34";"10";"1";"12";"1";"1";"6";"1";"[1,2,3,13]";"2";"0";"1"
"519";"16";"10";"1";"9";"1";"1";"6";"1";"[1,2,3,10]";"0";"2";"1"
"520";"33";"10";"1";"37";"1";"1";"6";"1";"[1,2,3,38]";"2";"0";"1"
"521";"8";"10";"1";"16";"1";"1";"6";"1";"[1,2,3,17]";"2";"0";"1"
"522";"22";"10";"1";"26";"1";"1";"6";"1";"[1,2,3,27]";"2";"0";"1"
"523";"34";"11";"1";"12";"1";"1";"6";"1";"[1,2,3,13]";"2";"0";"1"
"524";"25";"11";"1";"18";"1";"1";"6";"1";"[1,2,3,19]";"2";"5";"1"
"525";"16";"12";"1";"9";"1";"1";"6";"1";"[1,2,3,10]";"0";"3";"1"
"526";"14";"12";"1";"13";"1";"1";"6";"2";"[1,2,3,14]";"2";"0";"1"
"527";"25";"12";"1";"18";"1";"1";"6";"1";"[1,2,3,19]";"2";"5";"1"
"528";"13";"12";"1";"1";"1";"1";"6";"1";"[2,3]";"1";"0";"1"
"529";"14";"13";"1";"13";"1";"1";"6";"2";"[1,2,3,14]";"2";"0";"1"
"530";"40";"13";"1";"17";"1";"1";"6";"1";"[1,2,3,18]";"2";"0";"1"
"531";"13";"13";"1";"1";"1";"1";"6";"1";"[2,3]";"1";"0";"1"
"532";"16";"13";"1";"9";"1";"1";"6";"1";"[1,2,3,10]";"0";"4";"1"
"533";"23";"14";"1";"8";"1";"1";"6";"2";"[1,2,3,9]";"1";"0";"1"
"534";"40";"14";"1";"17";"1";"1";"6";"1";"[1,2,3,18]";"2";"0";"1"
"535";"16";"15";"1";"9";"1";"1";"6";"1";"[1,2,3,10]";"0";"5";"1"
"536";"23";"15";"1";"8";"1";"1";"6";"2";"[1,2,3,9]";"1";"0";"1"
"537";"20";"17";"1";"32";"1";"1";"6";"1";"[1,2,3,33]";"1";"0";"1"
"538";"16";"17";"1";"9";"1";"1";"6";"1";"[1,2,3,10]";"0";"6";"1"
"539";"20";"18";"1";"32";"1";"1";"6";"1";"[1,2,3,33]";"1";"0";"1"
"540";"24";"18";"1";"11";"1";"1";"6";"1";"[1,2,3,12]";"1";"0";"1"
"541";"38";"18";"1";"3";"1";"1";"6";"2";"[1,2,4]";"2";"0";"1"
"542";"16";"19";"1";"9";"1";"1";"6";"1";"[1,2,3,10]";"0";"6";"1"
"543";"6";"19";"1";"4";"1";"1";"6";"2";"[1,2,3,5]";"2";"0";"1"
"544";"24";"19";"1";"11";"1";"1";"6";"1";"[1,2,3,12]";"1";"0";"1"
"545";"38";"19";"1";"3";"1";"1";"6";"2";"[1,2,4]";"2";"0";"1"
"546";"6";"20";"1";"4";"1";"1";"6";"2";"[1,2,3,5]";"2";"0";"1"
"547";"2";"22";"1";"22";"1";"1";"6";"2";"[1,2,3,23]";"2";"0";"1"
"548";"16";"22";"1";"9";"1";"1";"6";"1";"[1,2,3,10]";"0";"4";"1"
"549";"29";"22";"1";"5";"1";"1";"6";"1";"[1,2,3,6]";"2";"0";"1"
"550";"2";"23";"1";"22";"1";"1";"6";"2";"[1,2,3,23]";"2";"0";"1"
"551";"17";"23";"1";"38";"1";"1";"6";"1";"[1,2,3,39]";"2";"0";"1"
"552";"16";"23";"1";"9";"1";"1";"6";"1";"[1,2,3,10]";"0";"5";"1"
"553";"29";"23";"1";"5";"1";"1";"6";"1";"[1,2,3,6]";"2";"0";"1"
"554";"17";"24";"1";"38";"1";"1";"6";"1";"[1,2,3,39]";"2";"0";"1"
"555";"3";"24";"1";"35";"1";"1";"6";"1";"[1,2,3,36]";"1";"0";"1"
"556";"16";"24";"1";"9";"1";"1";"6";"1";"[1,2,3,10]";"1";"5";"1"
"557";"3";"25";"1";"35";"1";"1";"6";"1";"[1,2,3,36]";"1";"0";"1"
"558";"16";"25";"1";"9";"1";"1";"6";"1";"[1,2,3,10]";"1";"5";"1"
"559";"9";"26";"1";"7";"1";"1";"6";"1";"[1,2,3,8]";"2";"0";"1"
"560";"9";"27";"1";"7";"1";"1";"6";"1";"[1,2,3,8]";"2";"0";"1"
"561";"37";"2";"1";"34";"1";"1";"7";"1";"[1,2,3,35]";"2";"0";"1"
"562";"15";"2";"1";"30";"1";"1";"7";"2";"[1,2,3,31]";"2";"0";"1"
"563";"34";"2";"1";"12";"1";"1";"7";"1";"[1,2,3,13]";"1";"0";"1"
"564";"35";"3";"1";"36";"1";"1";"7";"1";"[1,2,3,37]";"1";"0";"1"
"565";"27";"3";"1";"40";"1";"1";"7";"2";"[1,2,3]";"2";"0";"1"
"566";"26";"3";"1";"31";"1";"1";"7";"2";"[1,2,3,32]";"2";"0";"1"
"567";"32";"3";"1";"20";"1";"1";"7";"2";"[1,2,3,21]";"1";"0";"1"
"568";"37";"3";"1";"34";"1";"1";"7";"1";"[1,2,3,35]";"2";"0";"1"
"569";"11";"3";"1";"21";"1";"1";"7";"1";"[1,2,3,22]";"1";"0";"1"
"570";"28";"3";"1";"25";"1";"1";"7";"1";"[1,2,3,26]";"1";"0";"1"
"571";"21";"3";"1";"24";"1";"1";"7";"1";"[1,2,3,25]";"1";"0";"1"
"572";"36";"3";"1";"39";"1";"1";"7";"2";"[1,2,3,40]";"2";"0";"1"
"573";"15";"3";"1";"30";"1";"1";"7";"2";"[1,2,3,31]";"2";"0";"1"
"574";"34";"3";"1";"12";"1";"1";"7";"1";"[1,2,3,13]";"1";"0";"1"
"575";"35";"4";"1";"36";"1";"1";"7";"1";"[1,2,3,37]";"1";"0";"1"
"576";"27";"4";"1";"40";"1";"1";"7";"2";"[1,2,3]";"2";"0";"1"
"577";"3";"4";"1";"35";"1";"1";"7";"1";"[1,2,3,36]";"1";"0";"1"
"578";"26";"4";"1";"31";"1";"1";"7";"2";"[1,2,3,32]";"2";"0";"1"
"579";"32";"4";"1";"20";"1";"1";"7";"2";"[1,2,3,21]";"1";"0";"1"
"580";"11";"4";"1";"21";"1";"1";"7";"1";"[1,2,3,22]";"1";"0";"1"
"581";"1";"4";"1";"23";"1";"1";"7";"1";"[1,2,3,24]";"2";"0";"1"
"582";"28";"4";"1";"25";"1";"1";"7";"1";"[1,2,3,26]";"1";"0";"1"
"583";"21";"4";"1";"24";"1";"1";"7";"1";"[1,2,3,25]";"1";"0";"1"
"584";"30";"4";"1";"10";"1";"1";"7";"1";"[1,2,3,11]";"1";"0";"1"
"585";"36";"4";"1";"39";"1";"1";"7";"2";"[1,2,3,40]";"2";"0";"1"
"586";"3";"5";"1";"35";"1";"1";"7";"1";"[1,2,3,36]";"1";"0";"1"
"587";"1";"5";"1";"23";"1";"1";"7";"1";"[1,2,3,24]";"2";"0";"1"
"588";"30";"5";"1";"10";"1";"1";"7";"1";"[1,2,3,11]";"1";"0";"1"
"589";"22";"6";"1";"26";"1";"1";"7";"1";"[1,2,3,27]";"0";"1";"1"
"590";"25";"6";"1";"18";"1";"1";"7";"1";"[1,2,3,19]";"2";"0";"1"
"591";"12";"6";"1";"6";"1";"1";"7";"1";"[1,2,3,7]";"1";"0";"1"
"592";"20";"6";"1";"32";"1";"1";"7";"1";"[1,2,3,33]";"1";"0";"1"
"593";"5";"7";"1";"29";"1";"1";"7";"1";"[1,2,3,30]";"2";"0";"1"
"594";"22";"7";"1";"26";"1";"1";"7";"1";"[1,2,3,27]";"0";"6";"1"
"595";"16";"7";"1";"9";"1";"1";"7";"1";"[1,2,3,10]";"1";"0";"1"
"596";"25";"7";"1";"18";"1";"1";"7";"1";"[1,2,3,19]";"2";"0";"1"
"597";"13";"7";"1";"1";"1";"1";"7";"1";"[2,3]";"2";"0";"1"
"598";"12";"7";"1";"6";"1";"1";"7";"1";"[1,2,3,7]";"1";"0";"1"
"599";"39";"7";"1";"27";"1";"1";"7";"1";"[1,2,3,28]";"1";"0";"1"
"600";"20";"7";"1";"32";"1";"1";"7";"1";"[1,2,3,33]";"1";"0";"1"
"601";"5";"8";"1";"29";"1";"1";"7";"1";"[1,2,3,30]";"2";"0";"1"
"602";"9";"8";"1";"7";"1";"1";"7";"1";"[1,2,3,8]";"1";"0";"1"
"603";"16";"8";"1";"9";"1";"1";"7";"1";"[1,2,3,10]";"1";"0";"1"
"604";"22";"8";"1";"26";"1";"1";"7";"1";"[1,2,3,27]";"0";"8";"1"
"605";"8";"8";"1";"16";"1";"1";"7";"1";"[1,2,3,17]";"2";"0";"1"
"606";"13";"8";"1";"1";"1";"1";"7";"1";"[2,3]";"2";"0";"1"
"607";"39";"8";"1";"27";"1";"1";"7";"1";"[1,2,3,28]";"1";"0";"1"
"608";"31";"8";"1";"15";"1";"1";"7";"2";"[1,2,3,16]";"2";"0";"1"
"609";"9";"9";"1";"7";"1";"1";"7";"1";"[1,2,3,8]";"1";"0";"1"
"610";"10";"9";"1";"14";"1";"1";"7";"1";"[1,2,3,15]";"2";"0";"1"
"611";"8";"9";"1";"16";"1";"1";"7";"1";"[1,2,3,17]";"2";"0";"1"
"612";"31";"9";"1";"15";"1";"1";"7";"2";"[1,2,3,16]";"2";"0";"1"
"613";"10";"10";"1";"14";"1";"1";"7";"1";"[1,2,3,15]";"2";"0";"1"
"614";"6";"10";"1";"4";"1";"1";"7";"2";"[1,2,3,5]";"0";"5";"1"
"615";"14";"11";"1";"13";"1";"1";"7";"2";"[1,2,3,14]";"2";"0";"1"
"616";"19";"11";"1";"33";"1";"1";"7";"1";"[1,2,3,34]";"0";"1";"1"
"617";"6";"12";"1";"4";"1";"1";"7";"2";"[1,2,3,5]";"0";"6";"1"
"618";"14";"12";"1";"13";"1";"1";"7";"2";"[1,2,3,14]";"2";"0";"1"
"619";"22";"12";"1";"26";"1";"1";"7";"1";"[1,2,3,27]";"2";"8";"1"
"620";"18";"12";"1";"28";"1";"1";"7";"1";"[1,2,3,29]";"2";"0";"1"
"621";"22";"13";"1";"26";"1";"1";"7";"1";"[1,2,3,27]";"2";"8";"1"
"622";"18";"13";"1";"28";"1";"1";"7";"1";"[1,2,3,29]";"2";"0";"1"
"623";"19";"15";"1";"33";"1";"1";"7";"1";"[1,2,3,34]";"0";"12";"1"
"624";"23";"15";"1";"8";"1";"1";"7";"2";"[1,2,3,9]";"2";"0";"1"
"625";"7";"16";"1";"2";"1";"1";"7";"1";"[1,3]";"1";"0";"1"
"626";"23";"16";"1";"8";"1";"1";"7";"2";"[1,2,3,9]";"2";"0";"1"
"627";"33";"17";"1";"37";"1";"1";"7";"1";"[1,2,3,38]";"2";"0";"1"
"628";"7";"17";"1";"2";"1";"1";"7";"1";"[1,3]";"1";"0";"1"
"629";"38";"18";"1";"3";"1";"1";"7";"2";"[1,2,4]";"2";"0";"1"
"630";"33";"18";"1";"37";"1";"1";"7";"1";"[1,2,3,38]";"2";"0";"1"
"631";"6";"19";"1";"4";"1";"1";"7";"2";"[1,2,3,5]";"2";"6";"1"
"632";"38";"19";"1";"3";"1";"1";"7";"2";"[1,2,4]";"2";"0";"1"
"633";"6";"20";"1";"4";"1";"1";"7";"2";"[1,2,3,5]";"2";"6";"1"
"634";"24";"20";"1";"11";"1";"1";"7";"1";"[1,2,3,12]";"1";"0";"1"
"635";"4";"20";"1";"19";"1";"1";"7";"2";"[1,2,3,20]";"2";"0";"1"
"636";"19";"21";"1";"33";"1";"1";"7";"1";"[1,2,3,34]";"1";"12";"1"
"637";"24";"21";"1";"11";"1";"1";"7";"1";"[1,2,3,12]";"1";"0";"1"
"638";"4";"21";"1";"19";"1";"1";"7";"2";"[1,2,3,20]";"2";"0";"1"
"639";"19";"22";"1";"33";"1";"1";"7";"1";"[1,2,3,34]";"1";"12";"1"
"640";"29";"22";"1";"5";"1";"1";"7";"1";"[1,2,3,6]";"2";"0";"1"
"641";"29";"23";"1";"5";"1";"1";"7";"1";"[1,2,3,6]";"2";"0";"1"
"642";"40";"25";"1";"17";"1";"1";"7";"1";"[1,2,3,18]";"2";"0";"1"
"643";"40";"26";"1";"17";"1";"1";"7";"1";"[1,2,3,18]";"2";"0";"1"
"644";"2";"26";"1";"22";"1";"1";"7";"2";"[1,2,3,23]";"2";"0";"1"
"645";"2";"27";"1";"22";"1";"1";"7";"2";"[1,2,3,23]";"2";"0";"1"
"646";"17";"29";"1";"38";"1";"1";"7";"1";"[1,2,3,39]";"2";"0";"1"
"647";"17";"30";"1";"38";"1";"1";"7";"1";"[1,2,3,39]";"2";"0";"1"
"648";"37";"2";"1";"34";"1";"1";"8";"1";"[1,2,3,35]";"1";"0";"1"
"649";"15";"2";"1";"30";"1";"1";"8";"2";"[1,2,3,31]";"2";"0";"1"
"650";"26";"2";"1";"31";"1";"1";"8";"2";"[1,2,3,32]";"2";"0";"1"
"651";"11";"2";"1";"21";"1";"1";"8";"1";"[1,2,3,22]";"1";"0";"1"
"652";"27";"3";"1";"40";"1";"1";"8";"2";"[1,2,3]";"2";"0";"1"
"653";"37";"3";"1";"34";"1";"1";"8";"1";"[1,2,3,35]";"1";"0";"1"
"654";"19";"3";"1";"33";"1";"1";"8";"1";"[1,2,3,34]";"2";"0";"1"
"655";"15";"3";"1";"30";"1";"1";"8";"2";"[1,2,3,31]";"2";"0";"1"
"656";"35";"3";"1";"36";"1";"1";"8";"1";"[1,2,3,37]";"1";"0";"1"
"657";"26";"3";"1";"31";"1";"1";"8";"2";"[1,2,3,32]";"2";"0";"1"
"658";"11";"3";"1";"21";"1";"1";"8";"1";"[1,2,3,22]";"1";"0";"1"
"659";"27";"4";"1";"40";"1";"1";"8";"2";"[1,2,3]";"2";"0";"1"
"660";"32";"4";"1";"20";"1";"1";"8";"2";"[1,2,3,21]";"2";"0";"1"
"661";"16";"4";"1";"9";"1";"1";"8";"1";"[1,2,3,10]";"0";"6";"1"
"662";"19";"4";"1";"33";"1";"1";"8";"1";"[1,2,3,34]";"2";"0";"1"
"663";"1";"4";"1";"23";"1";"1";"8";"1";"[1,2,3,24]";"2";"0";"1"
"664";"25";"4";"1";"18";"1";"1";"8";"1";"[1,2,3,19]";"0";"6";"1"
"665";"12";"4";"1";"6";"1";"1";"8";"1";"[1,2,3,7]";"1";"0";"1"
"666";"35";"4";"1";"36";"1";"1";"8";"1";"[1,2,3,37]";"1";"0";"1"
"667";"38";"4";"1";"3";"1";"1";"8";"2";"[1,2,4]";"2";"0";"1"
"668";"7";"5";"1";"2";"1";"1";"8";"1";"[1,3]";"2";"0";"1"
"669";"32";"5";"1";"20";"1";"1";"8";"2";"[1,2,3,21]";"2";"0";"1"
"670";"4";"5";"1";"19";"1";"1";"8";"2";"[1,2,3,20]";"2";"0";"1"
"671";"3";"5";"1";"35";"1";"1";"8";"1";"[1,2,3,36]";"1";"0";"1"
"672";"1";"5";"1";"23";"1";"1";"8";"1";"[1,2,3,24]";"2";"0";"1"
"673";"20";"5";"1";"32";"1";"1";"8";"1";"[1,2,3,33]";"1";"0";"1"
"674";"36";"5";"1";"39";"1";"1";"8";"2";"[1,2,3,40]";"2";"0";"1"
"675";"5";"5";"1";"29";"1";"1";"8";"1";"[1,2,3,30]";"2";"0";"1"
"676";"30";"5";"1";"10";"1";"1";"8";"1";"[1,2,3,11]";"1";"0";"1"
"677";"12";"5";"1";"6";"1";"1";"8";"1";"[1,2,3,7]";"1";"0";"1"
"678";"22";"5";"1";"26";"1";"1";"8";"1";"[1,2,3,27]";"1";"0";"1"
"679";"16";"5";"1";"9";"1";"1";"8";"1";"[1,2,3,10]";"0";"7";"1"
"680";"38";"5";"1";"3";"1";"1";"8";"2";"[1,2,4]";"2";"0";"1"
"681";"7";"6";"1";"2";"1";"1";"8";"1";"[1,3]";"2";"0";"1"
"682";"4";"6";"1";"19";"1";"1";"8";"2";"[1,2,3,20]";"2";"0";"1"
"683";"25";"6";"1";"18";"1";"1";"8";"1";"[1,2,3,19]";"0";"7";"1"
"684";"3";"6";"1";"35";"1";"1";"8";"1";"[1,2,3,36]";"1";"0";"1"
"685";"6";"6";"1";"4";"1";"1";"8";"2";"[1,2,3,5]";"0";"6";"1"
"686";"25";"6";"1";"18";"1";"1";"8";"1";"[1,2,3,19]";"2";"7";"1"
"687";"20";"6";"1";"32";"1";"1";"8";"1";"[1,2,3,33]";"1";"0";"1"
"688";"36";"6";"1";"39";"1";"1";"8";"2";"[1,2,3,40]";"2";"0";"1"
"689";"5";"6";"1";"29";"1";"1";"8";"1";"[1,2,3,30]";"2";"0";"1"
"690";"30";"6";"1";"10";"1";"1";"8";"1";"[1,2,3,11]";"1";"0";"1"
"691";"22";"6";"1";"26";"1";"1";"8";"1";"[1,2,3,27]";"1";"0";"1"
"692";"23";"6";"1";"8";"1";"1";"8";"2";"[1,2,3,9]";"2";"0";"1"
"693";"16";"7";"1";"9";"1";"1";"8";"1";"[1,2,3,10]";"1";"7";"1"
"694";"33";"7";"1";"37";"1";"1";"8";"1";"[1,2,3,38]";"2";"0";"1"
"695";"13";"7";"1";"1";"1";"1";"8";"1";"[2,3]";"2";"0";"1"
"696";"25";"7";"1";"18";"1";"1";"8";"1";"[1,2,3,19]";"2";"7";"1"
"697";"14";"7";"1";"13";"1";"1";"8";"2";"[1,2,3,14]";"2";"0";"1"
"698";"6";"7";"1";"4";"1";"1";"8";"2";"[1,2,3,5]";"0";"7";"1"
"699";"23";"7";"1";"8";"1";"1";"8";"2";"[1,2,3,9]";"2";"0";"1"
"700";"16";"8";"1";"9";"1";"1";"8";"1";"[1,2,3,10]";"1";"7";"1"
"701";"28";"8";"1";"25";"1";"1";"8";"1";"[1,2,3,26]";"1";"0";"1"
"702";"24";"8";"1";"11";"1";"1";"8";"1";"[1,2,3,12]";"1";"0";"1"
"703";"33";"8";"1";"37";"1";"1";"8";"1";"[1,2,3,38]";"2";"0";"1"
"704";"8";"8";"1";"16";"1";"1";"8";"1";"[1,2,3,17]";"2";"0";"1"
"705";"13";"8";"1";"1";"1";"1";"8";"1";"[2,3]";"2";"0";"1"
"706";"6";"8";"1";"4";"1";"1";"8";"2";"[1,2,3,5]";"2";"7";"1"
"707";"14";"8";"1";"13";"1";"1";"8";"2";"[1,2,3,14]";"2";"0";"1"
"708";"28";"9";"1";"25";"1";"1";"8";"1";"[1,2,3,26]";"1";"0";"1"
"709";"24";"9";"1";"11";"1";"1";"8";"1";"[1,2,3,12]";"1";"0";"1"
"710";"8";"9";"1";"16";"1";"1";"8";"1";"[1,2,3,17]";"2";"0";"1"
"711";"6";"9";"1";"4";"1";"1";"8";"2";"[1,2,3,5]";"2";"7";"1"
"712";"31";"12";"1";"15";"1";"1";"8";"2";"[1,2,3,16]";"1";"0";"1"
"713";"31";"13";"1";"15";"1";"1";"8";"2";"[1,2,3,16]";"1";"0";"1"
"714";"9";"14";"1";"7";"1";"1";"8";"1";"[1,2,3,8]";"1";"0";"1"
"715";"39";"14";"1";"27";"1";"1";"8";"1";"[1,2,3,28]";"1";"0";"1"
"716";"9";"15";"1";"7";"1";"1";"8";"1";"[1,2,3,8]";"1";"0";"1"
"717";"39";"15";"1";"27";"1";"1";"8";"1";"[1,2,3,28]";"1";"0";"1"
"718";"40";"16";"1";"17";"1";"1";"8";"1";"[1,2,3,18]";"1";"0";"1"
"719";"34";"17";"1";"12";"1";"1";"8";"1";"[1,2,3,13]";"1";"0";"1"
"720";"21";"17";"1";"24";"1";"1";"8";"1";"[1,2,3,25]";"1";"0";"1"
"721";"40";"17";"1";"17";"1";"1";"8";"1";"[1,2,3,18]";"1";"0";"1"
"722";"34";"18";"1";"12";"1";"1";"8";"1";"[1,2,3,13]";"1";"0";"1"
"723";"21";"18";"1";"24";"1";"1";"8";"1";"[1,2,3,25]";"1";"0";"1"
"724";"10";"19";"1";"14";"1";"1";"8";"1";"[1,2,3,15]";"2";"0";"1"
"725";"29";"19";"1";"5";"1";"1";"8";"1";"[1,2,3,6]";"1";"0";"1"
"726";"10";"20";"1";"14";"1";"1";"8";"1";"[1,2,3,15]";"2";"0";"1"
"727";"29";"20";"1";"5";"1";"1";"8";"1";"[1,2,3,6]";"1";"0";"1"
"728";"2";"24";"1";"22";"1";"1";"8";"2";"[1,2,3,23]";"2";"0";"1"
"729";"2";"25";"1";"22";"1";"1";"8";"2";"[1,2,3,23]";"2";"0";"1"
"730";"18";"27";"1";"28";"1";"1";"8";"1";"[1,2,3,29]";"1";"0";"1"
"731";"17";"27";"1";"38";"1";"1";"8";"1";"[1,2,3,39]";"2";"0";"1"
"732";"18";"28";"1";"28";"1";"1";"8";"1";"[1,2,3,29]";"1";"0";"1"
"733";"17";"28";"1";"38";"1";"1";"8";"1";"[1,2,3,39]";"2";"0";"1"
"734";"32";"1";"1";"20";"1";"1";"9";"2";"[1,2,3,21]";"2";"0";"1"
"735";"11";"1";"1";"21";"1";"1";"9";"1";"[1,2,3,22]";"2";"0";"1"
"736";"15";"1";"1";"30";"1";"1";"9";"2";"[1,2,3,31]";"2";"0";"1"
"737";"27";"2";"1";"40";"1";"1";"9";"2";"[1,2,3]";"2";"0";"1"
"738";"5";"2";"1";"29";"1";"1";"9";"1";"[1,2,3,30]";"2";"0";"1"
"739";"1";"2";"1";"23";"1";"1";"9";"1";"[1,2,3,24]";"2";"0";"1"
"740";"25";"2";"1";"18";"1";"1";"9";"1";"[1,2,3,19]";"2";"0";"1"
"741";"32";"2";"1";"20";"1";"1";"9";"2";"[1,2,3,21]";"2";"0";"1"
"742";"26";"2";"1";"31";"1";"1";"9";"2";"[1,2,3,32]";"2";"0";"1"
"743";"11";"2";"1";"21";"1";"1";"9";"1";"[1,2,3,22]";"2";"0";"1"
"744";"15";"2";"1";"30";"1";"1";"9";"2";"[1,2,3,31]";"2";"0";"1"
"745";"27";"3";"1";"40";"1";"1";"9";"2";"[1,2,3]";"2";"0";"1"
"746";"5";"3";"1";"29";"1";"1";"9";"1";"[1,2,3,30]";"2";"0";"1"
"747";"20";"3";"1";"32";"1";"1";"9";"1";"[1,2,3,33]";"2";"0";"1"
"748";"23";"3";"1";"8";"1";"1";"9";"2";"[1,2,3,9]";"1";"0";"1"
"749";"1";"3";"1";"23";"1";"1";"9";"1";"[1,2,3,24]";"2";"0";"1"
"750";"25";"3";"1";"18";"1";"1";"9";"1";"[1,2,3,19]";"2";"0";"1"
"751";"33";"3";"1";"37";"1";"1";"9";"1";"[1,2,3,38]";"2";"0";"1"
"752";"26";"3";"1";"31";"1";"1";"9";"2";"[1,2,3,32]";"2";"0";"1"
"753";"17";"3";"1";"38";"1";"1";"9";"1";"[1,2,3,39]";"2";"0";"1"
"754";"35";"4";"1";"36";"1";"1";"9";"1";"[1,2,3,37]";"1";"0";"1"
"755";"28";"4";"1";"25";"1";"1";"9";"1";"[1,2,3,26]";"1";"0";"1"
"756";"20";"4";"1";"32";"1";"1";"9";"1";"[1,2,3,33]";"2";"0";"1"
"757";"23";"4";"1";"8";"1";"1";"9";"2";"[1,2,3,9]";"1";"0";"1"
"758";"18";"4";"1";"28";"1";"1";"9";"1";"[1,2,3,29]";"2";"0";"1"
"759";"33";"4";"1";"37";"1";"1";"9";"1";"[1,2,3,38]";"2";"0";"1"
"760";"17";"4";"1";"38";"1";"1";"9";"1";"[1,2,3,39]";"2";"0";"1"
"761";"35";"5";"1";"36";"1";"1";"9";"1";"[1,2,3,37]";"1";"0";"1"
"762";"14";"5";"1";"13";"1";"1";"9";"2";"[1,2,3,14]";"2";"0";"1"
"763";"28";"5";"1";"25";"1";"1";"9";"1";"[1,2,3,26]";"1";"0";"1"
"764";"16";"5";"1";"9";"1";"1";"9";"1";"[1,2,3,10]";"0";"7";"1"
"765";"18";"5";"1";"28";"1";"1";"9";"1";"[1,2,3,29]";"2";"0";"1"
"766";"22";"5";"1";"26";"1";"1";"9";"1";"[1,2,3,27]";"1";"0";"1"
"767";"4";"5";"1";"19";"1";"1";"9";"2";"[1,2,3,20]";"2";"0";"1"
"768";"30";"6";"1";"10";"1";"1";"9";"1";"[1,2,3,11]";"1";"0";"1"
"769";"14";"6";"1";"13";"1";"1";"9";"2";"[1,2,3,14]";"2";"0";"1"
"770";"7";"6";"1";"2";"1";"1";"9";"1";"[1,3]";"2";"0";"1"
"771";"16";"6";"1";"9";"1";"1";"9";"1";"[1,2,3,10]";"0";"8";"1"
"772";"22";"6";"1";"26";"1";"1";"9";"1";"[1,2,3,27]";"1";"0";"1"
"773";"4";"6";"1";"19";"1";"1";"9";"2";"[1,2,3,20]";"2";"0";"1"
"774";"30";"7";"1";"10";"1";"1";"9";"1";"[1,2,3,11]";"1";"0";"1"
"775";"7";"7";"1";"2";"1";"1";"9";"1";"[1,3]";"2";"0";"1"
"776";"37";"7";"1";"34";"1";"1";"9";"1";"[1,2,3,35]";"1";"0";"1"
"777";"16";"7";"1";"9";"1";"1";"9";"1";"[1,2,3,10]";"2";"8";"1"
"778";"8";"7";"1";"16";"1";"1";"9";"1";"[1,2,3,17]";"2";"0";"1"
"779";"6";"7";"1";"4";"1";"1";"9";"2";"[1,2,3,5]";"0";"7";"1"
"780";"36";"8";"1";"39";"1";"1";"9";"2";"[1,2,3,40]";"2";"0";"1"
"781";"37";"8";"1";"34";"1";"1";"9";"1";"[1,2,3,35]";"1";"0";"1"
"782";"16";"8";"1";"9";"1";"1";"9";"1";"[1,2,3,10]";"2";"8";"1"
"783";"8";"8";"1";"16";"1";"1";"9";"1";"[1,2,3,17]";"2";"0";"1"
"784";"19";"8";"1";"33";"1";"1";"9";"1";"[1,2,3,34]";"2";"0";"1"
"785";"12";"8";"1";"6";"1";"1";"9";"1";"[1,2,3,7]";"2";"0";"1"
"786";"29";"8";"1";"5";"1";"1";"9";"1";"[1,2,3,6]";"2";"0";"1"
"787";"13";"8";"1";"1";"1";"1";"9";"1";"[2,3]";"2";"0";"1"
"788";"36";"9";"1";"39";"1";"1";"9";"2";"[1,2,3,40]";"2";"0";"1"
"789";"38";"9";"1";"3";"1";"1";"9";"2";"[1,2,4]";"2";"0";"1"
"790";"21";"9";"1";"24";"1";"1";"9";"1";"[1,2,3,25]";"2";"0";"1"
"791";"40";"9";"1";"17";"1";"1";"9";"1";"[1,2,3,18]";"1";"0";"1"
"792";"19";"9";"1";"33";"1";"1";"9";"1";"[1,2,3,34]";"2";"0";"1"
"793";"12";"9";"1";"6";"1";"1";"9";"1";"[1,2,3,7]";"2";"0";"1"
"794";"29";"9";"1";"5";"1";"1";"9";"1";"[1,2,3,6]";"2";"0";"1"
"795";"34";"9";"1";"12";"1";"1";"9";"1";"[1,2,3,13]";"1";"0";"1"
"796";"13";"10";"1";"1";"1";"1";"9";"1";"[2,3]";"2";"0";"1"
"797";"38";"10";"1";"3";"1";"1";"9";"2";"[1,2,4]";"2";"0";"1"
"798";"21";"10";"1";"24";"1";"1";"9";"1";"[1,2,3,25]";"2";"0";"1"
"799";"40";"10";"1";"17";"1";"1";"9";"1";"[1,2,3,18]";"1";"0";"1"
"800";"34";"10";"1";"12";"1";"1";"9";"1";"[1,2,3,13]";"1";"0";"1"
"801";"31";"11";"1";"15";"1";"1";"9";"2";"[1,2,3,16]";"2";"0";"1"
"802";"6";"12";"1";"4";"1";"1";"9";"2";"[1,2,3,5]";"0";"8";"1"
"803";"3";"12";"1";"35";"1";"1";"9";"1";"[1,2,3,36]";"1";"0";"1"
"804";"31";"12";"1";"15";"1";"1";"9";"2";"[1,2,3,16]";"2";"0";"1"
"805";"3";"13";"1";"35";"1";"1";"9";"1";"[1,2,3,36]";"1";"0";"1"
"806";"39";"16";"1";"27";"1";"1";"9";"1";"[1,2,3,28]";"2";"0";"1"
"807";"2";"17";"1";"22";"1";"1";"9";"2";"[1,2,3,23]";"2";"0";"1"
"808";"39";"17";"1";"27";"1";"1";"9";"1";"[1,2,3,28]";"2";"0";"1"
"809";"9";"17";"1";"7";"1";"1";"9";"1";"[1,2,3,8]";"2";"0";"1"
"810";"2";"18";"1";"22";"1";"1";"9";"2";"[1,2,3,23]";"2";"0";"1"
"811";"9";"19";"1";"7";"1";"1";"9";"1";"[1,2,3,8]";"2";"0";"1"
"812";"24";"20";"1";"11";"1";"1";"9";"1";"[1,2,3,12]";"2";"0";"1"
"813";"24";"21";"1";"11";"1";"1";"9";"1";"[1,2,3,12]";"2";"0";"1"
"814";"10";"22";"1";"14";"1";"1";"9";"1";"[1,2,3,15]";"1";"0";"1"
"815";"6";"23";"1";"4";"1";"1";"9";"2";"[1,2,3,5]";"2";"8";"1"
"816";"10";"23";"1";"14";"1";"1";"9";"1";"[1,2,3,15]";"1";"0";"1"
"817";"6";"24";"1";"4";"1";"1";"9";"2";"[1,2,3,5]";"2";"8";"1"
"818";"35";"1";"1";"36";"1";"1";"10";"1";"[1,2,3,37]";"1";"0";"1"
"819";"37";"1";"1";"34";"1";"1";"10";"1";"[1,2,3,35]";"1";"0";"1"
"820";"15";"1";"1";"30";"1";"1";"10";"2";"[1,2,3,31]";"2";"0";"1"
"821";"32";"1";"1";"20";"1";"1";"10";"2";"[1,2,3,21]";"2";"0";"1"
"822";"1";"1";"1";"23";"1";"1";"10";"1";"[1,2,3,24]";"2";"0";"1"
"823";"26";"1";"1";"31";"1";"1";"10";"2";"[1,2,3,32]";"2";"0";"1"
"824";"25";"1";"1";"18";"1";"1";"10";"1";"[1,2,3,19]";"2";"0";"1"
"825";"5";"2";"1";"29";"1";"1";"10";"1";"[1,2,3,30]";"2";"0";"1"
"826";"35";"2";"1";"36";"1";"1";"10";"1";"[1,2,3,37]";"1";"0";"1"
"827";"27";"2";"1";"40";"1";"1";"10";"2";"[1,2,3]";"2";"0";"1"
"828";"37";"2";"1";"34";"1";"1";"10";"1";"[1,2,3,35]";"1";"0";"1"
"829";"15";"2";"1";"30";"1";"1";"10";"2";"[1,2,3,31]";"2";"0";"1"
"830";"32";"2";"1";"20";"1";"1";"10";"2";"[1,2,3,21]";"2";"0";"1"
"831";"11";"2";"1";"21";"1";"1";"10";"1";"[1,2,3,22]";"2";"0";"1"
"832";"1";"2";"1";"23";"1";"1";"10";"1";"[1,2,3,24]";"2";"0";"1"
"833";"26";"2";"1";"31";"1";"1";"10";"2";"[1,2,3,32]";"2";"0";"1"
"834";"8";"2";"1";"16";"1";"1";"10";"1";"[1,2,3,17]";"2";"0";"1"
"835";"28";"2";"1";"25";"1";"1";"10";"1";"[1,2,3,26]";"1";"0";"1"
"836";"36";"2";"1";"39";"1";"1";"10";"2";"[1,2,3,40]";"2";"0";"1"
"837";"25";"2";"1";"18";"1";"1";"10";"1";"[1,2,3,19]";"2";"0";"1"
"838";"5";"3";"1";"29";"1";"1";"10";"1";"[1,2,3,30]";"2";"0";"1"
"839";"34";"3";"1";"12";"1";"1";"10";"1";"[1,2,3,13]";"2";"0";"1"
"840";"27";"3";"1";"40";"1";"1";"10";"2";"[1,2,3]";"2";"0";"1"
"841";"17";"3";"1";"38";"1";"1";"10";"1";"[1,2,3,39]";"2";"0";"1"
"842";"19";"3";"1";"33";"1";"1";"10";"1";"[1,2,3,34]";"1";"0";"1"
"843";"11";"3";"1";"21";"1";"1";"10";"1";"[1,2,3,22]";"2";"0";"1"
"844";"3";"3";"1";"35";"1";"1";"10";"1";"[1,2,3,36]";"2";"0";"1"
"845";"16";"3";"1";"9";"1";"1";"10";"1";"[1,2,3,10]";"0";"8";"1"
"846";"40";"3";"1";"17";"1";"1";"10";"1";"[1,2,3,18]";"2";"0";"1"
"847";"38";"3";"1";"3";"1";"1";"10";"2";"[1,2,4]";"2";"0";"1"
"848";"28";"3";"1";"25";"1";"1";"10";"1";"[1,2,3,26]";"1";"0";"1"
"849";"8";"3";"1";"16";"1";"1";"10";"1";"[1,2,3,17]";"2";"0";"1"
"850";"36";"3";"1";"39";"1";"1";"10";"2";"[1,2,3,40]";"2";"0";"1"
"851";"34";"4";"1";"12";"1";"1";"10";"1";"[1,2,3,13]";"2";"0";"1"
"852";"17";"4";"1";"38";"1";"1";"10";"1";"[1,2,3,39]";"2";"0";"1"
"853";"19";"4";"1";"33";"1";"1";"10";"1";"[1,2,3,34]";"1";"0";"1"
"854";"3";"4";"1";"35";"1";"1";"10";"1";"[1,2,3,36]";"2";"0";"1"
"855";"40";"4";"1";"17";"1";"1";"10";"1";"[1,2,3,18]";"2";"0";"1"
"856";"30";"4";"1";"10";"1";"1";"10";"1";"[1,2,3,11]";"1";"0";"1"
"857";"21";"4";"1";"24";"1";"1";"10";"1";"[1,2,3,25]";"2";"0";"1"
"858";"38";"4";"1";"3";"1";"1";"10";"2";"[1,2,4]";"2";"0";"1"
"859";"16";"5";"1";"9";"1";"1";"10";"1";"[1,2,3,10]";"0";"9";"1"
"860";"30";"5";"1";"10";"1";"1";"10";"1";"[1,2,3,11]";"1";"0";"1"
"861";"31";"5";"1";"15";"1";"1";"10";"2";"[1,2,3,16]";"2";"0";"1"
"862";"21";"5";"1";"24";"1";"1";"10";"1";"[1,2,3,25]";"2";"0";"1"
"863";"13";"5";"1";"1";"1";"1";"10";"1";"[2,3]";"2";"0";"1"
"864";"16";"6";"1";"9";"1";"1";"10";"1";"[1,2,3,10]";"1";"9";"1"
"865";"29";"6";"1";"5";"1";"1";"10";"1";"[1,2,3,6]";"2";"0";"1"
"866";"18";"6";"1";"28";"1";"1";"10";"1";"[1,2,3,29]";"1";"0";"1"
"867";"31";"6";"1";"15";"1";"1";"10";"2";"[1,2,3,16]";"2";"0";"1"
"868";"20";"6";"1";"32";"1";"1";"10";"1";"[1,2,3,33]";"2";"0";"1"
"869";"13";"6";"1";"1";"1";"1";"10";"1";"[2,3]";"2";"0";"1"
"870";"16";"7";"1";"9";"1";"1";"10";"1";"[1,2,3,10]";"1";"9";"1"
"871";"29";"7";"1";"5";"1";"1";"10";"1";"[1,2,3,6]";"2";"0";"1"
"872";"18";"7";"1";"28";"1";"1";"10";"1";"[1,2,3,29]";"1";"0";"1"
"873";"14";"7";"1";"13";"1";"1";"10";"2";"[1,2,3,14]";"2";"0";"1"
"874";"6";"7";"1";"4";"1";"1";"10";"2";"[1,2,3,5]";"2";"0";"1"
"875";"20";"7";"1";"32";"1";"1";"10";"1";"[1,2,3,33]";"2";"0";"1"
"876";"4";"8";"1";"19";"1";"1";"10";"2";"[1,2,3,20]";"2";"0";"1"
"877";"14";"8";"1";"13";"1";"1";"10";"2";"[1,2,3,14]";"2";"0";"1"
"878";"39";"8";"1";"27";"1";"1";"10";"1";"[1,2,3,28]";"2";"0";"1"
"879";"6";"8";"1";"4";"1";"1";"10";"2";"[1,2,3,5]";"2";"0";"1"
"880";"4";"9";"1";"19";"1";"1";"10";"2";"[1,2,3,20]";"2";"0";"1"
"881";"39";"9";"1";"27";"1";"1";"10";"1";"[1,2,3,28]";"2";"0";"1"
"882";"2";"10";"1";"22";"1";"1";"10";"2";"[1,2,3,23]";"2";"0";"1"
"883";"7";"10";"1";"2";"1";"1";"10";"1";"[1,3]";"2";"0";"1"
"884";"33";"11";"1";"37";"1";"1";"10";"1";"[1,2,3,38]";"1";"0";"1"
"885";"23";"11";"1";"8";"1";"1";"10";"2";"[1,2,3,9]";"1";"0";"1"
"886";"2";"11";"1";"22";"1";"1";"10";"2";"[1,2,3,23]";"2";"0";"1"
"887";"7";"11";"1";"2";"1";"1";"10";"1";"[1,3]";"2";"0";"1"
"888";"24";"11";"1";"11";"1";"1";"10";"1";"[1,2,3,12]";"2";"0";"1"
"889";"12";"11";"1";"6";"1";"1";"10";"1";"[1,2,3,7]";"2";"0";"1"
"890";"33";"12";"1";"37";"1";"1";"10";"1";"[1,2,3,38]";"1";"0";"1"
"891";"23";"12";"1";"8";"1";"1";"10";"2";"[1,2,3,9]";"1";"0";"1"
"892";"24";"12";"1";"11";"1";"1";"10";"1";"[1,2,3,12]";"2";"0";"1"
"893";"12";"12";"1";"6";"1";"1";"10";"1";"[1,2,3,7]";"2";"0";"1"
"894";"10";"13";"1";"14";"1";"1";"10";"1";"[1,2,3,15]";"1";"0";"1"
"895";"22";"14";"1";"26";"1";"1";"10";"1";"[1,2,3,27]";"1";"0";"1"
"896";"10";"14";"1";"14";"1";"1";"10";"1";"[1,2,3,15]";"1";"0";"1"
"897";"22";"15";"1";"26";"1";"1";"10";"1";"[1,2,3,27]";"1";"0";"1"
"898";"9";"17";"1";"7";"1";"1";"10";"1";"[1,2,3,8]";"2";"0";"1"
"899";"9";"18";"1";"7";"1";"1";"10";"1";"[1,2,3,8]";"2";"0";"1"
"900";"37";"1";"1";"34";"1";"1";"11";"1";"[1,2,3,35]";"1";"0";"1"
"901";"32";"1";"1";"20";"1";"1";"11";"2";"[1,2,3,21]";"2";"0";"1"
"902";"27";"1";"1";"40";"1";"1";"11";"2";"[1,2,3]";"2";"0";"1"
"903";"5";"1";"1";"29";"1";"1";"11";"1";"[1,2,3,30]";"2";"0";"1"
"904";"28";"2";"1";"25";"1";"1";"11";"1";"[1,2,3,26]";"1";"0";"1"
"905";"36";"2";"1";"39";"1";"1";"11";"2";"[1,2,3,40]";"2";"0";"1"
"906";"10";"2";"1";"14";"1";"1";"11";"1";"[1,2,3,15]";"2";"0";"1"
"907";"26";"2";"1";"31";"1";"1";"11";"2";"[1,2,3,32]";"2";"0";"1"
"908";"15";"2";"1";"30";"1";"1";"11";"2";"[1,2,3,31]";"2";"0";"1"
"909";"24";"2";"1";"11";"1";"1";"11";"1";"[1,2,3,12]";"2";"0";"1"
"910";"37";"2";"1";"34";"1";"1";"11";"1";"[1,2,3,35]";"1";"0";"1"
"911";"32";"2";"1";"20";"1";"1";"11";"2";"[1,2,3,21]";"2";"0";"1"
"912";"27";"2";"1";"40";"1";"1";"11";"2";"[1,2,3]";"2";"0";"1"
"913";"38";"2";"1";"3";"1";"1";"11";"2";"[1,2,4]";"2";"0";"1"
"914";"5";"2";"1";"29";"1";"1";"11";"1";"[1,2,3,30]";"2";"0";"1"
"915";"16";"2";"1";"9";"1";"1";"11";"1";"[1,2,3,10]";"0";"9";"1"
"916";"1";"2";"1";"23";"1";"1";"11";"1";"[1,2,3,24]";"2";"0";"1"
"917";"35";"2";"1";"36";"1";"1";"11";"1";"[1,2,3,37]";"1";"0";"1"
"918";"28";"3";"1";"25";"1";"1";"11";"1";"[1,2,3,26]";"1";"0";"1"
"919";"3";"3";"1";"35";"1";"1";"11";"1";"[1,2,3,36]";"2";"0";"1"
"920";"4";"3";"1";"19";"1";"1";"11";"2";"[1,2,3,20]";"2";"0";"1"
"921";"36";"3";"1";"39";"1";"1";"11";"2";"[1,2,3,40]";"2";"0";"1"
"922";"10";"3";"1";"14";"1";"1";"11";"1";"[1,2,3,15]";"2";"0";"1"
"923";"26";"3";"1";"31";"1";"1";"11";"2";"[1,2,3,32]";"2";"0";"1"
"924";"22";"3";"1";"26";"1";"1";"11";"1";"[1,2,3,27]";"2";"0";"1"
"925";"15";"3";"1";"30";"1";"1";"11";"2";"[1,2,3,31]";"2";"0";"1"
"926";"24";"3";"1";"11";"1";"1";"11";"1";"[1,2,3,12]";"2";"0";"1"
"927";"38";"3";"1";"3";"1";"1";"11";"2";"[1,2,4]";"2";"0";"1"
"928";"31";"3";"1";"15";"1";"1";"11";"2";"[1,2,3,16]";"1";"0";"1"
"929";"14";"3";"1";"13";"1";"1";"11";"2";"[1,2,3,14]";"2";"0";"1"
"930";"1";"3";"1";"23";"1";"1";"11";"1";"[1,2,3,24]";"2";"0";"1"
"931";"35";"3";"1";"36";"1";"1";"11";"1";"[1,2,3,37]";"1";"0";"1"
"932";"16";"4";"1";"9";"1";"1";"11";"1";"[1,2,3,10]";"0";"10";"1"
"933";"25";"4";"1";"18";"1";"1";"11";"1";"[1,2,3,19]";"2";"0";"1"
"934";"3";"4";"1";"35";"1";"1";"11";"1";"[1,2,3,36]";"2";"0";"1"
"935";"12";"4";"1";"6";"1";"1";"11";"1";"[1,2,3,7]";"1";"0";"1"
"936";"4";"4";"1";"19";"1";"1";"11";"2";"[1,2,3,20]";"2";"0";"1"
"937";"29";"4";"1";"5";"1";"1";"11";"1";"[1,2,3,6]";"2";"0";"1"
"938";"22";"4";"1";"26";"1";"1";"11";"1";"[1,2,3,27]";"2";"0";"1"
"939";"31";"4";"1";"15";"1";"1";"11";"2";"[1,2,3,16]";"1";"0";"1"
"940";"11";"4";"1";"21";"1";"1";"11";"1";"[1,2,3,22]";"2";"0";"1"
"941";"8";"4";"1";"16";"1";"1";"11";"1";"[1,2,3,17]";"2";"0";"1"
"942";"14";"4";"1";"13";"1";"1";"11";"2";"[1,2,3,14]";"2";"0";"1"
"943";"25";"5";"1";"18";"1";"1";"11";"1";"[1,2,3,19]";"2";"0";"1"
"944";"12";"5";"1";"6";"1";"1";"11";"1";"[1,2,3,7]";"1";"0";"1"
"945";"33";"5";"1";"37";"1";"1";"11";"1";"[1,2,3,38]";"2";"0";"1"
"946";"30";"5";"1";"10";"1";"1";"11";"1";"[1,2,3,11]";"1";"0";"1"
"947";"7";"5";"1";"2";"1";"1";"11";"1";"[1,3]";"2";"0";"1"
"948";"29";"5";"1";"5";"1";"1";"11";"1";"[1,2,3,6]";"2";"0";"1"
"949";"16";"5";"1";"9";"1";"1";"11";"1";"[1,2,3,10]";"1";"10";"1"
"950";"13";"5";"1";"1";"1";"1";"11";"1";"[2,3]";"2";"0";"1"
"951";"11";"5";"1";"21";"1";"1";"11";"1";"[1,2,3,22]";"2";"0";"1"
"952";"8";"5";"1";"16";"1";"1";"11";"1";"[1,2,3,17]";"2";"0";"1"
"953";"33";"6";"1";"37";"1";"1";"11";"1";"[1,2,3,38]";"2";"0";"1"
"954";"18";"6";"1";"28";"1";"1";"11";"1";"[1,2,3,29]";"1";"0";"1"
"955";"30";"6";"1";"10";"1";"1";"11";"1";"[1,2,3,11]";"1";"0";"1"
"956";"7";"6";"1";"2";"1";"1";"11";"1";"[1,3]";"2";"0";"1"
"957";"16";"6";"1";"9";"1";"1";"11";"1";"[1,2,3,10]";"1";"10";"1"
"958";"17";"6";"1";"38";"1";"1";"11";"1";"[1,2,3,39]";"2";"0";"1"
"959";"13";"6";"1";"1";"1";"1";"11";"1";"[2,3]";"2";"0";"1"
"960";"21";"6";"1";"24";"1";"1";"11";"1";"[1,2,3,25]";"2";"0";"1"
"961";"18";"7";"1";"28";"1";"1";"11";"1";"[1,2,3,29]";"1";"0";"1"
"962";"34";"7";"1";"12";"1";"1";"11";"1";"[1,2,3,13]";"2";"0";"1"
"963";"2";"7";"1";"22";"1";"1";"11";"2";"[1,2,3,23]";"2";"0";"1"
"964";"17";"7";"1";"38";"1";"1";"11";"1";"[1,2,3,39]";"2";"0";"1"
"965";"21";"7";"1";"24";"1";"1";"11";"1";"[1,2,3,25]";"2";"0";"1"
"966";"34";"8";"1";"12";"1";"1";"11";"1";"[1,2,3,13]";"2";"0";"1"
"967";"2";"8";"1";"22";"1";"1";"11";"2";"[1,2,3,23]";"2";"0";"1"
"968";"40";"9";"1";"17";"1";"1";"11";"1";"[1,2,3,18]";"2";"0";"1"
"969";"23";"9";"1";"8";"1";"1";"11";"2";"[1,2,3,9]";"2";"0";"1"
"970";"40";"10";"1";"17";"1";"1";"11";"1";"[1,2,3,18]";"2";"0";"1"
"971";"19";"10";"1";"33";"1";"1";"11";"1";"[1,2,3,34]";"1";"0";"1"
"972";"23";"10";"1";"8";"1";"1";"11";"2";"[1,2,3,9]";"2";"0";"1"
"973";"19";"11";"1";"33";"1";"1";"11";"1";"[1,2,3,34]";"1";"0";"1"
"974";"20";"14";"1";"32";"1";"1";"11";"1";"[1,2,3,33]";"2";"0";"1"
"975";"39";"15";"1";"27";"1";"1";"11";"1";"[1,2,3,28]";"2";"0";"1"
"976";"20";"15";"1";"32";"1";"1";"11";"1";"[1,2,3,33]";"2";"0";"1"
"977";"30";"16";"1";"10";"1";"1";"11";"1";"[1,2,3,11]";"1";"1";"1"
"978";"39";"16";"1";"27";"1";"1";"11";"1";"[1,2,3,28]";"2";"0";"1"
"979";"30";"17";"1";"10";"1";"1";"11";"1";"[1,2,3,11]";"1";"3";"1"
"980";"30";"18";"1";"10";"1";"1";"11";"1";"[1,2,3,11]";"1";"4";"1"
"981";"6";"20";"1";"4";"1";"1";"11";"2";"[1,2,3,5]";"2";"0";"1"
"982";"9";"20";"1";"7";"1";"1";"11";"1";"[1,2,3,8]";"2";"0";"1"
"983";"6";"21";"1";"4";"1";"1";"11";"2";"[1,2,3,5]";"2";"0";"1"
"984";"9";"21";"1";"7";"1";"1";"11";"1";"[1,2,3,8]";"2";"0";"1"
"985";"30";"1";"1";"10";"1";"1";"12";"1";"[1,2,3,11]";"0";"11";"1"
"986";"35";"1";"1";"36";"1";"1";"12";"1";"[1,2,3,37]";"1";"0";"1"
"987";"15";"2";"1";"30";"1";"1";"12";"2";"[1,2,3,31]";"2";"0";"1"
"988";"38";"2";"1";"3";"1";"1";"12";"2";"[1,2,4]";"2";"0";"1"
"989";"11";"2";"1";"21";"1";"1";"12";"1";"[1,2,3,22]";"2";"0";"1"
"990";"35";"2";"1";"36";"1";"1";"12";"1";"[1,2,3,37]";"1";"0";"1"
"991";"24";"2";"1";"11";"1";"1";"12";"1";"[1,2,3,12]";"2";"0";"1"
"992";"26";"2";"1";"31";"1";"1";"12";"2";"[1,2,3,32]";"2";"0";"1"
"993";"17";"3";"1";"38";"1";"1";"12";"1";"[1,2,3,39]";"2";"0";"1"
"994";"3";"3";"1";"35";"1";"1";"12";"1";"[1,2,3,36]";"2";"0";"1"
"995";"19";"3";"1";"33";"1";"1";"12";"1";"[1,2,3,34]";"2";"0";"1"
"996";"15";"3";"1";"30";"1";"1";"12";"2";"[1,2,3,31]";"2";"0";"1"
"997";"8";"3";"1";"16";"1";"1";"12";"1";"[1,2,3,17]";"2";"0";"1"
"998";"25";"3";"1";"18";"1";"1";"12";"1";"[1,2,3,19]";"2";"0";"1"
"999";"5";"3";"1";"29";"1";"1";"12";"1";"[1,2,3,30]";"2";"0";"1"
"1000";"28";"3";"1";"25";"1";"1";"12";"1";"[1,2,3,26]";"1";"0";"1"
"1001";"38";"3";"1";"3";"1";"1";"12";"2";"[1,2,4]";"2";"0";"1"
"1002";"11";"3";"1";"21";"1";"1";"12";"1";"[1,2,3,22]";"2";"0";"1"
"1003";"27";"3";"1";"40";"1";"1";"12";"2";"[1,2,3]";"2";"0";"1"
"1004";"32";"3";"1";"20";"1";"1";"12";"2";"[1,2,3,21]";"2";"0";"1"
"1005";"36";"3";"1";"39";"1";"1";"12";"2";"[1,2,3,40]";"2";"0";"1"
"1006";"24";"3";"1";"11";"1";"1";"12";"1";"[1,2,3,12]";"2";"0";"1"
"1007";"26";"4";"1";"31";"1";"1";"12";"2";"[1,2,3,32]";"2";"0";"1"
"1008";"16";"4";"1";"9";"1";"1";"12";"1";"[1,2,3,10]";"0";"10";"1"
"1009";"12";"4";"1";"6";"1";"1";"12";"1";"[1,2,3,7]";"2";"0";"1"
"1010";"17";"4";"1";"38";"1";"1";"12";"1";"[1,2,3,39]";"2";"0";"1"
"1011";"3";"4";"1";"35";"1";"1";"12";"1";"[1,2,3,36]";"2";"0";"1"
"1012";"19";"4";"1";"33";"1";"1";"12";"1";"[1,2,3,34]";"2";"0";"1"
"1013";"34";"4";"1";"12";"1";"1";"12";"1";"[1,2,3,13]";"2";"0";"1"
"1014";"8";"4";"1";"16";"1";"1";"12";"1";"[1,2,3,17]";"2";"0";"1"
"1015";"21";"4";"1";"24";"1";"1";"12";"1";"[1,2,3,25]";"2";"0";"1"
"1016";"1";"4";"1";"23";"1";"1";"12";"1";"[1,2,3,24]";"2";"0";"1"
"1017";"25";"4";"1";"18";"1";"1";"12";"1";"[1,2,3,19]";"2";"0";"1"
"1018";"5";"4";"1";"29";"1";"1";"12";"1";"[1,2,3,30]";"2";"0";"1"
"1019";"28";"4";"1";"25";"1";"1";"12";"1";"[1,2,3,26]";"1";"0";"1"
"1020";"14";"4";"1";"13";"1";"1";"12";"2";"[1,2,3,14]";"2";"0";"1"
"1021";"27";"4";"1";"40";"1";"1";"12";"2";"[1,2,3]";"2";"0";"1"
"1022";"32";"4";"1";"20";"1";"1";"12";"2";"[1,2,3,21]";"2";"0";"1"
"1023";"37";"4";"1";"34";"1";"1";"12";"1";"[1,2,3,35]";"1";"0";"1"
"1024";"36";"4";"1";"39";"1";"1";"12";"2";"[1,2,3,40]";"2";"0";"1"
"1025";"18";"4";"1";"28";"1";"1";"12";"1";"[1,2,3,29]";"2";"0";"1"
"1026";"30";"4";"1";"10";"1";"1";"12";"1";"[1,2,3,11]";"1";"11";"1"
"1027";"12";"5";"1";"6";"1";"1";"12";"1";"[1,2,3,7]";"2";"0";"1"
"1028";"34";"5";"1";"12";"1";"1";"12";"1";"[1,2,3,13]";"2";"0";"1"
"1029";"21";"5";"1";"24";"1";"1";"12";"1";"[1,2,3,25]";"2";"0";"1"
"1030";"1";"5";"1";"23";"1";"1";"12";"1";"[1,2,3,24]";"2";"0";"1"
"1031";"14";"5";"1";"13";"1";"1";"12";"2";"[1,2,3,14]";"2";"0";"1"
"1032";"13";"5";"1";"1";"1";"1";"12";"1";"[2,3]";"2";"0";"1"
"1033";"40";"5";"1";"17";"1";"1";"12";"1";"[1,2,3,18]";"2";"0";"1"
"1034";"16";"5";"1";"9";"1";"1";"12";"1";"[1,2,3,10]";"0";"11";"1"
"1035";"37";"5";"1";"34";"1";"1";"12";"1";"[1,2,3,35]";"1";"0";"1"
"1036";"23";"5";"1";"8";"1";"1";"12";"2";"[1,2,3,9]";"2";"0";"1"
"1037";"6";"5";"1";"4";"1";"1";"12";"2";"[1,2,3,5]";"2";"0";"1"
"1038";"4";"5";"1";"19";"1";"1";"12";"2";"[1,2,3,20]";"2";"0";"1"
"1039";"18";"5";"1";"28";"1";"1";"12";"1";"[1,2,3,29]";"2";"0";"1"
"1040";"20";"5";"1";"32";"1";"1";"12";"1";"[1,2,3,33]";"2";"0";"1"
"1041";"30";"5";"1";"10";"1";"1";"12";"1";"[1,2,3,11]";"1";"11";"1"
"1042";"2";"6";"1";"22";"1";"1";"12";"2";"[1,2,3,23]";"2";"0";"1"
"1043";"16";"6";"1";"9";"1";"1";"12";"1";"[1,2,3,10]";"2";"11";"1"
"1044";"13";"6";"1";"1";"1";"1";"12";"1";"[2,3]";"2";"0";"1"
"1045";"40";"6";"1";"17";"1";"1";"12";"1";"[1,2,3,18]";"2";"0";"1"
"1046";"23";"6";"1";"8";"1";"1";"12";"2";"[1,2,3,9]";"2";"0";"1"
"1047";"6";"6";"1";"4";"1";"1";"12";"2";"[1,2,3,5]";"2";"0";"1"
"1048";"4";"6";"1";"19";"1";"1";"12";"2";"[1,2,3,20]";"2";"0";"1"
"1049";"20";"6";"1";"32";"1";"1";"12";"1";"[1,2,3,33]";"2";"0";"1"
"1050";"31";"7";"1";"15";"1";"1";"12";"2";"[1,2,3,16]";"2";"0";"1"
"1051";"33";"7";"1";"37";"1";"1";"12";"1";"[1,2,3,38]";"2";"0";"1"
"1052";"9";"7";"1";"7";"1";"1";"12";"1";"[1,2,3,8]";"2";"0";"1"
"1053";"1";"7";"1";"23";"1";"1";"12";"1";"[1,2,3,24]";"2";"2";"1"
"1054";"2";"7";"1";"22";"1";"1";"12";"2";"[1,2,3,23]";"2";"0";"1"
"1055";"7";"7";"1";"2";"1";"1";"12";"1";"[1,3]";"1";"0";"1"
"1056";"16";"7";"1";"9";"1";"1";"12";"1";"[1,2,3,10]";"2";"11";"1"
"1057";"31";"8";"1";"15";"1";"1";"12";"2";"[1,2,3,16]";"2";"0";"1"
"1058";"9";"8";"1";"7";"1";"1";"12";"1";"[1,2,3,8]";"2";"0";"1"
"1059";"33";"8";"1";"37";"1";"1";"12";"1";"[1,2,3,38]";"2";"0";"1"
"1060";"30";"8";"1";"10";"1";"1";"12";"1";"[1,2,3,11]";"1";"9";"1"
"1061";"22";"8";"1";"26";"1";"1";"12";"1";"[1,2,3,27]";"2";"0";"1"
"1062";"7";"8";"1";"2";"1";"1";"12";"1";"[1,3]";"1";"0";"1"
"1063";"1";"8";"1";"23";"1";"1";"12";"1";"[1,2,3,24]";"2";"1";"1"
"1064";"22";"9";"1";"26";"1";"1";"12";"1";"[1,2,3,27]";"2";"0";"1"
"1065";"1";"10";"1";"23";"1";"1";"12";"1";"[1,2,3,24]";"2";"2";"1"
"1066";"30";"10";"1";"10";"1";"1";"12";"1";"[1,2,3,11]";"1";"6";"1"
"1067";"39";"10";"1";"27";"1";"1";"12";"1";"[1,2,3,28]";"2";"0";"1"
"1068";"39";"11";"1";"27";"1";"1";"12";"1";"[1,2,3,28]";"2";"0";"1"
"1069";"1";"12";"1";"23";"1";"1";"12";"1";"[1,2,3,24]";"2";"3";"1"
"1070";"30";"13";"1";"10";"1";"1";"12";"1";"[1,2,3,11]";"1";"5";"1"
"1071";"1";"13";"1";"23";"1";"1";"12";"1";"[1,2,3,24]";"2";"4";"1"
"1072";"1";"14";"1";"23";"1";"1";"12";"1";"[1,2,3,24]";"2";"6";"1"
"1073";"30";"15";"1";"10";"1";"1";"12";"1";"[1,2,3,11]";"1";"4";"1"
"1074";"1";"15";"1";"23";"1";"1";"12";"1";"[1,2,3,24]";"2";"12";"1"
"1075";"10";"15";"1";"14";"1";"1";"12";"1";"[1,2,3,15]";"1";"0";"1"
"1076";"10";"16";"1";"14";"1";"1";"12";"1";"[1,2,3,15]";"1";"0";"1"
"1077";"30";"18";"1";"10";"1";"1";"12";"1";"[1,2,3,11]";"1";"12";"1"
"1078";"38";"18";"1";"3";"1";"1";"12";"2";"[1,2,4]";"2";"1";"1"
"1079";"38";"20";"1";"3";"1";"1";"12";"2";"[1,2,4]";"2";"3";"1"
"1080";"38";"20";"1";"3";"1";"1";"12";"2";"[1,2,4]";"2";"4";"1"
"1081";"38";"20";"1";"3";"1";"1";"12";"2";"[1,2,4]";"2";"5";"1"
"1082";"38";"21";"1";"3";"1";"1";"12";"2";"[1,2,4]";"2";"6";"1"
"1083";"38";"21";"1";"3";"1";"1";"12";"2";"[1,2,4]";"2";"7";"1"
"1084";"38";"21";"1";"3";"1";"1";"12";"2";"[1,2,4]";"2";"9";"1"
"1085";"38";"21";"1";"3";"1";"1";"12";"2";"[1,2,4]";"2";"10";"1"
"1086";"38";"22";"1";"3";"1";"1";"12";"2";"[1,2,4]";"2";"11";"1"
"1087";"38";"22";"1";"3";"1";"1";"12";"2";"[1,2,4]";"2";"12";"1"
"1088";"29";"24";"1";"5";"1";"1";"12";"1";"[1,2,3,6]";"2";"0";"1"
"1089";"29";"25";"1";"5";"1";"1";"12";"1";"[1,2,3,6]";"2";"0";"1"
"1090";"11";"0";"1";"21";"1";"2";"12";"2";"[1,2,3,22]";"2";"0";"1"
"1091";"35";"0";"1";"14";"1";"2";"12";"2";"[1,2,3,15]";"1";"0";"1"
"1092";"5";"0";"1";"27";"1";"2";"12";"1";"[1,2,3,28]";"2";"0";"1"
"1093";"32";"0";"1";"8";"1";"2";"12";"2";"[1,2,3,9]";"2";"0";"1"
"1094";"1";"0";"1";"36";"1";"2";"12";"2";"[1,2,3,37]";"1";"0";"1"
"1095";"30";"0";"1";"22";"1";"2";"12";"2";"[1,2,3,23]";"2";"0";"1"
"1096";"6";"0";"1";"38";"1";"2";"12";"2";"[1,2,3,39]";"2";"0";"1"
"1097";"19";"0";"1";"5";"1";"2";"12";"2";"[1,2,3,6]";"2";"0";"1"
"1098";"18";"0";"1";"10";"1";"2";"12";"2";"[1,2,3,11]";"1";"12";"1"
"1099";"37";"0";"1";"40";"1";"2";"12";"2";"[1,2,3]";"2";"0";"1"
"1100";"10";"0";"1";"34";"1";"2";"12";"1";"[1,2,3,35]";"1";"0";"1"
"1101";"15";"0";"1";"9";"1";"2";"12";"2";"[1,2,3,10]";"2";"11";"1"
"1102";"34";"0";"1";"29";"1";"2";"12";"2";"[1,2,3,30]";"2";"0";"1"
"1103";"27";"0";"1";"18";"1";"2";"12";"2";"[1,2,3,19]";"2";"0";"1"
"1104";"13";"0";"1";"35";"1";"2";"12";"1";"[1,2,3,36]";"2";"0";"1"
"1105";"2";"0";"1";"28";"1";"2";"12";"1";"[1,2,3,29]";"2";"0";"1"
"1106";"4";"0";"1";"32";"1";"2";"12";"1";"[1,2,3,33]";"2";"0";"1"
"1107";"28";"0";"1";"23";"1";"2";"12";"2";"[1,2,3,24]";"2";"12";"1"
"1108";"8";"0";"1";"24";"1";"2";"12";"2";"[1,2,3,25]";"2";"0";"1"
"1109";"20";"0";"1";"31";"1";"2";"12";"2";"[1,2,3,32]";"2";"0";"1"
"1110";"21";"0";"1";"11";"1";"2";"12";"2";"[1,2,3,12]";"2";"0";"1"
"1111";"36";"0";"1";"20";"1";"2";"12";"1";"[1,2,3,21]";"2";"0";"1"
"1112";"3";"0";"1";"30";"1";"2";"12";"2";"[1,2,3,31]";"2";"0";"1"
"1113";"12";"0";"1";"17";"1";"2";"12";"2";"[1,2,3,18]";"2";"0";"1"
"1114";"22";"0";"1";"3";"1";"2";"12";"2";"[1,2,4]";"2";"12";"1"
"1115";"9";"0";"1";"6";"1";"2";"12";"1";"[1,2,3,7]";"2";"0";"1"
"1116";"25";"0";"1";"12";"1";"2";"12";"2";"[1,2,3,13]";"2";"0";"1"
"1117";"38";"0";"1";"33";"1";"2";"12";"2";"[1,2,3,34]";"2";"0";"1"
"1118";"23";"0";"1";"1";"1";"2";"12";"2";"[2,3]";"2";"0";"1"
"1119";"40";"0";"1";"16";"1";"2";"12";"1";"[1,2,3,17]";"2";"0";"1"
"1120";"7";"0";"1";"26";"1";"2";"12";"2";"[1,2,3,27]";"2";"0";"1"
"1121";"14";"0";"1";"2";"1";"2";"12";"1";"[1,3]";"1";"0";"1"
"1122";"26";"0";"1";"13";"1";"2";"12";"1";"[1,2,3,14]";"2";"0";"1"
"1123";"31";"0";"1";"37";"1";"2";"12";"2";"[1,2,3,38]";"2";"0";"1"
"1124";"29";"0";"1";"25";"1";"2";"12";"1";"[1,2,3,26]";"1";"0";"1"
"1125";"24";"0";"1";"4";"1";"2";"12";"2";"[1,2,3,5]";"2";"0";"1"
"1126";"39";"0";"1";"15";"1";"2";"12";"1";"[1,2,3,16]";"2";"0";"1"
"1127";"33";"0";"1";"39";"1";"2";"12";"2";"[1,2,3,40]";"2";"0";"1"
"1128";"16";"0";"1";"7";"1";"2";"12";"2";"[1,2,3,8]";"2";"0";"1"
"1129";"17";"0";"1";"19";"1";"2";"12";"1";"[1,2,3,20]";"2";"0";"1"
"1130";"32";"2";"1";"8";"1";"2";"1";"2";"[1,2,3,9]";"2";"0";"1"
"1131";"32";"3";"1";"8";"1";"2";"1";"2";"[1,2,3,9]";"2";"0";"1"
"1132";"36";"3";"1";"20";"1";"2";"1";"1";"[1,2,3,21]";"1";"0";"1"
"1133";"1";"3";"1";"36";"1";"2";"1";"2";"[1,2,3,37]";"2";"0";"1"
"1134";"5";"3";"1";"27";"1";"2";"1";"1";"[1,2,3,28]";"2";"0";"1"
"1135";"3";"3";"1";"30";"1";"2";"1";"2";"[1,2,3,31]";"2";"0";"1"
"1136";"33";"4";"1";"39";"1";"2";"1";"2";"[1,2,3,40]";"2";"0";"1"
"1137";"19";"4";"1";"5";"1";"2";"1";"2";"[1,2,3,6]";"2";"0";"1"
"1138";"36";"4";"1";"20";"1";"2";"1";"1";"[1,2,3,21]";"1";"0";"1"
"1139";"1";"4";"1";"36";"1";"2";"1";"2";"[1,2,3,37]";"2";"0";"1"
"1140";"29";"4";"1";"25";"1";"2";"1";"1";"[1,2,3,26]";"1";"0";"1"
"1141";"5";"4";"1";"27";"1";"2";"1";"1";"[1,2,3,28]";"2";"0";"1"
"1142";"25";"4";"1";"12";"1";"2";"1";"2";"[1,2,3,13]";"2";"0";"1"
"1143";"17";"4";"1";"19";"1";"2";"1";"1";"[1,2,3,20]";"1";"0";"1"
"1144";"3";"4";"1";"30";"1";"2";"1";"2";"[1,2,3,31]";"2";"0";"1"
"1145";"20";"4";"1";"31";"1";"2";"1";"2";"[1,2,3,32]";"2";"0";"1"
"1146";"11";"4";"1";"21";"1";"2";"1";"2";"[1,2,3,22]";"2";"0";"1"
"1147";"27";"4";"1";"18";"1";"2";"1";"2";"[1,2,3,19]";"2";"0";"1"
"1148";"30";"4";"1";"22";"1";"2";"1";"2";"[1,2,3,23]";"2";"0";"1"
"1149";"26";"5";"1";"13";"1";"2";"1";"1";"[1,2,3,14]";"1";"0";"1"
"1150";"33";"5";"1";"39";"1";"2";"1";"2";"[1,2,3,40]";"2";"0";"1"
"1151";"28";"5";"1";"23";"1";"2";"1";"2";"[1,2,3,24]";"2";"0";"1"
"1152";"23";"5";"1";"1";"1";"2";"1";"2";"[2,3]";"2";"0";"1"
"1153";"19";"5";"1";"5";"1";"2";"1";"2";"[1,2,3,6]";"2";"0";"1"
"1154";"29";"5";"1";"25";"1";"2";"1";"1";"[1,2,3,26]";"1";"0";"1"
"1155";"25";"5";"1";"12";"1";"2";"1";"2";"[1,2,3,13]";"2";"0";"1"
"1156";"17";"5";"1";"19";"1";"2";"1";"1";"[1,2,3,20]";"1";"0";"1"
"1157";"20";"5";"1";"31";"1";"2";"1";"2";"[1,2,3,32]";"2";"0";"1"
"1158";"11";"5";"1";"21";"1";"2";"1";"2";"[1,2,3,22]";"2";"0";"1"
"1159";"27";"5";"1";"18";"1";"2";"1";"2";"[1,2,3,19]";"2";"0";"1"
"1160";"30";"5";"1";"22";"1";"2";"1";"2";"[1,2,3,23]";"2";"0";"1"
"1161";"26";"6";"1";"13";"1";"2";"1";"1";"[1,2,3,14]";"1";"0";"1"
"1162";"28";"6";"1";"23";"1";"2";"1";"2";"[1,2,3,24]";"2";"0";"1"
"1163";"35";"6";"1";"14";"1";"2";"1";"2";"[1,2,3,15]";"2";"0";"1"
"1164";"23";"6";"1";"1";"1";"2";"1";"2";"[2,3]";"2";"0";"1"
"1165";"15";"7";"1";"9";"1";"2";"1";"2";"[1,2,3,10]";"2";"0";"1"
"1166";"2";"7";"1";"28";"1";"2";"1";"1";"[1,2,3,29]";"1";"0";"1"
"1167";"21";"7";"1";"11";"1";"2";"1";"2";"[1,2,3,12]";"2";"0";"1"
"1168";"12";"7";"1";"17";"1";"2";"1";"2";"[1,2,3,18]";"2";"0";"1"
"1169";"6";"7";"1";"38";"1";"2";"1";"2";"[1,2,3,39]";"2";"0";"1"
"1170";"35";"7";"1";"14";"1";"2";"1";"2";"[1,2,3,15]";"2";"0";"1"
"1171";"14";"7";"1";"2";"1";"2";"1";"1";"[1,3]";"1";"0";"1"
"1172";"8";"7";"1";"24";"1";"2";"1";"2";"[1,2,3,25]";"2";"0";"1"
"1173";"2";"8";"1";"28";"1";"2";"1";"1";"[1,2,3,29]";"1";"0";"1"
"1174";"15";"8";"1";"9";"1";"2";"1";"2";"[1,2,3,10]";"2";"0";"1"
"1175";"22";"8";"1";"3";"1";"2";"1";"2";"[1,2,4]";"2";"0";"1"
"1176";"21";"8";"1";"11";"1";"2";"1";"2";"[1,2,3,12]";"2";"0";"1"
"1177";"12";"8";"1";"17";"1";"2";"1";"2";"[1,2,3,18]";"2";"0";"1"
"1178";"6";"8";"1";"38";"1";"2";"1";"2";"[1,2,3,39]";"2";"0";"1"
"1179";"14";"8";"1";"2";"1";"2";"1";"1";"[1,3]";"1";"0";"1"
"1180";"8";"8";"1";"24";"1";"2";"1";"2";"[1,2,3,25]";"2";"0";"1"
"1181";"10";"9";"1";"34";"1";"2";"1";"1";"[1,2,3,35]";"2";"0";"1"
"1182";"22";"9";"1";"3";"1";"2";"1";"2";"[1,2,4]";"2";"0";"1"
"1183";"16";"9";"1";"7";"1";"2";"1";"2";"[1,2,3,8]";"2";"0";"1"
"1184";"10";"10";"1";"34";"1";"2";"1";"1";"[1,2,3,35]";"2";"0";"1"
"1185";"4";"10";"1";"32";"1";"2";"1";"1";"[1,2,3,33]";"1";"0";"1"
"1186";"37";"10";"1";"40";"1";"2";"1";"2";"[1,2,3]";"2";"0";"1"
"1187";"16";"10";"1";"7";"1";"2";"1";"2";"[1,2,3,8]";"2";"0";"1"
"1188";"13";"10";"1";"35";"1";"2";"1";"1";"[1,2,3,36]";"2";"0";"1"
"1189";"4";"11";"1";"32";"1";"2";"1";"1";"[1,2,3,33]";"1";"0";"1"
"1190";"31";"11";"1";"37";"1";"2";"1";"2";"[1,2,3,38]";"2";"0";"1"
"1191";"37";"11";"1";"40";"1";"2";"1";"2";"[1,2,3]";"2";"0";"1"
"1192";"9";"11";"1";"6";"1";"2";"1";"1";"[1,2,3,7]";"1";"0";"1"
"1193";"13";"11";"1";"35";"1";"2";"1";"1";"[1,2,3,36]";"2";"0";"1"
"1194";"18";"11";"1";"10";"1";"2";"1";"2";"[1,2,3,11]";"2";"0";"1"
"1195";"31";"12";"1";"37";"1";"2";"1";"2";"[1,2,3,38]";"2";"0";"1"
"1196";"9";"12";"1";"6";"1";"2";"1";"1";"[1,2,3,7]";"1";"0";"1"
"1197";"18";"12";"1";"10";"1";"2";"1";"2";"[1,2,3,11]";"2";"0";"1"
"1198";"34";"13";"1";"29";"1";"2";"1";"2";"[1,2,3,30]";"2";"0";"1"
"1199";"7";"14";"1";"26";"1";"2";"1";"2";"[1,2,3,27]";"2";"0";"1"
"1200";"34";"14";"1";"29";"1";"2";"1";"2";"[1,2,3,30]";"2";"0";"1"
"1201";"7";"15";"1";"26";"1";"2";"1";"2";"[1,2,3,27]";"2";"0";"1"
"1202";"39";"16";"1";"15";"1";"2";"1";"1";"[1,2,3,16]";"1";"0";"1"
"1203";"39";"17";"1";"15";"1";"2";"1";"1";"[1,2,3,16]";"1";"0";"1"
"1204";"40";"17";"1";"16";"1";"2";"1";"1";"[1,2,3,17]";"1";"0";"1"
"1205";"38";"18";"1";"33";"1";"2";"1";"2";"[1,2,3,34]";"2";"0";"1"
"1206";"40";"18";"1";"16";"1";"2";"1";"1";"[1,2,3,17]";"1";"0";"1"
"1207";"38";"19";"1";"33";"1";"2";"1";"2";"[1,2,3,34]";"2";"0";"1"
"1208";"24";"30";"1";"4";"1";"2";"1";"2";"[1,2,3,5]";"0";"0";"1"
"1209";"0";"30";"1";"4";"1";"2";"1";"2";"[1,2,3,5]";"2";"0";"0"
"1210";"32";"2";"1";"8";"1";"2";"2";"2";"[1,2,3,9]";"2";"0";"1"
"1211";"34";"2";"1";"29";"1";"2";"2";"2";"[1,2,3,30]";"2";"0";"1"
"1212";"3";"3";"1";"30";"1";"2";"2";"2";"[1,2,3,31]";"2";"0";"1"
"1213";"37";"3";"1";"40";"1";"2";"2";"2";"[1,2,3]";"2";"0";"1"
"1214";"28";"3";"1";"23";"1";"2";"2";"2";"[1,2,3,24]";"2";"0";"1"
"1215";"32";"3";"1";"8";"1";"2";"2";"2";"[1,2,3,9]";"2";"0";"1"
"1216";"34";"3";"1";"29";"1";"2";"2";"2";"[1,2,3,30]";"2";"0";"1"
"1217";"3";"4";"1";"30";"1";"2";"2";"2";"[1,2,3,31]";"2";"0";"1"
"1218";"1";"4";"1";"36";"1";"2";"2";"2";"[1,2,3,37]";"2";"0";"1"
"1219";"11";"4";"1";"21";"1";"2";"2";"2";"[1,2,3,22]";"2";"0";"1"
"1220";"37";"4";"1";"40";"1";"2";"2";"2";"[1,2,3]";"2";"0";"1"
"1221";"28";"4";"1";"23";"1";"2";"2";"2";"[1,2,3,24]";"2";"0";"1"
"1222";"25";"4";"1";"12";"1";"2";"2";"2";"[1,2,3,13]";"2";"0";"1"
"1223";"1";"5";"1";"36";"1";"2";"2";"2";"[1,2,3,37]";"2";"0";"1"
"1224";"11";"5";"1";"21";"1";"2";"2";"2";"[1,2,3,22]";"2";"0";"1"
"1225";"25";"5";"1";"12";"1";"2";"2";"2";"[1,2,3,13]";"2";"0";"1"
"1226";"22";"6";"1";"3";"1";"2";"2";"2";"[1,2,4]";"2";"0";"1"
"1227";"35";"6";"1";"14";"1";"2";"2";"2";"[1,2,3,15]";"2";"0";"1"
"1228";"22";"7";"1";"3";"1";"2";"2";"2";"[1,2,4]";"2";"0";"1"
"1229";"14";"7";"1";"2";"1";"2";"2";"1";"[1,3]";"1";"0";"1"
"1230";"29";"7";"1";"25";"1";"2";"2";"1";"[1,2,3,26]";"2";"0";"1"
"1231";"4";"7";"1";"32";"1";"2";"2";"1";"[1,2,3,33]";"1";"0";"1"
"1232";"35";"7";"1";"14";"1";"2";"2";"2";"[1,2,3,15]";"2";"0";"1"
"1233";"12";"8";"1";"17";"1";"2";"2";"2";"[1,2,3,18]";"2";"0";"1"
"1234";"14";"8";"1";"2";"1";"2";"2";"1";"[1,3]";"1";"0";"1"
"1235";"29";"8";"1";"25";"1";"2";"2";"1";"[1,2,3,26]";"2";"0";"1"
"1236";"8";"8";"1";"24";"1";"2";"2";"2";"[1,2,3,25]";"1";"0";"1"
"1237";"4";"8";"1";"32";"1";"2";"2";"1";"[1,2,3,33]";"1";"0";"1"
"1238";"5";"8";"1";"27";"1";"2";"2";"1";"[1,2,3,28]";"2";"0";"1"
"1239";"16";"8";"1";"7";"1";"2";"2";"2";"[1,2,3,8]";"2";"0";"1"
"1240";"17";"8";"1";"19";"1";"2";"2";"1";"[1,2,3,20]";"1";"0";"1"
"1241";"15";"8";"1";"9";"1";"2";"2";"2";"[1,2,3,10]";"1";"0";"1"
"1242";"12";"9";"1";"17";"1";"2";"2";"2";"[1,2,3,18]";"2";"0";"1"
"1243";"8";"9";"1";"24";"1";"2";"2";"2";"[1,2,3,25]";"1";"0";"1"
"1244";"5";"9";"1";"27";"1";"2";"2";"1";"[1,2,3,28]";"2";"0";"1"
"1245";"38";"9";"1";"33";"1";"2";"2";"2";"[1,2,3,34]";"2";"0";"1"
"1246";"16";"9";"1";"7";"1";"2";"2";"2";"[1,2,3,8]";"2";"0";"1"
"1247";"17";"9";"1";"19";"1";"2";"2";"1";"[1,2,3,20]";"1";"0";"1"
"1248";"15";"9";"1";"9";"1";"2";"2";"2";"[1,2,3,10]";"1";"0";"1"
"1249";"31";"10";"1";"37";"1";"2";"2";"2";"[1,2,3,38]";"1";"0";"1"
"1250";"27";"10";"1";"18";"1";"2";"2";"2";"[1,2,3,19]";"2";"0";"1"
"1251";"13";"10";"1";"35";"1";"2";"2";"1";"[1,2,3,36]";"1";"0";"1"
"1252";"38";"10";"1";"33";"1";"2";"2";"2";"[1,2,3,34]";"2";"0";"1"
"1253";"6";"10";"1";"38";"1";"2";"2";"2";"[1,2,3,39]";"2";"0";"1"
"1254";"23";"11";"1";"1";"1";"2";"2";"2";"[2,3]";"2";"0";"1"
"1255";"31";"11";"1";"37";"1";"2";"2";"2";"[1,2,3,38]";"1";"0";"1"
"1256";"20";"11";"1";"31";"1";"2";"2";"2";"[1,2,3,32]";"2";"0";"1"
"1257";"27";"11";"1";"18";"1";"2";"2";"2";"[1,2,3,19]";"2";"0";"1"
"1258";"13";"11";"1";"35";"1";"2";"2";"1";"[1,2,3,36]";"1";"0";"1"
"1259";"6";"11";"1";"38";"1";"2";"2";"2";"[1,2,3,39]";"2";"0";"1"
"1260";"23";"12";"1";"1";"1";"2";"2";"2";"[2,3]";"2";"0";"1"
"1261";"39";"12";"1";"15";"1";"2";"2";"1";"[1,2,3,16]";"1";"0";"1"
"1262";"20";"12";"1";"31";"1";"2";"2";"2";"[1,2,3,32]";"2";"0";"1"
"1263";"21";"12";"1";"11";"1";"2";"2";"2";"[1,2,3,12]";"2";"0";"1"
"1264";"39";"13";"1";"15";"1";"2";"2";"1";"[1,2,3,16]";"1";"0";"1"
"1265";"21";"13";"1";"11";"1";"2";"2";"2";"[1,2,3,12]";"2";"0";"1"
"1266";"26";"13";"1";"13";"1";"2";"2";"1";"[1,2,3,14]";"2";"0";"1"
"1267";"36";"13";"1";"20";"1";"2";"2";"1";"[1,2,3,21]";"2";"0";"1"
"1268";"33";"14";"1";"39";"1";"2";"2";"2";"[1,2,3,40]";"2";"0";"1"
"1269";"26";"14";"1";"13";"1";"2";"2";"1";"[1,2,3,14]";"2";"0";"1"
"1270";"36";"15";"1";"20";"1";"2";"2";"1";"[1,2,3,21]";"2";"0";"1"
"1271";"33";"15";"1";"39";"1";"2";"2";"2";"[1,2,3,40]";"2";"0";"1"
"1272";"7";"15";"1";"26";"1";"2";"2";"2";"[1,2,3,27]";"2";"0";"1"
"1273";"19";"16";"1";"5";"1";"2";"2";"2";"[1,2,3,6]";"2";"0";"1"
"1274";"7";"16";"1";"26";"1";"2";"2";"2";"[1,2,3,27]";"2";"0";"1"
"1275";"19";"17";"1";"5";"1";"2";"2";"2";"[1,2,3,6]";"2";"0";"1"
"1276";"40";"20";"1";"16";"1";"2";"2";"1";"[1,2,3,17]";"1";"0";"1"
"1277";"2";"20";"1";"28";"1";"2";"2";"1";"[1,2,3,29]";"2";"0";"1"
"1278";"10";"20";"1";"34";"1";"2";"2";"1";"[1,2,3,35]";"2";"0";"1"
"1279";"40";"21";"1";"16";"1";"2";"2";"1";"[1,2,3,17]";"1";"0";"1"
"1280";"2";"21";"1";"28";"1";"2";"2";"1";"[1,2,3,29]";"2";"0";"1"
"1281";"10";"21";"1";"34";"1";"2";"2";"1";"[1,2,3,35]";"2";"0";"1"
"1282";"18";"22";"1";"10";"1";"2";"2";"2";"[1,2,3,11]";"2";"0";"1"
"1283";"30";"22";"1";"22";"1";"2";"2";"2";"[1,2,3,23]";"1";"0";"1"
"1284";"18";"23";"1";"10";"1";"2";"2";"2";"[1,2,3,11]";"2";"0";"1"
"1285";"30";"23";"1";"22";"1";"2";"2";"2";"[1,2,3,23]";"1";"0";"1"
"1286";"24";"25";"1";"4";"1";"2";"2";"2";"[1,2,3,5]";"2";"0";"1"
"1287";"24";"26";"1";"4";"1";"2";"2";"2";"[1,2,3,5]";"2";"0";"1"
"1288";"9";"27";"1";"6";"1";"2";"2";"1";"[1,2,3,7]";"1";"0";"1"
"1289";"9";"28";"1";"6";"1";"2";"2";"1";"[1,2,3,7]";"1";"0";"1"
"1290";"35";"2";"1";"14";"1";"2";"3";"2";"[1,2,3,15]";"2";"0";"1"
"1291";"22";"2";"1";"3";"1";"2";"3";"2";"[1,2,4]";"1";"0";"1"
"1292";"1";"2";"1";"36";"1";"2";"3";"2";"[1,2,3,37]";"2";"0";"1"
"1293";"12";"2";"1";"17";"1";"2";"3";"2";"[1,2,3,18]";"2";"0";"1"
"1294";"3";"3";"1";"30";"1";"2";"3";"2";"[1,2,3,31]";"2";"0";"1"
"1295";"26";"3";"1";"13";"1";"2";"3";"1";"[1,2,3,14]";"2";"0";"1"
"1296";"35";"3";"1";"14";"1";"2";"3";"2";"[1,2,3,15]";"2";"0";"1"
"1297";"32";"3";"1";"8";"1";"2";"3";"2";"[1,2,3,9]";"2";"0";"1"
"1298";"22";"3";"1";"3";"1";"2";"3";"2";"[1,2,4]";"1";"0";"1"
"1299";"1";"3";"1";"36";"1";"2";"3";"2";"[1,2,3,37]";"2";"0";"1"
"1300";"28";"3";"1";"23";"1";"2";"3";"2";"[1,2,3,24]";"2";"0";"1"
"1301";"10";"3";"1";"34";"1";"2";"3";"1";"[1,2,3,35]";"1";"0";"1"
"1302";"37";"3";"1";"40";"1";"2";"3";"2";"[1,2,3]";"2";"0";"1"
"1303";"12";"3";"1";"17";"1";"2";"3";"2";"[1,2,3,18]";"2";"0";"1"
"1304";"27";"4";"1";"18";"1";"2";"3";"2";"[1,2,3,19]";"2";"0";"1"
"1305";"3";"4";"1";"30";"1";"2";"3";"2";"[1,2,3,31]";"2";"0";"1"
"1306";"26";"4";"1";"13";"1";"2";"3";"1";"[1,2,3,14]";"2";"0";"1"
"1307";"21";"4";"1";"11";"1";"2";"3";"2";"[1,2,3,12]";"2";"0";"1"
"1308";"24";"4";"1";"4";"1";"2";"3";"2";"[1,2,3,5]";"2";"0";"1"
"1309";"32";"4";"1";"8";"1";"2";"3";"2";"[1,2,3,9]";"2";"0";"1"
"1310";"28";"4";"1";"23";"1";"2";"3";"2";"[1,2,3,24]";"2";"0";"1"
"1311";"20";"4";"1";"31";"1";"2";"3";"2";"[1,2,3,32]";"2";"0";"1"
"1312";"19";"4";"1";"5";"1";"2";"3";"2";"[1,2,3,6]";"2";"0";"1"
"1313";"6";"4";"1";"38";"1";"2";"3";"2";"[1,2,3,39]";"2";"0";"1"
"1314";"34";"4";"1";"29";"1";"2";"3";"2";"[1,2,3,30]";"2";"0";"1"
"1315";"10";"4";"1";"34";"1";"2";"3";"1";"[1,2,3,35]";"1";"0";"1"
"1316";"37";"4";"1";"40";"1";"2";"3";"2";"[1,2,3]";"2";"0";"1"
"1317";"5";"5";"1";"27";"1";"2";"3";"1";"[1,2,3,28]";"2";"0";"1"
"1318";"16";"5";"1";"7";"1";"2";"3";"2";"[1,2,3,8]";"0";"1";"1"
"1319";"27";"5";"1";"18";"1";"2";"3";"2";"[1,2,3,19]";"2";"0";"1"
"1320";"21";"5";"1";"11";"1";"2";"3";"2";"[1,2,3,12]";"2";"0";"1"
"1321";"24";"5";"1";"4";"1";"2";"3";"2";"[1,2,3,5]";"2";"0";"1"
"1322";"38";"5";"1";"33";"1";"2";"3";"2";"[1,2,3,34]";"0";"1";"1"
"1323";"20";"5";"1";"31";"1";"2";"3";"2";"[1,2,3,32]";"2";"0";"1"
"1324";"19";"5";"1";"5";"1";"2";"3";"2";"[1,2,3,6]";"2";"0";"1"
"1325";"6";"5";"1";"38";"1";"2";"3";"2";"[1,2,3,39]";"2";"0";"1"
"1326";"34";"5";"1";"29";"1";"2";"3";"2";"[1,2,3,30]";"2";"0";"1"
"1327";"11";"5";"1";"21";"1";"2";"3";"2";"[1,2,3,22]";"1";"0";"1"
"1328";"5";"6";"1";"27";"1";"2";"3";"1";"[1,2,3,28]";"2";"0";"1"
"1329";"14";"6";"1";"2";"1";"2";"3";"1";"[1,3]";"1";"0";"1"
"1330";"16";"6";"1";"7";"1";"2";"3";"2";"[1,2,3,8]";"0";"3";"1"
"1331";"38";"6";"1";"33";"1";"2";"3";"2";"[1,2,3,34]";"0";"2";"1"
"1332";"25";"6";"1";"12";"1";"2";"3";"2";"[1,2,3,13]";"2";"0";"1"
"1333";"15";"6";"1";"9";"1";"2";"3";"2";"[1,2,3,10]";"2";"0";"1"
"1334";"7";"6";"1";"26";"1";"2";"3";"2";"[1,2,3,27]";"1";"0";"1"
"1335";"11";"6";"1";"21";"1";"2";"3";"2";"[1,2,3,22]";"1";"0";"1"
"1336";"17";"7";"1";"19";"1";"2";"3";"1";"[1,2,3,20]";"2";"0";"1"
"1337";"14";"7";"1";"2";"1";"2";"3";"1";"[1,3]";"1";"0";"1"
"1338";"38";"7";"1";"33";"1";"2";"3";"2";"[1,2,3,34]";"0";"1";"1"
"1339";"13";"7";"1";"35";"1";"2";"3";"1";"[1,2,3,36]";"1";"0";"1"
"1340";"25";"7";"1";"12";"1";"2";"3";"2";"[1,2,3,13]";"2";"0";"1"
"1341";"15";"7";"1";"9";"1";"2";"3";"2";"[1,2,3,10]";"2";"0";"1"
"1342";"7";"7";"1";"26";"1";"2";"3";"2";"[1,2,3,27]";"1";"0";"1"
"1343";"16";"7";"1";"7";"1";"2";"3";"2";"[1,2,3,8]";"2";"3";"1"
"1344";"2";"7";"1";"28";"1";"2";"3";"1";"[1,2,3,29]";"1";"0";"1"
"1345";"38";"8";"1";"33";"1";"2";"3";"2";"[1,2,3,34]";"0";"2";"1"
"1346";"17";"8";"1";"19";"1";"2";"3";"1";"[1,2,3,20]";"2";"0";"1"
"1347";"13";"8";"1";"35";"1";"2";"3";"1";"[1,2,3,36]";"1";"0";"1"
"1348";"30";"8";"1";"22";"1";"2";"3";"2";"[1,2,3,23]";"2";"0";"1"
"1349";"16";"8";"1";"7";"1";"2";"3";"2";"[1,2,3,8]";"2";"3";"1"
"1350";"2";"8";"1";"28";"1";"2";"3";"1";"[1,2,3,29]";"1";"0";"1"
"1351";"30";"9";"1";"22";"1";"2";"3";"2";"[1,2,3,23]";"2";"0";"1"
"1352";"31";"10";"1";"37";"1";"2";"3";"2";"[1,2,3,38]";"1";"0";"1"
"1353";"39";"10";"1";"15";"1";"2";"3";"1";"[1,2,3,16]";"1";"0";"1"
"1354";"29";"10";"1";"25";"1";"2";"3";"1";"[1,2,3,26]";"2";"0";"1"
"1355";"31";"11";"1";"37";"1";"2";"3";"2";"[1,2,3,38]";"1";"0";"1"
"1356";"39";"11";"1";"15";"1";"2";"3";"1";"[1,2,3,16]";"1";"0";"1"
"1357";"29";"11";"1";"25";"1";"2";"3";"1";"[1,2,3,26]";"2";"0";"1"
"1358";"18";"12";"1";"10";"1";"2";"3";"2";"[1,2,3,11]";"1";"0";"1"
"1359";"33";"13";"1";"39";"1";"2";"3";"2";"[1,2,3,40]";"2";"0";"1"
"1360";"8";"13";"1";"24";"1";"2";"3";"2";"[1,2,3,25]";"1";"0";"1"
"1361";"18";"13";"1";"10";"1";"2";"3";"2";"[1,2,3,11]";"1";"0";"1"
"1362";"23";"13";"1";"1";"1";"2";"3";"2";"[2,3]";"2";"0";"1"
"1363";"33";"14";"1";"39";"1";"2";"3";"2";"[1,2,3,40]";"2";"0";"1"
"1364";"8";"14";"1";"24";"1";"2";"3";"2";"[1,2,3,25]";"1";"0";"1"
"1365";"4";"14";"1";"32";"1";"2";"3";"1";"[1,2,3,33]";"1";"0";"1"
"1366";"23";"14";"1";"1";"1";"2";"3";"2";"[2,3]";"2";"0";"1"
"1367";"40";"15";"1";"16";"1";"2";"3";"1";"[1,2,3,17]";"1";"0";"1"
"1368";"4";"15";"1";"32";"1";"2";"3";"1";"[1,2,3,33]";"1";"0";"1"
"1369";"40";"16";"1";"16";"1";"2";"3";"1";"[1,2,3,17]";"1";"0";"1"
"1370";"6";"16";"1";"38";"1";"2";"3";"2";"[1,2,3,39]";"2";"1";"1"
"1371";"6";"18";"1";"38";"1";"2";"3";"2";"[1,2,3,39]";"2";"2";"1"
"1372";"36";"19";"1";"20";"1";"2";"3";"1";"[1,2,3,21]";"2";"0";"1"
"1373";"36";"20";"1";"20";"1";"2";"3";"1";"[1,2,3,21]";"2";"0";"1"
"1374";"38";"21";"1";"33";"1";"2";"3";"2";"[1,2,3,34]";"2";"2";"1"
"1375";"38";"22";"1";"33";"1";"2";"3";"2";"[1,2,3,34]";"2";"2";"1"
"1376";"1";"23";"1";"36";"1";"2";"3";"2";"[1,2,3,37]";"2";"1";"1"
"1377";"9";"23";"1";"6";"1";"2";"3";"1";"[1,2,3,7]";"1";"0";"1"
"1378";"9";"24";"1";"6";"1";"2";"3";"1";"[1,2,3,7]";"1";"0";"1"
"1379";"1";"0";"1";"36";"1";"2";"4";"2";"[1,2,3,37]";"0";"3";"1"
"1380";"35";"1";"1";"14";"1";"2";"4";"2";"[1,2,3,15]";"2";"0";"1"
"1381";"32";"2";"1";"8";"1";"2";"4";"2";"[1,2,3,9]";"2";"0";"1"
"1382";"35";"2";"1";"14";"1";"2";"4";"2";"[1,2,3,15]";"2";"0";"1"
"1383";"28";"3";"1";"23";"1";"2";"4";"2";"[1,2,3,24]";"2";"0";"1"
"1384";"12";"3";"1";"17";"1";"2";"4";"2";"[1,2,3,18]";"1";"0";"1"
"1385";"32";"3";"1";"8";"1";"2";"4";"2";"[1,2,3,9]";"2";"0";"1"
"1386";"1";"3";"1";"36";"1";"2";"4";"2";"[1,2,3,37]";"2";"3";"1"
"1387";"11";"3";"1";"21";"1";"2";"4";"2";"[1,2,3,22]";"1";"0";"1"
"1388";"19";"3";"1";"5";"1";"2";"4";"2";"[1,2,3,6]";"1";"0";"1"
"1389";"25";"3";"1";"12";"1";"2";"4";"2";"[1,2,3,13]";"2";"0";"1"
"1390";"28";"4";"1";"23";"1";"2";"4";"2";"[1,2,3,24]";"2";"0";"1"
"1391";"37";"4";"1";"40";"1";"2";"4";"2";"[1,2,3]";"2";"0";"1"
"1392";"16";"4";"1";"7";"1";"2";"4";"2";"[1,2,3,8]";"0";"2";"1"
"1393";"30";"4";"1";"22";"1";"2";"4";"2";"[1,2,3,23]";"2";"0";"1"
"1394";"12";"4";"1";"17";"1";"2";"4";"2";"[1,2,3,18]";"1";"0";"1"
"1395";"1";"4";"1";"36";"1";"2";"4";"2";"[1,2,3,37]";"2";"3";"1"
"1396";"11";"4";"1";"21";"1";"2";"4";"2";"[1,2,3,22]";"1";"0";"1"
"1397";"19";"4";"1";"5";"1";"2";"4";"2";"[1,2,3,6]";"1";"0";"1"
"1398";"36";"4";"1";"20";"1";"2";"4";"1";"[1,2,3,21]";"1";"0";"1"
"1399";"25";"4";"1";"12";"1";"2";"4";"2";"[1,2,3,13]";"2";"0";"1"
"1400";"5";"4";"1";"27";"1";"2";"4";"1";"[1,2,3,28]";"1";"0";"1"
"1401";"15";"4";"1";"9";"1";"2";"4";"2";"[1,2,3,10]";"1";"0";"1"
"1402";"6";"4";"1";"38";"1";"2";"4";"2";"[1,2,3,39]";"0";"2";"1"
"1403";"33";"4";"1";"39";"1";"2";"4";"2";"[1,2,3,40]";"1";"0";"1"
"1404";"37";"5";"1";"40";"1";"2";"4";"2";"[1,2,3]";"2";"0";"1"
"1405";"27";"5";"1";"18";"1";"2";"4";"2";"[1,2,3,19]";"2";"0";"1"
"1406";"30";"5";"1";"22";"1";"2";"4";"2";"[1,2,3,23]";"2";"0";"1"
"1407";"36";"5";"1";"20";"1";"2";"4";"1";"[1,2,3,21]";"1";"0";"1"
"1408";"5";"5";"1";"27";"1";"2";"4";"1";"[1,2,3,28]";"1";"0";"1"
"1409";"16";"5";"1";"7";"1";"2";"4";"2";"[1,2,3,8]";"0";"3";"1"
"1410";"15";"5";"1";"9";"1";"2";"4";"2";"[1,2,3,10]";"1";"0";"1"
"1411";"22";"5";"1";"3";"1";"2";"4";"2";"[1,2,4]";"2";"0";"1"
"1412";"33";"6";"1";"39";"1";"2";"4";"2";"[1,2,3,40]";"1";"0";"1"
"1413";"27";"6";"1";"18";"1";"2";"4";"2";"[1,2,3,19]";"2";"0";"1"
"1414";"17";"6";"1";"19";"1";"2";"4";"1";"[1,2,3,20]";"1";"0";"1"
"1415";"34";"6";"1";"29";"1";"2";"4";"2";"[1,2,3,30]";"2";"0";"1"
"1416";"7";"6";"1";"26";"1";"2";"4";"2";"[1,2,3,27]";"2";"0";"1"
"1417";"22";"7";"1";"3";"1";"2";"4";"2";"[1,2,4]";"2";"0";"1"
"1418";"17";"7";"1";"19";"1";"2";"4";"1";"[1,2,3,20]";"1";"0";"1"
"1419";"10";"7";"1";"34";"1";"2";"4";"1";"[1,2,3,35]";"1";"0";"1"
"1420";"34";"7";"1";"29";"1";"2";"4";"2";"[1,2,3,30]";"2";"0";"1"
"1421";"13";"7";"1";"35";"1";"2";"4";"1";"[1,2,3,36]";"1";"0";"1"
"1422";"21";"7";"1";"11";"1";"2";"4";"2";"[1,2,3,12]";"1";"0";"1"
"1423";"7";"7";"1";"26";"1";"2";"4";"2";"[1,2,3,27]";"2";"0";"1"
"1424";"39";"7";"1";"15";"1";"2";"4";"1";"[1,2,3,16]";"1";"0";"1"
"1425";"16";"7";"1";"7";"1";"2";"4";"2";"[1,2,3,8]";"2";"3";"1"
"1426";"31";"8";"1";"37";"1";"2";"4";"2";"[1,2,3,38]";"2";"0";"1"
"1427";"10";"8";"1";"34";"1";"2";"4";"1";"[1,2,3,35]";"1";"0";"1"
"1428";"13";"8";"1";"35";"1";"2";"4";"1";"[1,2,3,36]";"1";"0";"1"
"1429";"21";"8";"1";"11";"1";"2";"4";"2";"[1,2,3,12]";"1";"0";"1"
"1430";"39";"8";"1";"15";"1";"2";"4";"1";"[1,2,3,16]";"1";"0";"1"
"1431";"16";"9";"1";"7";"1";"2";"4";"2";"[1,2,3,8]";"2";"3";"1"
"1432";"31";"9";"1";"37";"1";"2";"4";"2";"[1,2,3,38]";"2";"0";"1"
"1433";"29";"9";"1";"25";"1";"2";"4";"1";"[1,2,3,26]";"1";"0";"1"
"1434";"30";"9";"1";"22";"1";"2";"4";"2";"[1,2,3,23]";"2";"1";"1"
"1435";"18";"9";"1";"10";"1";"2";"4";"2";"[1,2,3,11]";"1";"0";"1"
"1436";"14";"10";"1";"2";"1";"2";"4";"1";"[1,3]";"1";"0";"1"
"1437";"29";"10";"1";"25";"1";"2";"4";"1";"[1,2,3,26]";"1";"0";"1"
"1438";"20";"10";"1";"31";"1";"2";"4";"2";"[1,2,3,32]";"2";"0";"1"
"1439";"18";"10";"1";"10";"1";"2";"4";"2";"[1,2,3,11]";"1";"0";"1"
"1440";"14";"11";"1";"2";"1";"2";"4";"1";"[1,3]";"1";"0";"1"
"1441";"24";"11";"1";"4";"1";"2";"4";"2";"[1,2,3,5]";"2";"0";"1"
"1442";"23";"11";"1";"1";"1";"2";"4";"2";"[2,3]";"2";"0";"1"
"1443";"30";"11";"1";"22";"1";"2";"4";"2";"[1,2,3,23]";"2";"2";"1"
"1444";"20";"11";"1";"31";"1";"2";"4";"2";"[1,2,3,32]";"2";"0";"1"
"1445";"4";"11";"1";"32";"1";"2";"4";"1";"[1,2,3,33]";"1";"0";"1"
"1446";"3";"11";"1";"30";"1";"2";"4";"2";"[1,2,3,31]";"2";"0";"1"
"1447";"24";"12";"1";"4";"1";"2";"4";"2";"[1,2,3,5]";"2";"0";"1"
"1448";"23";"12";"1";"1";"1";"2";"4";"2";"[2,3]";"2";"0";"1"
"1449";"4";"12";"1";"32";"1";"2";"4";"1";"[1,2,3,33]";"1";"0";"1"
"1450";"3";"12";"1";"30";"1";"2";"4";"2";"[1,2,3,31]";"2";"0";"1"
"1451";"30";"12";"1";"22";"1";"2";"4";"2";"[1,2,3,23]";"2";"3";"1"
"1452";"30";"14";"1";"22";"1";"2";"4";"2";"[1,2,3,23]";"2";"4";"1"
"1453";"40";"15";"1";"16";"1";"2";"4";"1";"[1,2,3,17]";"1";"0";"1"
"1454";"8";"16";"1";"24";"1";"2";"4";"2";"[1,2,3,25]";"2";"0";"1"
"1455";"40";"16";"1";"16";"1";"2";"4";"1";"[1,2,3,17]";"1";"0";"1"
"1456";"2";"16";"1";"28";"1";"2";"4";"1";"[1,2,3,29]";"1";"0";"1"
"1457";"8";"17";"1";"24";"1";"2";"4";"2";"[1,2,3,25]";"2";"0";"1"
"1458";"6";"17";"1";"38";"1";"2";"4";"2";"[1,2,3,39]";"0";"3";"1"
"1459";"2";"17";"1";"28";"1";"2";"4";"1";"[1,2,3,29]";"1";"0";"1"
"1460";"9";"18";"1";"6";"1";"2";"4";"1";"[1,2,3,7]";"1";"0";"1"
"1461";"26";"18";"1";"13";"1";"2";"4";"1";"[1,2,3,14]";"2";"0";"1"
"1462";"9";"19";"1";"6";"1";"2";"4";"1";"[1,2,3,7]";"1";"0";"1"
"1463";"26";"19";"1";"13";"1";"2";"4";"1";"[1,2,3,14]";"2";"0";"1"
"1464";"6";"26";"1";"38";"1";"2";"4";"2";"[1,2,3,39]";"2";"3";"1"
"1465";"38";"26";"1";"33";"1";"2";"4";"2";"[1,2,3,34]";"1";"0";"1"
"1466";"6";"27";"1";"38";"1";"2";"4";"2";"[1,2,3,39]";"2";"3";"1"
"1467";"38";"27";"1";"33";"1";"2";"4";"2";"[1,2,3,34]";"1";"0";"1"
"1468";"35";"1";"1";"14";"1";"2";"5";"2";"[1,2,3,15]";"2";"0";"1"
"1469";"32";"1";"1";"8";"1";"2";"5";"2";"[1,2,3,9]";"2";"0";"1"
"1470";"28";"2";"1";"23";"1";"2";"5";"2";"[1,2,3,24]";"2";"0";"1"
"1471";"1";"2";"1";"36";"1";"2";"5";"2";"[1,2,3,37]";"2";"0";"1"
"1472";"35";"2";"1";"14";"1";"2";"5";"2";"[1,2,3,15]";"2";"0";"1"
"1473";"32";"2";"1";"8";"1";"2";"5";"2";"[1,2,3,9]";"2";"0";"1"
"1474";"20";"3";"1";"31";"1";"2";"5";"2";"[1,2,3,32]";"2";"0";"1"
"1475";"34";"3";"1";"29";"1";"2";"5";"2";"[1,2,3,30]";"2";"0";"1"
"1476";"37";"3";"1";"40";"1";"2";"5";"2";"[1,2,3]";"2";"0";"1"
"1477";"28";"3";"1";"23";"1";"2";"5";"2";"[1,2,3,24]";"2";"0";"1"
"1478";"11";"3";"1";"21";"1";"2";"5";"2";"[1,2,3,22]";"2";"0";"1"
"1479";"27";"3";"1";"18";"1";"2";"5";"2";"[1,2,3,19]";"2";"0";"1"
"1480";"26";"3";"1";"13";"1";"2";"5";"1";"[1,2,3,14]";"2";"0";"1"
"1481";"1";"3";"1";"36";"1";"2";"5";"2";"[1,2,3,37]";"2";"0";"1"
"1482";"17";"3";"1";"19";"1";"2";"5";"1";"[1,2,3,20]";"1";"0";"1"
"1483";"21";"3";"1";"11";"1";"2";"5";"2";"[1,2,3,12]";"2";"0";"1"
"1484";"25";"3";"1";"12";"1";"2";"5";"2";"[1,2,3,13]";"2";"0";"1"
"1485";"15";"3";"1";"9";"1";"2";"5";"2";"[1,2,3,10]";"2";"0";"1"
"1486";"24";"3";"1";"4";"1";"2";"5";"2";"[1,2,3,5]";"2";"0";"1"
"1487";"20";"4";"1";"31";"1";"2";"5";"2";"[1,2,3,32]";"2";"0";"1"
"1488";"34";"4";"1";"29";"1";"2";"5";"2";"[1,2,3,30]";"2";"0";"1"
"1489";"37";"4";"1";"40";"1";"2";"5";"2";"[1,2,3]";"2";"0";"1"
"1490";"16";"4";"1";"7";"1";"2";"5";"2";"[1,2,3,8]";"1";"0";"1"
"1491";"11";"4";"1";"21";"1";"2";"5";"2";"[1,2,3,22]";"2";"0";"1"
"1492";"27";"4";"1";"18";"1";"2";"5";"2";"[1,2,3,19]";"2";"0";"1"
"1493";"26";"4";"1";"13";"1";"2";"5";"1";"[1,2,3,14]";"2";"0";"1"
"1494";"17";"4";"1";"19";"1";"2";"5";"1";"[1,2,3,20]";"1";"0";"1"
"1495";"21";"4";"1";"11";"1";"2";"5";"2";"[1,2,3,12]";"2";"0";"1"
"1496";"25";"4";"1";"12";"1";"2";"5";"2";"[1,2,3,13]";"2";"0";"1"
"1497";"15";"4";"1";"9";"1";"2";"5";"2";"[1,2,3,10]";"2";"0";"1"
"1498";"24";"4";"1";"4";"1";"2";"5";"2";"[1,2,3,5]";"2";"0";"1"
"1499";"16";"5";"1";"7";"1";"2";"5";"2";"[1,2,3,8]";"1";"0";"1"
"1500";"10";"6";"1";"34";"1";"2";"5";"1";"[1,2,3,35]";"1";"0";"1"
"1501";"4";"6";"1";"32";"1";"2";"5";"1";"[1,2,3,33]";"1";"0";"1"
"1502";"6";"6";"1";"38";"1";"2";"5";"2";"[1,2,3,39]";"1";"0";"1"
"1503";"29";"6";"1";"25";"1";"2";"5";"1";"[1,2,3,26]";"2";"0";"1"
"1504";"10";"7";"1";"34";"1";"2";"5";"1";"[1,2,3,35]";"1";"0";"1"
"1505";"19";"7";"1";"5";"1";"2";"5";"2";"[1,2,3,6]";"2";"0";"1"
"1506";"4";"7";"1";"32";"1";"2";"5";"1";"[1,2,3,33]";"1";"0";"1"
"1507";"3";"7";"1";"30";"1";"2";"5";"2";"[1,2,3,31]";"2";"0";"1"
"1508";"6";"7";"1";"38";"1";"2";"5";"2";"[1,2,3,39]";"1";"0";"1"
"1509";"29";"7";"1";"25";"1";"2";"5";"1";"[1,2,3,26]";"2";"0";"1"
"1510";"5";"7";"1";"27";"1";"2";"5";"1";"[1,2,3,28]";"1";"0";"1"
"1511";"33";"7";"1";"39";"1";"2";"5";"2";"[1,2,3,40]";"2";"0";"1"
"1512";"36";"8";"1";"20";"1";"2";"5";"1";"[1,2,3,21]";"1";"0";"1"
"1513";"7";"8";"1";"26";"1";"2";"5";"2";"[1,2,3,27]";"0";"3";"1"
"1514";"22";"8";"1";"3";"1";"2";"5";"2";"[1,2,4]";"1";"0";"1"
"1515";"19";"8";"1";"5";"1";"2";"5";"2";"[1,2,3,6]";"2";"0";"1"
"1516";"3";"8";"1";"30";"1";"2";"5";"2";"[1,2,3,31]";"2";"0";"1"
"1517";"5";"8";"1";"27";"1";"2";"5";"1";"[1,2,3,28]";"1";"0";"1"
