"id";"id_subj";"time";"session";"id_grp";"grp";"round";"period";"sig";"links";"choice";"hist";"active"
"1";"10";"0";"1";"22";"1";"1";"1";"1";"[1,2,3,23]";"0";"0";"1"
"2";"36";"0";"1";"6";"1";"1";"1";"1";"[1,2,3,7]";"0";"0";"1"
"3";"1";"0";"1";"15";"1";"1";"1";"1";"[1,2,3,16]";"0";"0";"1"
"4";"33";"0";"1";"26";"1";"1";"1";"2";"[1,2,3,27]";"0";"0";"1"
"5";"26";"0";"1";"24";"1";"1";"1";"1";"[1,2,3,25]";"0";"0";"1"
"6";"13";"0";"1";"7";"1";"1";"1";"2";"[1,2,3,8]";"0";"0";"1"
"7";"19";"0";"1";"35";"1";"1";"1";"2";"[1,2,3,36]";"0";"0";"1"
"8";"6";"0";"1";"38";"1";"1";"1";"1";"[1,2,3,39]";"0";"0";"1"
"9";"32";"0";"1";"30";"1";"1";"1";"1";"[1,2,3,31]";"0";"0";"1"
"10";"17";"0";"1";"11";"1";"1";"1";"2";"[1,2,3,12]";"0";"0";"1"
"11";"14";"0";"1";"29";"1";"1";"1";"2";"[1,2,3,30]";"0";"0";"1"
"12";"18";"0";"1";"5";"1";"1";"1";"1";"[1,2,3,6]";"0";"0";"1"
"13";"24";"0";"1";"8";"1";"1";"1";"1";"[1,2,3,9]";"0";"0";"1"
"14";"9";"0";"1";"39";"1";"1";"1";"1";"[1,2,3,40]";"0";"0";"1"
"15";"27";"0";"1";"25";"1";"1";"1";"2";"[1,2,3,26]";"0";"0";"1"
"16";"22";"0";"1";"18";"1";"1";"1";"1";"[1,2,3,19]";"0";"0";"1"
"17";"23";"0";"1";"10";"1";"1";"1";"1";"[1,2,3,11]";"0";"0";"1"
"18";"7";"0";"1";"37";"1";"1";"1";"1";"[1,2,3,38]";"0";"0";"1"
"19";"8";"0";"1";"31";"1";"1";"1";"1";"[1,2,3,32]";"0";"0";"1"
"20";"25";"0";"1";"36";"1";"1";"1";"1";"[1,2,3,37]";"0";"0";"1"
"21";"12";"0";"1";"1";"1";"1";"1";"1";"[2,3]";"0";"0";"1"
"22";"40";"0";"1";"12";"1";"1";"1";"1";"[1,2,3,13]";"0";"0";"1"
"23";"38";"0";"1";"23";"1";"1";"1";"2";"[1,2,3,24]";"0";"0";"1"
"24";"15";"0";"1";"34";"1";"1";"1";"2";"[1,2,3,35]";"0";"0";"1"
"25";"5";"0";"1";"32";"1";"1";"1";"2";"[1,2,3,33]";"0";"0";"1"
"26";"16";"0";"1";"20";"1";"1";"1";"1";"[1,2,3,21]";"0";"0";"1"
"27";"34";"0";"1";"16";"1";"1";"1";"1";"[1,2,3,17]";"0";"0";"1"
"28";"29";"0";"1";"2";"1";"1";"1";"1";"[1,3]";"0";"0";"1"
"29";"3";"0";"1";"3";"1";"1";"1";"1";"[1,2,4]";"0";"0";"1"
"30";"39";"0";"1";"13";"1";"1";"1";"2";"[1,2,3,14]";"0";"0";"1"
"31";"20";"0";"1";"9";"1";"1";"1";"2";"[1,2,3,10]";"0";"0";"1"
"32";"21";"0";"1";"27";"1";"1";"1";"1";"[1,2,3,28]";"0";"0";"1"
"33";"28";"0";"1";"28";"1";"1";"1";"1";"[1,2,3,29]";"0";"0";"1"
"34";"4";"0";"1";"17";"1";"1";"1";"1";"[1,2,3,18]";"0";"0";"1"
"35";"30";"0";"1";"21";"1";"1";"1";"1";"[1,2,3,22]";"0";"0";"1"
"36";"31";"0";"1";"14";"1";"1";"1";"2";"[1,2,3,15]";"0";"0";"1"
"37";"11";"0";"1";"4";"1";"1";"1";"1";"[1,2,3,5]";"0";"0";"1"
"38";"2";"0";"1";"40";"1";"1";"1";"1";"[1,2,3]";"0";"0";"1"
"39";"35";"0";"1";"33";"1";"1";"1";"1";"[1,2,3,34]";"0";"0";"1"
"40";"37";"0";"1";"19";"1";"1";"1";"1";"[1,2,3,20]";"0";"0";"1"
"41";"34";"6";"1";"16";"1";"1";"1";"1";"[1,2,3,17]";"1";"0";"1"
"42";"38";"7";"1";"23";"1";"1";"1";"2";"[1,2,3,24]";"2";"0";"1"
"43";"34";"7";"1";"16";"1";"1";"1";"1";"[1,2,3,17]";"1";"0";"1"
"44";"28";"8";"1";"28";"1";"1";"1";"1";"[1,2,3,29]";"1";"0";"1"
"45";"16";"8";"1";"20";"1";"1";"1";"1";"[1,2,3,21]";"1";"0";"1"
"46";"31";"8";"1";"14";"1";"1";"1";"2";"[1,2,3,15]";"2";"0";"1"
"47";"27";"8";"1";"25";"1";"1";"1";"2";"[1,2,3,26]";"2";"0";"1"
"48";"38";"8";"1";"23";"1";"1";"1";"2";"[1,2,3,24]";"2";"0";"1"
"49";"12";"8";"1";"1";"1";"1";"1";"1";"[2,3]";"1";"0";"1"
"50";"14";"8";"1";"29";"1";"1";"1";"2";"[1,2,3,30]";"2";"0";"1"
"51";"37";"8";"1";"19";"1";"1";"1";"1";"[1,2,3,20]";"1";"0";"1"
"52";"3";"8";"1";"3";"1";"1";"1";"1";"[1,2,4]";"1";"0";"1"
"53";"36";"9";"1";"6";"1";"1";"1";"1";"[1,2,3,7]";"1";"0";"1"
"54";"28";"9";"1";"28";"1";"1";"1";"1";"[1,2,3,29]";"1";"0";"1"
"55";"13";"9";"1";"7";"1";"1";"1";"2";"[1,2,3,8]";"2";"0";"1"
"56";"18";"9";"1";"5";"1";"1";"1";"1";"[1,2,3,6]";"1";"0";"1"
"57";"39";"9";"1";"13";"1";"1";"1";"2";"[1,2,3,14]";"2";"0";"1"
"58";"7";"9";"1";"37";"1";"1";"1";"1";"[1,2,3,38]";"1";"0";"1"
"59";"16";"9";"1";"20";"1";"1";"1";"1";"[1,2,3,21]";"1";"0";"1"
"60";"31";"9";"1";"14";"1";"1";"1";"2";"[1,2,3,15]";"2";"0";"1"
"61";"27";"9";"1";"25";"1";"1";"1";"2";"[1,2,3,26]";"2";"0";"1"
"62";"10";"9";"1";"22";"1";"1";"1";"1";"[1,2,3,23]";"1";"0";"1"
"63";"24";"9";"1";"8";"1";"1";"1";"1";"[1,2,3,9]";"1";"0";"1"
"64";"12";"9";"1";"1";"1";"1";"1";"1";"[2,3]";"1";"0";"1"
"65";"15";"9";"1";"34";"1";"1";"1";"2";"[1,2,3,35]";"1";"0";"1"
"66";"23";"9";"1";"10";"1";"1";"1";"1";"[1,2,3,11]";"1";"0";"1"
"67";"14";"9";"1";"29";"1";"1";"1";"2";"[1,2,3,30]";"2";"0";"1"
"68";"37";"9";"1";"19";"1";"1";"1";"1";"[1,2,3,20]";"1";"0";"1"
"69";"19";"9";"1";"35";"1";"1";"1";"2";"[1,2,3,36]";"2";"0";"1"
"70";"8";"10";"1";"31";"1";"1";"1";"1";"[1,2,3,32]";"1";"0";"1"
"71";"3";"10";"1";"3";"1";"1";"1";"1";"[1,2,4]";"1";"0";"1"
"72";"36";"10";"1";"6";"1";"1";"1";"1";"[1,2,3,7]";"1";"0";"1"
"73";"13";"10";"1";"7";"1";"1";"1";"2";"[1,2,3,8]";"2";"0";"1"
"74";"18";"10";"1";"5";"1";"1";"1";"1";"[1,2,3,6]";"1";"0";"1"
"75";"39";"10";"1";"13";"1";"1";"1";"2";"[1,2,3,14]";"2";"0";"1"
"76";"7";"10";"1";"37";"1";"1";"1";"1";"[1,2,3,38]";"1";"0";"1"
"77";"10";"10";"1";"22";"1";"1";"1";"1";"[1,2,3,23]";"1";"0";"1"
"78";"24";"10";"1";"8";"1";"1";"1";"1";"[1,2,3,9]";"1";"0";"1"
"79";"40";"10";"1";"12";"1";"1";"1";"1";"[1,2,3,13]";"1";"0";"1"
"80";"15";"10";"1";"34";"1";"1";"1";"2";"[1,2,3,35]";"1";"0";"1"
"81";"23";"10";"1";"10";"1";"1";"1";"1";"[1,2,3,11]";"1";"0";"1"
"82";"20";"10";"1";"9";"1";"1";"1";"2";"[1,2,3,10]";"2";"0";"1"
"83";"17";"10";"1";"11";"1";"1";"1";"2";"[1,2,3,12]";"2";"0";"1"
"84";"25";"10";"1";"36";"1";"1";"1";"1";"[1,2,3,37]";"1";"0";"1"
"85";"19";"10";"1";"35";"1";"1";"1";"2";"[1,2,3,36]";"2";"0";"1"
"86";"8";"11";"1";"31";"1";"1";"1";"1";"[1,2,3,32]";"1";"0";"1"
"87";"1";"11";"1";"15";"1";"1";"1";"1";"[1,2,3,16]";"1";"0";"1"
"88";"30";"11";"1";"21";"1";"1";"1";"1";"[1,2,3,22]";"1";"0";"1"
"89";"40";"11";"1";"12";"1";"1";"1";"1";"[1,2,3,13]";"1";"0";"1"
"90";"20";"11";"1";"9";"1";"1";"1";"2";"[1,2,3,10]";"2";"0";"1"
"91";"5";"11";"1";"32";"1";"1";"1";"2";"[1,2,3,33]";"2";"0";"1"
"92";"17";"11";"1";"11";"1";"1";"1";"2";"[1,2,3,12]";"2";"0";"1"
"93";"6";"11";"1";"38";"1";"1";"1";"1";"[1,2,3,39]";"1";"0";"1"
"94";"25";"11";"1";"36";"1";"1";"1";"1";"[1,2,3,37]";"1";"0";"1"
"95";"11";"12";"1";"4";"1";"1";"1";"1";"[1,2,3,5]";"1";"0";"1"
"96";"1";"12";"1";"15";"1";"1";"1";"1";"[1,2,3,16]";"1";"0";"1"
"97";"30";"12";"1";"21";"1";"1";"1";"1";"[1,2,3,22]";"1";"0";"1"
"98";"32";"12";"1";"30";"1";"1";"1";"1";"[1,2,3,31]";"1";"0";"1"
"99";"29";"12";"1";"2";"1";"1";"1";"1";"[1,3]";"1";"0";"1"
"100";"26";"12";"1";"24";"1";"1";"1";"1";"[1,2,3,25]";"1";"0";"1"
"101";"5";"12";"1";"32";"1";"1";"1";"2";"[1,2,3,33]";"2";"0";"1"
"102";"6";"12";"1";"38";"1";"1";"1";"1";"[1,2,3,39]";"1";"0";"1"
"103";"11";"13";"1";"4";"1";"1";"1";"1";"[1,2,3,5]";"1";"0";"1"
"104";"32";"13";"1";"30";"1";"1";"1";"1";"[1,2,3,31]";"1";"0";"1"
"105";"21";"13";"1";"27";"1";"1";"1";"1";"[1,2,3,28]";"2";"0";"1"
"106";"35";"13";"1";"33";"1";"1";"1";"1";"[1,2,3,34]";"2";"0";"1"
"107";"29";"13";"1";"2";"1";"1";"1";"1";"[1,3]";"1";"0";"1"
"108";"9";"13";"1";"39";"1";"1";"1";"1";"[1,2,3,40]";"1";"0";"1"
"109";"26";"13";"1";"24";"1";"1";"1";"1";"[1,2,3,25]";"1";"0";"1"
"110";"21";"14";"1";"27";"1";"1";"1";"1";"[1,2,3,28]";"2";"0";"1"
"111";"35";"14";"1";"33";"1";"1";"1";"1";"[1,2,3,34]";"2";"0";"1"
"112";"9";"14";"1";"39";"1";"1";"1";"1";"[1,2,3,40]";"1";"0";"1"
"113";"4";"15";"1";"17";"1";"1";"1";"1";"[1,2,3,18]";"1";"0";"1"
"114";"4";"16";"1";"17";"1";"1";"1";"1";"[1,2,3,18]";"1";"0";"1"
"115";"33";"20";"1";"26";"1";"1";"1";"2";"[1,2,3,27]";"2";"0";"1"
"116";"22";"20";"1";"18";"1";"1";"1";"1";"[1,2,3,19]";"2";"0";"1"
"117";"33";"21";"1";"26";"1";"1";"1";"2";"[1,2,3,27]";"2";"0";"1"
"118";"22";"21";"1";"18";"1";"1";"1";"1";"[1,2,3,19]";"2";"0";"1"
"119";"2";"27";"1";"40";"1";"1";"1";"1";"[1,2,3]";"1";"0";"1"
"120";"2";"28";"1";"40";"1";"1";"1";"1";"[1,2,3]";"1";"0";"1"
"121";"34";"3";"1";"16";"1";"1";"2";"1";"[1,2,3,17]";"1";"0";"1"
"122";"34";"4";"1";"16";"1";"1";"2";"1";"[1,2,3,17]";"1";"0";"1"
"123";"14";"4";"1";"29";"1";"1";"2";"2";"[1,2,3,30]";"1";"0";"1"
"124";"18";"4";"1";"5";"1";"1";"2";"1";"[1,2,3,6]";"1";"0";"1"
"125";"1";"5";"1";"15";"1";"1";"2";"1";"[1,2,3,16]";"1";"0";"1"
"126";"14";"5";"1";"29";"1";"1";"2";"2";"[1,2,3,30]";"1";"0";"1"
"127";"32";"5";"1";"30";"1";"1";"2";"1";"[1,2,3,31]";"1";"0";"1"
"128";"3";"5";"1";"3";"1";"1";"2";"1";"[1,2,4]";"1";"0";"1"
"129";"11";"5";"1";"4";"1";"1";"2";"1";"[1,2,3,5]";"1";"0";"1"
"130";"36";"5";"1";"6";"1";"1";"2";"1";"[1,2,3,7]";"1";"0";"1"
"131";"33";"5";"1";"26";"1";"1";"2";"2";"[1,2,3,27]";"2";"0";"1"
"132";"8";"5";"1";"31";"1";"1";"2";"1";"[1,2,3,32]";"1";"0";"1"
"133";"18";"5";"1";"5";"1";"1";"2";"1";"[1,2,3,6]";"1";"0";"1"
"134";"7";"5";"1";"37";"1";"1";"2";"1";"[1,2,3,38]";"1";"0";"1"
"135";"1";"6";"1";"15";"1";"1";"2";"1";"[1,2,3,16]";"1";"0";"1"
"136";"38";"6";"1";"23";"1";"1";"2";"2";"[1,2,3,24]";"1";"0";"1"
"137";"32";"6";"1";"30";"1";"1";"2";"1";"[1,2,3,31]";"1";"0";"1"
"138";"3";"6";"1";"3";"1";"1";"2";"1";"[1,2,4]";"1";"0";"1"
"139";"11";"6";"1";"4";"1";"1";"2";"1";"[1,2,3,5]";"1";"0";"1"
"140";"36";"6";"1";"6";"1";"1";"2";"1";"[1,2,3,7]";"1";"0";"1"
"141";"33";"6";"1";"26";"1";"1";"2";"2";"[1,2,3,27]";"2";"0";"1"
"142";"8";"6";"1";"31";"1";"1";"2";"1";"[1,2,3,32]";"1";"0";"1"
"143";"7";"6";"1";"37";"1";"1";"2";"1";"[1,2,3,38]";"1";"0";"1"
"144";"38";"7";"1";"23";"1";"1";"2";"2";"[1,2,3,24]";"1";"0";"1"
"145";"23";"7";"1";"10";"1";"1";"2";"1";"[1,2,3,11]";"1";"0";"1"
"146";"29";"7";"1";"2";"1";"1";"2";"1";"[1,3]";"1";"0";"1"
"147";"23";"8";"1";"10";"1";"1";"2";"1";"[1,2,3,11]";"1";"0";"1"
"148";"12";"8";"1";"1";"1";"1";"2";"1";"[2,3]";"1";"0";"1"
"149";"29";"8";"1";"2";"1";"1";"2";"1";"[1,3]";"1";"0";"1"
"150";"19";"8";"1";"35";"1";"1";"2";"2";"[1,2,3,36]";"1";"0";"1"
"151";"22";"9";"1";"18";"1";"1";"2";"1";"[1,2,3,19]";"1";"0";"1"
"152";"27";"9";"1";"25";"1";"1";"2";"2";"[1,2,3,26]";"1";"0";"1"
"153";"12";"9";"1";"1";"1";"1";"2";"1";"[2,3]";"1";"0";"1"
"154";"15";"9";"1";"34";"1";"1";"2";"2";"[1,2,3,35]";"1";"0";"1"
"155";"9";"9";"1";"39";"1";"1";"2";"1";"[1,2,3,40]";"1";"0";"1"
"156";"25";"9";"1";"36";"1";"1";"2";"1";"[1,2,3,37]";"1";"0";"1"
"157";"26";"9";"1";"24";"1";"1";"2";"1";"[1,2,3,25]";"1";"0";"1"
"158";"24";"9";"1";"8";"1";"1";"2";"1";"[1,2,3,9]";"1";"0";"1"
"159";"40";"9";"1";"12";"1";"1";"2";"1";"[1,2,3,13]";"1";"0";"1"
"160";"19";"9";"1";"35";"1";"1";"2";"2";"[1,2,3,36]";"1";"0";"1"
"161";"17";"10";"1";"11";"1";"1";"2";"2";"[1,2,3,12]";"2";"0";"1"
"162";"22";"10";"1";"18";"1";"1";"2";"1";"[1,2,3,19]";"1";"0";"1"
"163";"27";"10";"1";"25";"1";"1";"2";"2";"[1,2,3,26]";"1";"0";"1"
"164";"15";"10";"1";"34";"1";"1";"2";"2";"[1,2,3,35]";"1";"0";"1"
"165";"9";"10";"1";"39";"1";"1";"2";"1";"[1,2,3,40]";"1";"0";"1"
"166";"39";"10";"1";"13";"1";"1";"2";"2";"[1,2,3,14]";"2";"0";"1"
"167";"25";"10";"1";"36";"1";"1";"2";"1";"[1,2,3,37]";"1";"0";"1"
"168";"26";"10";"1";"24";"1";"1";"2";"1";"[1,2,3,25]";"1";"0";"1"
"169";"24";"10";"1";"8";"1";"1";"2";"1";"[1,2,3,9]";"1";"0";"1"
"170";"40";"10";"1";"12";"1";"1";"2";"1";"[1,2,3,13]";"1";"0";"1"
"171";"30";"10";"1";"21";"1";"1";"2";"1";"[1,2,3,22]";"1";"0";"1"
"172";"17";"11";"1";"11";"1";"1";"2";"2";"[1,2,3,12]";"2";"0";"1"
"173";"21";"11";"1";"27";"1";"1";"2";"1";"[1,2,3,28]";"2";"0";"1"
"174";"16";"11";"1";"20";"1";"1";"2";"1";"[1,2,3,21]";"1";"0";"1"
"175";"39";"11";"1";"13";"1";"1";"2";"2";"[1,2,3,14]";"2";"0";"1"
"176";"30";"11";"1";"21";"1";"1";"2";"1";"[1,2,3,22]";"1";"0";"1"
"177";"21";"12";"1";"27";"1";"1";"2";"1";"[1,2,3,28]";"2";"0";"1"
"178";"16";"12";"1";"20";"1";"1";"2";"1";"[1,2,3,21]";"1";"0";"1"
"179";"20";"12";"1";"9";"1";"1";"2";"2";"[1,2,3,10]";"1";"0";"1"
"180";"35";"13";"1";"33";"1";"1";"2";"1";"[1,2,3,34]";"2";"0";"1"
"181";"20";"13";"1";"9";"1";"1";"2";"2";"[1,2,3,10]";"1";"0";"1"
"182";"13";"14";"1";"7";"1";"1";"2";"2";"[1,2,3,8]";"2";"0";"1"
"183";"35";"14";"1";"33";"1";"1";"2";"1";"[1,2,3,34]";"2";"0";"1"
"184";"13";"15";"1";"7";"1";"1";"2";"2";"[1,2,3,8]";"2";"0";"1"
"185";"28";"15";"1";"28";"1";"1";"2";"1";"[1,2,3,29]";"1";"0";"1"
"186";"4";"16";"1";"17";"1";"1";"2";"1";"[1,2,3,18]";"1";"0";"1"
"187";"28";"16";"1";"28";"1";"1";"2";"1";"[1,2,3,29]";"1";"0";"1"
"188";"4";"17";"1";"17";"1";"1";"2";"1";"[1,2,3,18]";"1";"0";"1"
"189";"6";"17";"1";"38";"1";"1";"2";"1";"[1,2,3,39]";"2";"0";"1"
"190";"6";"18";"1";"38";"1";"1";"2";"1";"[1,2,3,39]";"2";"0";"1"
"191";"31";"18";"1";"14";"1";"1";"2";"2";"[1,2,3,15]";"2";"0";"1"
"192";"37";"18";"1";"19";"1";"1";"2";"1";"[1,2,3,20]";"1";"0";"1"
"193";"31";"19";"1";"14";"1";"1";"2";"2";"[1,2,3,15]";"2";"0";"1"
"194";"37";"19";"1";"19";"1";"1";"2";"1";"[1,2,3,20]";"1";"0";"1"
"195";"10";"19";"1";"22";"1";"1";"2";"1";"[1,2,3,23]";"1";"0";"1"
"196";"10";"20";"1";"22";"1";"1";"2";"1";"[1,2,3,23]";"1";"0";"1"
"197";"5";"22";"1";"32";"1";"1";"2";"2";"[1,2,3,33]";"1";"0";"1"
"198";"2";"22";"1";"40";"1";"1";"2";"1";"[1,2,3]";"1";"0";"1"
"199";"5";"23";"1";"32";"1";"1";"2";"2";"[1,2,3,33]";"1";"0";"1"
"200";"2";"23";"1";"40";"1";"1";"2";"1";"[1,2,3]";"1";"0";"1"
"201";"3";"2";"1";"3";"1";"1";"3";"1";"[1,2,4]";"1";"0";"1"
"202";"34";"2";"1";"16";"1";"1";"3";"1";"[1,2,3,17]";"1";"0";"1"
"203";"18";"2";"1";"5";"1";"1";"3";"1";"[1,2,3,6]";"1";"0";"1"
"204";"15";"2";"1";"34";"1";"1";"3";"2";"[1,2,3,35]";"2";"0";"1"
"205";"38";"2";"1";"23";"1";"1";"3";"2";"[1,2,3,24]";"1";"0";"1"
"206";"36";"3";"1";"6";"1";"1";"3";"1";"[1,2,3,7]";"2";"0";"1"
"207";"3";"3";"1";"3";"1";"1";"3";"1";"[1,2,4]";"1";"0";"1"
"208";"34";"3";"1";"16";"1";"1";"3";"1";"[1,2,3,17]";"1";"0";"1"
"209";"1";"3";"1";"15";"1";"1";"3";"1";"[1,2,3,16]";"1";"0";"1"
"210";"18";"3";"1";"5";"1";"1";"3";"1";"[1,2,3,6]";"1";"0";"1"
"211";"15";"3";"1";"34";"1";"1";"3";"2";"[1,2,3,35]";"2";"0";"1"
"212";"14";"3";"1";"29";"1";"1";"3";"2";"[1,2,3,30]";"1";"0";"1"
"213";"8";"3";"1";"31";"1";"1";"3";"1";"[1,2,3,32]";"1";"0";"1"
"214";"38";"3";"1";"23";"1";"1";"3";"2";"[1,2,3,24]";"1";"0";"1"
"215";"22";"4";"1";"18";"1";"1";"3";"1";"[1,2,3,19]";"1";"0";"1"
"216";"36";"4";"1";"6";"1";"1";"3";"1";"[1,2,3,7]";"2";"0";"1"
"217";"25";"4";"1";"36";"1";"1";"3";"1";"[1,2,3,37]";"1";"0";"1"
"218";"10";"4";"1";"22";"1";"1";"3";"1";"[1,2,3,23]";"1";"0";"1"
"219";"24";"4";"1";"8";"1";"1";"3";"1";"[1,2,3,9]";"1";"0";"1"
"220";"1";"4";"1";"15";"1";"1";"3";"1";"[1,2,3,16]";"1";"0";"1"
"221";"23";"4";"1";"10";"1";"1";"3";"1";"[1,2,3,11]";"1";"0";"1"
"222";"14";"4";"1";"29";"1";"1";"3";"2";"[1,2,3,30]";"1";"0";"1"
"223";"26";"4";"1";"24";"1";"1";"3";"1";"[1,2,3,25]";"1";"0";"1"
"224";"8";"4";"1";"31";"1";"1";"3";"1";"[1,2,3,32]";"1";"0";"1"
"225";"22";"5";"1";"18";"1";"1";"3";"1";"[1,2,3,19]";"1";"0";"1"
"226";"25";"5";"1";"36";"1";"1";"3";"1";"[1,2,3,37]";"1";"0";"1"
"227";"10";"5";"1";"22";"1";"1";"3";"1";"[1,2,3,23]";"1";"0";"1"
"228";"24";"5";"1";"8";"1";"1";"3";"1";"[1,2,3,9]";"1";"0";"1"
"229";"19";"5";"1";"35";"1";"1";"3";"2";"[1,2,3,36]";"1";"0";"1"
"230";"23";"5";"1";"10";"1";"1";"3";"1";"[1,2,3,11]";"1";"0";"1"
"231";"28";"5";"1";"28";"1";"1";"3";"1";"[1,2,3,29]";"1";"0";"1"
"232";"26";"5";"1";"24";"1";"1";"3";"1";"[1,2,3,25]";"1";"0";"1"
"233";"6";"5";"1";"38";"1";"1";"3";"1";"[1,2,3,39]";"1";"0";"1"
"234";"33";"6";"1";"26";"1";"1";"3";"2";"[1,2,3,27]";"2";"0";"1"
"235";"19";"6";"1";"35";"1";"1";"3";"2";"[1,2,3,36]";"1";"0";"1"
"236";"9";"6";"1";"39";"1";"1";"3";"1";"[1,2,3,40]";"1";"0";"1"
"237";"5";"6";"1";"32";"1";"1";"3";"2";"[1,2,3,33]";"1";"0";"1"
"238";"17";"6";"1";"11";"1";"1";"3";"2";"[1,2,3,12]";"2";"0";"1"
"239";"28";"6";"1";"28";"1";"1";"3";"1";"[1,2,3,29]";"1";"0";"1"
"240";"6";"6";"1";"38";"1";"1";"3";"1";"[1,2,3,39]";"1";"0";"1"
"241";"33";"7";"1";"26";"1";"1";"3";"2";"[1,2,3,27]";"2";"0";"1"
"242";"30";"7";"1";"21";"1";"1";"3";"1";"[1,2,3,22]";"1";"0";"1"
"243";"9";"7";"1";"39";"1";"1";"3";"1";"[1,2,3,40]";"1";"0";"1"
"244";"5";"7";"1";"32";"1";"1";"3";"2";"[1,2,3,33]";"1";"0";"1"
"245";"17";"7";"1";"11";"1";"1";"3";"2";"[1,2,3,12]";"2";"0";"1"
"246";"20";"8";"1";"9";"1";"1";"3";"2";"[1,2,3,10]";"2";"0";"1"
"247";"30";"8";"1";"21";"1";"1";"3";"1";"[1,2,3,22]";"1";"0";"1"
"248";"39";"8";"1";"13";"1";"1";"3";"2";"[1,2,3,14]";"1";"0";"1"
"249";"16";"8";"1";"20";"1";"1";"3";"1";"[1,2,3,21]";"1";"0";"1"
"250";"4";"8";"1";"17";"1";"1";"3";"1";"[1,2,3,18]";"1";"0";"1"
"251";"32";"8";"1";"30";"1";"1";"3";"1";"[1,2,3,31]";"1";"0";"1"
"252";"20";"9";"1";"9";"1";"1";"3";"2";"[1,2,3,10]";"2";"0";"1"
"253";"27";"9";"1";"25";"1";"1";"3";"2";"[1,2,3,26]";"1";"0";"1"
"254";"39";"9";"1";"13";"1";"1";"3";"2";"[1,2,3,14]";"1";"0";"1"
"255";"11";"9";"1";"4";"1";"1";"3";"1";"[1,2,3,5]";"1";"0";"1"
"256";"7";"9";"1";"37";"1";"1";"3";"1";"[1,2,3,38]";"1";"0";"1"
"257";"16";"9";"1";"20";"1";"1";"3";"1";"[1,2,3,21]";"1";"0";"1"
"258";"4";"9";"1";"17";"1";"1";"3";"1";"[1,2,3,18]";"1";"0";"1"
"259";"32";"9";"1";"30";"1";"1";"3";"1";"[1,2,3,31]";"1";"0";"1"
"260";"31";"10";"1";"14";"1";"1";"3";"2";"[1,2,3,15]";"0";"1";"1"
"261";"27";"10";"1";"25";"1";"1";"3";"2";"[1,2,3,26]";"1";"0";"1"
"262";"11";"10";"1";"4";"1";"1";"3";"1";"[1,2,3,5]";"1";"0";"1"
"263";"40";"10";"1";"12";"1";"1";"3";"1";"[1,2,3,13]";"1";"0";"1"
"264";"7";"10";"1";"37";"1";"1";"3";"1";"[1,2,3,38]";"1";"0";"1"
"265";"31";"11";"1";"14";"1";"1";"3";"2";"[1,2,3,15]";"0";"2";"1"
"266";"40";"11";"1";"12";"1";"1";"3";"1";"[1,2,3,13]";"1";"0";"1"
"267";"37";"11";"1";"19";"1";"1";"3";"1";"[1,2,3,20]";"1";"0";"1"
"268";"13";"12";"1";"7";"1";"1";"3";"2";"[1,2,3,8]";"2";"0";"1"
"269";"37";"12";"1";"19";"1";"1";"3";"1";"[1,2,3,20]";"1";"0";"1"
"270";"13";"13";"1";"7";"1";"1";"3";"2";"[1,2,3,8]";"2";"0";"1"
"271";"35";"13";"1";"33";"1";"1";"3";"1";"[1,2,3,34]";"1";"0";"1"
"272";"2";"13";"1";"40";"1";"1";"3";"1";"[1,2,3]";"1";"0";"1"
"273";"13";"14";"1";"7";"1";"1";"3";"2";"[1,2,3,8]";"2";"1";"1"
"274";"35";"14";"1";"33";"1";"1";"3";"1";"[1,2,3,34]";"1";"0";"1"
"275";"2";"14";"1";"40";"1";"1";"3";"1";"[1,2,3]";"1";"0";"1"
"276";"12";"14";"1";"1";"1";"1";"3";"1";"[2,3]";"1";"0";"1"
"277";"12";"15";"1";"1";"1";"1";"3";"1";"[2,3]";"1";"0";"1"
"278";"21";"17";"1";"27";"1";"1";"3";"1";"[1,2,3,28]";"2";"0";"1"
"279";"31";"18";"1";"14";"1";"1";"3";"2";"[1,2,3,15]";"2";"2";"1"
"280";"21";"18";"1";"27";"1";"1";"3";"1";"[1,2,3,28]";"2";"0";"1"
"281";"31";"19";"1";"14";"1";"1";"3";"2";"[1,2,3,15]";"2";"2";"1"
"282";"13";"19";"1";"7";"1";"1";"3";"2";"[1,2,3,8]";"2";"3";"1"
"283";"29";"23";"1";"2";"1";"1";"3";"1";"[1,3]";"1";"0";"1"
"284";"29";"24";"1";"2";"1";"1";"3";"1";"[1,3]";"1";"0";"1"
"285";"34";"1";"1";"16";"1";"1";"4";"1";"[1,2,3,17]";"1";"0";"1"
"286";"3";"1";"1";"3";"1";"1";"4";"1";"[1,2,4]";"1";"0";"1"
"287";"36";"2";"1";"6";"1";"1";"4";"1";"[1,2,3,7]";"1";"0";"1"
"288";"14";"2";"1";"29";"1";"1";"4";"2";"[1,2,3,30]";"1";"0";"1"
"289";"1";"2";"1";"15";"1";"1";"4";"1";"[1,2,3,16]";"1";"0";"1"
"290";"34";"2";"1";"16";"1";"1";"4";"1";"[1,2,3,17]";"1";"0";"1"
"291";"3";"2";"1";"3";"1";"1";"4";"1";"[1,2,4]";"1";"0";"1"
"292";"7";"3";"1";"37";"1";"1";"4";"1";"[1,2,3,38]";"1";"0";"1"
"293";"16";"3";"1";"20";"1";"1";"4";"1";"[1,2,3,21]";"1";"0";"1"
"294";"36";"3";"1";"6";"1";"1";"4";"1";"[1,2,3,7]";"1";"0";"1"
"295";"24";"3";"1";"8";"1";"1";"4";"1";"[1,2,3,9]";"1";"0";"1"
"296";"14";"3";"1";"29";"1";"1";"4";"2";"[1,2,3,30]";"1";"0";"1"
"297";"10";"3";"1";"22";"1";"1";"4";"1";"[1,2,3,23]";"1";"0";"1"
"298";"19";"3";"1";"35";"1";"1";"4";"2";"[1,2,3,36]";"1";"0";"1"
"299";"1";"3";"1";"15";"1";"1";"4";"1";"[1,2,3,16]";"1";"0";"1"
"300";"32";"3";"1";"30";"1";"1";"4";"1";"[1,2,3,31]";"2";"0";"1"
"301";"7";"4";"1";"37";"1";"1";"4";"1";"[1,2,3,38]";"1";"0";"1"
"302";"38";"4";"1";"23";"1";"1";"4";"2";"[1,2,3,24]";"1";"0";"1"
"303";"16";"4";"1";"20";"1";"1";"4";"1";"[1,2,3,21]";"1";"0";"1"
"304";"15";"4";"1";"34";"1";"1";"4";"2";"[1,2,3,35]";"2";"0";"1"
"305";"24";"4";"1";"8";"1";"1";"4";"1";"[1,2,3,9]";"1";"0";"1"
"306";"28";"4";"1";"28";"1";"1";"4";"1";"[1,2,3,29]";"1";"0";"1"
"307";"18";"4";"1";"5";"1";"1";"4";"1";"[1,2,3,6]";"1";"0";"1"
"308";"10";"4";"1";"22";"1";"1";"4";"1";"[1,2,3,23]";"1";"0";"1"
"309";"19";"4";"1";"35";"1";"1";"4";"2";"[1,2,3,36]";"1";"0";"1"
"310";"40";"4";"1";"12";"1";"1";"4";"1";"[1,2,3,13]";"1";"0";"1"
"311";"25";"4";"1";"36";"1";"1";"4";"1";"[1,2,3,37]";"1";"0";"1"
"312";"32";"4";"1";"30";"1";"1";"4";"1";"[1,2,3,31]";"2";"0";"1"
"313";"38";"5";"1";"23";"1";"1";"4";"2";"[1,2,3,24]";"1";"0";"1"
"314";"15";"5";"1";"34";"1";"1";"4";"2";"[1,2,3,35]";"2";"0";"1"
"315";"8";"5";"1";"31";"1";"1";"4";"1";"[1,2,3,32]";"1";"0";"1"
"316";"28";"5";"1";"28";"1";"1";"4";"1";"[1,2,3,29]";"1";"0";"1"
"317";"18";"5";"1";"5";"1";"1";"4";"1";"[1,2,3,6]";"1";"0";"1"
"318";"9";"5";"1";"39";"1";"1";"4";"1";"[1,2,3,40]";"1";"0";"1"
"319";"40";"5";"1";"12";"1";"1";"4";"1";"[1,2,3,13]";"1";"0";"1"
"320";"25";"5";"1";"36";"1";"1";"4";"1";"[1,2,3,37]";"1";"0";"1"
"321";"30";"5";"1";"21";"1";"1";"4";"1";"[1,2,3,22]";"1";"0";"1"
"322";"27";"5";"1";"25";"1";"1";"4";"2";"[1,2,3,26]";"1";"0";"1"
"323";"21";"5";"1";"27";"1";"1";"4";"1";"[1,2,3,28]";"1";"0";"1"
"324";"35";"6";"1";"33";"1";"1";"4";"1";"[1,2,3,34]";"1";"0";"1"
"325";"26";"6";"1";"24";"1";"1";"4";"1";"[1,2,3,25]";"1";"0";"1"
"326";"5";"6";"1";"32";"1";"1";"4";"2";"[1,2,3,33]";"1";"0";"1"
"327";"8";"6";"1";"31";"1";"1";"4";"1";"[1,2,3,32]";"1";"0";"1"
"328";"9";"6";"1";"39";"1";"1";"4";"1";"[1,2,3,40]";"1";"0";"1"
"329";"30";"6";"1";"21";"1";"1";"4";"1";"[1,2,3,22]";"1";"0";"1"
"330";"27";"6";"1";"25";"1";"1";"4";"2";"[1,2,3,26]";"1";"0";"1"
"331";"21";"6";"1";"27";"1";"1";"4";"1";"[1,2,3,28]";"1";"0";"1"
"332";"35";"7";"1";"33";"1";"1";"4";"1";"[1,2,3,34]";"1";"0";"1"
"333";"13";"7";"1";"7";"1";"1";"4";"2";"[1,2,3,8]";"2";"0";"1"
"334";"26";"7";"1";"24";"1";"1";"4";"1";"[1,2,3,25]";"1";"0";"1"
"335";"5";"7";"1";"32";"1";"1";"4";"2";"[1,2,3,33]";"1";"0";"1"
"336";"22";"7";"1";"18";"1";"1";"4";"1";"[1,2,3,19]";"1";"0";"1"
"337";"4";"8";"1";"17";"1";"1";"4";"1";"[1,2,3,18]";"1";"0";"1"
"338";"13";"8";"1";"7";"1";"1";"4";"2";"[1,2,3,8]";"2";"0";"1"
"339";"22";"8";"1";"18";"1";"1";"4";"1";"[1,2,3,19]";"1";"0";"1"
"340";"2";"8";"1";"40";"1";"1";"4";"1";"[1,2,3]";"1";"0";"1"
"341";"11";"8";"1";"4";"1";"1";"4";"1";"[1,2,3,5]";"1";"0";"1"
"342";"4";"9";"1";"17";"1";"1";"4";"1";"[1,2,3,18]";"1";"0";"1"
"343";"12";"9";"1";"1";"1";"1";"4";"1";"[2,3]";"1";"0";"1"
"344";"2";"9";"1";"40";"1";"1";"4";"1";"[1,2,3]";"1";"0";"1"
"345";"11";"9";"1";"4";"1";"1";"4";"1";"[1,2,3,5]";"1";"0";"1"
"346";"12";"10";"1";"1";"1";"1";"4";"1";"[2,3]";"1";"0";"1"
"347";"20";"10";"1";"9";"1";"1";"4";"2";"[1,2,3,10]";"1";"0";"1"
"348";"6";"10";"1";"38";"1";"1";"4";"1";"[1,2,3,39]";"1";"0";"1"
"349";"29";"11";"1";"2";"1";"1";"4";"1";"[1,3]";"0";"2";"1"
"350";"20";"11";"1";"9";"1";"1";"4";"2";"[1,2,3,10]";"1";"0";"1"
"351";"17";"11";"1";"11";"1";"1";"4";"2";"[1,2,3,12]";"2";"0";"1"
"352";"6";"11";"1";"38";"1";"1";"4";"1";"[1,2,3,39]";"1";"0";"1"
"353";"29";"11";"1";"2";"1";"1";"4";"1";"[1,3]";"0";"1";"1"
"354";"17";"12";"1";"11";"1";"1";"4";"2";"[1,2,3,12]";"2";"0";"1"
"355";"29";"13";"1";"2";"1";"1";"4";"1";"[1,3]";"0";"2";"1"
"356";"29";"13";"1";"2";"1";"1";"4";"1";"[1,3]";"0";"3";"1"
"357";"39";"15";"1";"13";"1";"1";"4";"2";"[1,2,3,14]";"1";"0";"1"
"358";"37";"15";"1";"19";"1";"1";"4";"1";"[1,2,3,20]";"1";"0";"1"
"359";"39";"16";"1";"13";"1";"1";"4";"2";"[1,2,3,14]";"1";"0";"1"
"360";"37";"16";"1";"19";"1";"1";"4";"1";"[1,2,3,20]";"1";"0";"1"
"361";"31";"17";"1";"14";"1";"1";"4";"2";"[1,2,3,15]";"1";"0";"1"
"362";"31";"18";"1";"14";"1";"1";"4";"2";"[1,2,3,15]";"1";"0";"1"
"363";"10";"21";"1";"22";"1";"1";"4";"1";"[1,2,3,23]";"1";"1";"1"
"364";"33";"21";"1";"26";"1";"1";"4";"2";"[1,2,3,27]";"2";"0";"1"
"365";"33";"22";"1";"26";"1";"1";"4";"2";"[1,2,3,27]";"2";"0";"1"
"366";"23";"23";"1";"10";"1";"1";"4";"1";"[1,2,3,11]";"1";"0";"1"
"367";"10";"23";"1";"22";"1";"1";"4";"1";"[1,2,3,23]";"1";"2";"1"
"368";"23";"24";"1";"10";"1";"1";"4";"1";"[1,2,3,11]";"1";"0";"1"
"369";"10";"25";"1";"22";"1";"1";"4";"1";"[1,2,3,23]";"1";"3";"1"
"370";"10";"26";"1";"22";"1";"1";"4";"1";"[1,2,3,23]";"1";"5";"1"
"371";"29";"28";"1";"2";"1";"1";"4";"1";"[1,3]";"1";"3";"1"
"372";"29";"29";"1";"2";"1";"1";"4";"1";"[1,3]";"1";"3";"1"
"373";"36";"1";"1";"6";"1";"1";"5";"1";"[1,2,3,7]";"1";"0";"1"
"374";"20";"1";"1";"9";"1";"1";"5";"2";"[1,2,3,10]";"0";"3";"1"
"375";"34";"1";"1";"16";"1";"1";"5";"1";"[1,2,3,17]";"1";"0";"1"
"376";"10";"2";"1";"22";"1";"1";"5";"1";"[1,2,3,23]";"1";"0";"1"
"377";"24";"2";"1";"8";"1";"1";"5";"1";"[1,2,3,9]";"1";"0";"1"
"378";"38";"2";"1";"23";"1";"1";"5";"2";"[1,2,3,24]";"1";"0";"1"
"379";"36";"2";"1";"6";"1";"1";"5";"1";"[1,2,3,7]";"1";"0";"1"
"380";"20";"2";"1";"9";"1";"1";"5";"2";"[1,2,3,10]";"0";"2";"1"
"381";"18";"2";"1";"5";"1";"1";"5";"1";"[1,2,3,6]";"1";"0";"1"
"382";"9";"2";"1";"39";"1";"1";"5";"1";"[1,2,3,40]";"2";"0";"1"
"383";"28";"2";"1";"28";"1";"1";"5";"1";"[1,2,3,29]";"1";"0";"1"
"384";"34";"3";"1";"16";"1";"1";"5";"1";"[1,2,3,17]";"1";"0";"1"
"385";"1";"3";"1";"15";"1";"1";"5";"1";"[1,2,3,16]";"1";"0";"1"
"386";"10";"3";"1";"22";"1";"1";"5";"1";"[1,2,3,23]";"1";"0";"1"
"387";"24";"3";"1";"8";"1";"1";"5";"1";"[1,2,3,9]";"1";"0";"1"
"388";"25";"3";"1";"36";"1";"1";"5";"1";"[1,2,3,37]";"1";"0";"1"
"389";"3";"3";"1";"3";"1";"1";"5";"1";"[1,2,4]";"1";"0";"1"
"390";"15";"3";"1";"34";"1";"1";"5";"2";"[1,2,3,35]";"2";"0";"1"
"391";"20";"3";"1";"9";"1";"1";"5";"2";"[1,2,3,10]";"0";"1";"1"
"392";"38";"3";"1";"23";"1";"1";"5";"2";"[1,2,3,24]";"1";"0";"1"
"393";"11";"3";"1";"4";"1";"1";"5";"1";"[1,2,3,5]";"1";"0";"1"
"394";"27";"3";"1";"25";"1";"1";"5";"2";"[1,2,3,26]";"2";"0";"1"
"395";"16";"3";"1";"20";"1";"1";"5";"1";"[1,2,3,21]";"1";"0";"1"
"396";"18";"3";"1";"5";"1";"1";"5";"1";"[1,2,3,6]";"1";"0";"1"
"397";"9";"3";"1";"39";"1";"1";"5";"1";"[1,2,3,40]";"2";"0";"1"
"398";"28";"4";"1";"28";"1";"1";"5";"1";"[1,2,3,29]";"1";"0";"1"
"399";"8";"4";"1";"31";"1";"1";"5";"1";"[1,2,3,32]";"1";"0";"1"
"400";"1";"4";"1";"15";"1";"1";"5";"1";"[1,2,3,16]";"1";"0";"1"
"401";"25";"4";"1";"36";"1";"1";"5";"1";"[1,2,3,37]";"1";"0";"1"
"402";"20";"4";"1";"9";"1";"1";"5";"2";"[1,2,3,10]";"0";"2";"1"
"403";"14";"4";"1";"29";"1";"1";"5";"2";"[1,2,3,30]";"1";"0";"1"
"404";"3";"4";"1";"3";"1";"1";"5";"1";"[1,2,4]";"1";"0";"1"
"405";"15";"4";"1";"34";"1";"1";"5";"2";"[1,2,3,35]";"2";"0";"1"
"406";"6";"4";"1";"38";"1";"1";"5";"1";"[1,2,3,39]";"2";"0";"1"
"407";"11";"4";"1";"4";"1";"1";"5";"1";"[1,2,3,5]";"1";"0";"1"
"408";"27";"4";"1";"25";"1";"1";"5";"2";"[1,2,3,26]";"2";"0";"1"
"409";"16";"4";"1";"20";"1";"1";"5";"1";"[1,2,3,21]";"1";"0";"1"
"410";"13";"4";"1";"7";"1";"1";"5";"2";"[1,2,3,8]";"2";"0";"1"
"411";"4";"4";"1";"17";"1";"1";"5";"1";"[1,2,3,18]";"1";"0";"1"
"412";"20";"4";"1";"9";"1";"1";"5";"2";"[1,2,3,10]";"0";"3";"1"
"413";"8";"5";"1";"31";"1";"1";"5";"1";"[1,2,3,32]";"1";"0";"1"
"414";"20";"5";"1";"9";"1";"1";"5";"2";"[1,2,3,10]";"0";"4";"1"
"415";"14";"5";"1";"29";"1";"1";"5";"2";"[1,2,3,30]";"1";"0";"1"
"416";"6";"5";"1";"38";"1";"1";"5";"1";"[1,2,3,39]";"2";"0";"1"
"417";"20";"5";"1";"9";"1";"1";"5";"2";"[1,2,3,10]";"0";"5";"1"
"418";"13";"5";"1";"7";"1";"1";"5";"2";"[1,2,3,8]";"2";"0";"1"
"419";"4";"5";"1";"17";"1";"1";"5";"1";"[1,2,3,18]";"1";"0";"1"
"420";"5";"6";"1";"32";"1";"1";"5";"2";"[1,2,3,33]";"1";"0";"1"
"421";"32";"6";"1";"30";"1";"1";"5";"1";"[1,2,3,31]";"1";"0";"1"
"422";"17";"6";"1";"11";"1";"1";"5";"2";"[1,2,3,12]";"2";"0";"1"
"423";"4";"7";"1";"17";"1";"1";"5";"1";"[1,2,3,18]";"1";"3";"1"
"424";"5";"7";"1";"32";"1";"1";"5";"2";"[1,2,3,33]";"1";"0";"1"
"425";"32";"7";"1";"30";"1";"1";"5";"1";"[1,2,3,31]";"1";"0";"1"
"426";"17";"7";"1";"11";"1";"1";"5";"2";"[1,2,3,12]";"2";"0";"1"
"427";"4";"8";"1";"17";"1";"1";"5";"1";"[1,2,3,18]";"1";"4";"1"
"428";"22";"8";"1";"18";"1";"1";"5";"1";"[1,2,3,19]";"1";"0";"1"
"429";"19";"8";"1";"35";"1";"1";"5";"2";"[1,2,3,36]";"1";"0";"1"
"430";"12";"8";"1";"1";"1";"1";"5";"1";"[2,3]";"1";"0";"1"
"431";"23";"9";"1";"10";"1";"1";"5";"1";"[1,2,3,11]";"2";"0";"1"
"432";"19";"9";"1";"35";"1";"1";"5";"2";"[1,2,3,36]";"1";"0";"1"
"433";"22";"9";"1";"18";"1";"1";"5";"1";"[1,2,3,19]";"1";"0";"1"
"434";"12";"9";"1";"1";"1";"1";"5";"1";"[2,3]";"1";"0";"1"
"435";"21";"10";"1";"27";"1";"1";"5";"1";"[1,2,3,28]";"2";"0";"1"
"436";"23";"10";"1";"10";"1";"1";"5";"1";"[1,2,3,11]";"2";"0";"1"
"437";"21";"11";"1";"27";"1";"1";"5";"1";"[1,2,3,28]";"2";"0";"1"
"438";"30";"11";"1";"21";"1";"1";"5";"1";"[1,2,3,22]";"1";"0";"1"
"439";"26";"11";"1";"24";"1";"1";"5";"1";"[1,2,3,25]";"1";"0";"1"
"440";"40";"11";"1";"12";"1";"1";"5";"1";"[1,2,3,13]";"1";"0";"1"
"441";"30";"12";"1";"21";"1";"1";"5";"1";"[1,2,3,22]";"1";"0";"1"
"442";"35";"12";"1";"33";"1";"1";"5";"1";"[1,2,3,34]";"2";"0";"1"
"443";"26";"12";"1";"24";"1";"1";"5";"1";"[1,2,3,25]";"1";"0";"1"
"444";"7";"12";"1";"37";"1";"1";"5";"1";"[1,2,3,38]";"1";"0";"1"
"445";"40";"12";"1";"12";"1";"1";"5";"1";"[1,2,3,13]";"1";"0";"1"
"446";"35";"13";"1";"33";"1";"1";"5";"1";"[1,2,3,34]";"2";"0";"1"
"447";"7";"13";"1";"37";"1";"1";"5";"1";"[1,2,3,38]";"1";"0";"1"
"448";"2";"15";"1";"40";"1";"1";"5";"1";"[1,2,3]";"1";"0";"1"
"449";"2";"16";"1";"40";"1";"1";"5";"1";"[1,2,3]";"1";"0";"1"
"450";"31";"17";"1";"14";"1";"1";"5";"2";"[1,2,3,15]";"1";"0";"1"
"451";"29";"18";"1";"2";"1";"1";"5";"1";"[1,3]";"1";"0";"1"
"452";"20";"18";"1";"9";"1";"1";"5";"2";"[1,2,3,10]";"2";"5";"1"
"453";"31";"18";"1";"14";"1";"1";"5";"2";"[1,2,3,15]";"1";"0";"1"
"454";"37";"18";"1";"19";"1";"1";"5";"1";"[1,2,3,20]";"1";"0";"1"
"455";"29";"19";"1";"2";"1";"1";"5";"1";"[1,3]";"1";"0";"1"
"456";"20";"19";"1";"9";"1";"1";"5";"2";"[1,2,3,10]";"2";"5";"1"
"457";"37";"19";"1";"19";"1";"1";"5";"1";"[1,2,3,20]";"1";"0";"1"
"458";"17";"20";"1";"11";"1";"1";"5";"2";"[1,2,3,12]";"2";"3";"1"
"459";"33";"21";"1";"26";"1";"1";"5";"2";"[1,2,3,27]";"2";"0";"1"
"460";"39";"22";"1";"13";"1";"1";"5";"2";"[1,2,3,14]";"1";"0";"1"
"461";"17";"22";"1";"11";"1";"1";"5";"2";"[1,2,3,12]";"2";"4";"1"
"462";"33";"22";"1";"26";"1";"1";"5";"2";"[1,2,3,27]";"2";"0";"1"
"463";"39";"23";"1";"13";"1";"1";"5";"2";"[1,2,3,14]";"1";"0";"1"
"464";"17";"1";"1";"11";"1";"1";"6";"2";"[1,2,3,12]";"1";"0";"1"
"465";"8";"1";"1";"31";"1";"1";"6";"1";"[1,2,3,32]";"1";"0";"1"
"466";"32";"2";"1";"30";"1";"1";"6";"1";"[1,2,3,31]";"2";"0";"1"
"467";"14";"2";"1";"29";"1";"1";"6";"2";"[1,2,3,30]";"1";"0";"1"
"468";"27";"2";"1";"25";"1";"1";"6";"2";"[1,2,3,26]";"2";"0";"1"
"469";"36";"2";"1";"6";"1";"1";"6";"1";"[1,2,3,7]";"2";"0";"1"
"470";"3";"2";"1";"3";"1";"1";"6";"1";"[1,2,4]";"1";"0";"1"
"471";"38";"2";"1";"23";"1";"1";"6";"2";"[1,2,3,24]";"1";"0";"1"
"472";"10";"2";"1";"22";"1";"1";"6";"1";"[1,2,3,23]";"1";"0";"1"
"473";"16";"2";"1";"20";"1";"1";"6";"1";"[1,2,3,21]";"1";"0";"1"
"474";"1";"2";"1";"15";"1";"1";"6";"1";"[1,2,3,16]";"1";"0";"1"
"475";"17";"2";"1";"11";"1";"1";"6";"2";"[1,2,3,12]";"1";"0";"1"
"476";"18";"2";"1";"5";"1";"1";"6";"1";"[1,2,3,6]";"1";"0";"1"
"477";"8";"2";"1";"31";"1";"1";"6";"1";"[1,2,3,32]";"1";"0";"1"
"478";"32";"3";"1";"30";"1";"1";"6";"1";"[1,2,3,31]";"2";"0";"1"
"479";"34";"3";"1";"16";"1";"1";"6";"1";"[1,2,3,17]";"1";"0";"1"
"480";"14";"3";"1";"29";"1";"1";"6";"2";"[1,2,3,30]";"1";"0";"1"
"481";"27";"3";"1";"25";"1";"1";"6";"2";"[1,2,3,26]";"2";"0";"1"
"482";"36";"3";"1";"6";"1";"1";"6";"1";"[1,2,3,7]";"2";"0";"1"
"483";"3";"3";"1";"3";"1";"1";"6";"1";"[1,2,4]";"1";"0";"1"
"484";"38";"3";"1";"23";"1";"1";"6";"2";"[1,2,3,24]";"1";"0";"1"
"485";"10";"3";"1";"22";"1";"1";"6";"1";"[1,2,3,23]";"1";"0";"1"
"486";"16";"3";"1";"20";"1";"1";"6";"1";"[1,2,3,21]";"1";"0";"1"
"487";"1";"3";"1";"15";"1";"1";"6";"1";"[1,2,3,16]";"1";"0";"1"
"488";"13";"3";"1";"7";"1";"1";"6";"2";"[1,2,3,8]";"2";"0";"1"
"489";"18";"3";"1";"5";"1";"1";"6";"1";"[1,2,3,6]";"1";"0";"1"
"490";"25";"3";"1";"36";"1";"1";"6";"1";"[1,2,3,37]";"1";"0";"1"
"491";"28";"4";"1";"28";"1";"1";"6";"1";"[1,2,3,29]";"1";"0";"1"
"492";"34";"4";"1";"16";"1";"1";"6";"1";"[1,2,3,17]";"1";"0";"1"
"493";"13";"4";"1";"7";"1";"1";"6";"2";"[1,2,3,8]";"2";"0";"1"
"494";"25";"4";"1";"36";"1";"1";"6";"1";"[1,2,3,37]";"1";"0";"1"
"495";"9";"4";"1";"39";"1";"1";"6";"1";"[1,2,3,40]";"1";"0";"1"
"496";"28";"5";"1";"28";"1";"1";"6";"1";"[1,2,3,29]";"1";"0";"1"
"497";"15";"5";"1";"34";"1";"1";"6";"2";"[1,2,3,35]";"2";"0";"1"
"498";"24";"5";"1";"8";"1";"1";"6";"1";"[1,2,3,9]";"1";"0";"1"
"499";"6";"5";"1";"38";"1";"1";"6";"1";"[1,2,3,39]";"2";"0";"1"
"500";"9";"6";"1";"39";"1";"1";"6";"1";"[1,2,3,40]";"1";"0";"1"
"501";"10";"6";"1";"22";"1";"1";"6";"1";"[1,2,3,23]";"1";"1";"1"
"502";"15";"6";"1";"34";"1";"1";"6";"2";"[1,2,3,35]";"2";"0";"1"
"503";"24";"6";"1";"8";"1";"1";"6";"1";"[1,2,3,9]";"1";"0";"1"
"504";"6";"6";"1";"38";"1";"1";"6";"1";"[1,2,3,39]";"2";"0";"1"
"505";"22";"7";"1";"18";"1";"1";"6";"1";"[1,2,3,19]";"1";"0";"1"
"506";"11";"7";"1";"4";"1";"1";"6";"1";"[1,2,3,5]";"1";"0";"1"
"507";"39";"7";"1";"13";"1";"1";"6";"2";"[1,2,3,14]";"1";"0";"1"
"508";"23";"7";"1";"10";"1";"1";"6";"1";"[1,2,3,11]";"0";"1";"1"
"509";"4";"7";"1";"17";"1";"1";"6";"1";"[1,2,3,18]";"1";"0";"1"
"510";"22";"8";"1";"18";"1";"1";"6";"1";"[1,2,3,19]";"1";"0";"1"
"511";"20";"8";"1";"9";"1";"1";"6";"2";"[1,2,3,10]";"2";"0";"1"
"512";"11";"8";"1";"4";"1";"1";"6";"1";"[1,2,3,5]";"1";"0";"1"
"513";"5";"8";"1";"32";"1";"1";"6";"2";"[1,2,3,33]";"1";"0";"1"
"514";"39";"8";"1";"13";"1";"1";"6";"2";"[1,2,3,14]";"1";"0";"1"
"515";"10";"8";"1";"22";"1";"1";"6";"1";"[1,2,3,23]";"1";"2";"1"
"516";"4";"8";"1";"17";"1";"1";"6";"1";"[1,2,3,18]";"1";"0";"1"
"517";"20";"9";"1";"9";"1";"1";"6";"2";"[1,2,3,10]";"2";"0";"1"
"518";"12";"9";"1";"1";"1";"1";"6";"1";"[2,3]";"1";"0";"1"
"519";"5";"9";"1";"32";"1";"1";"6";"2";"[1,2,3,33]";"1";"0";"1"
"520";"26";"9";"1";"24";"1";"1";"6";"1";"[1,2,3,25]";"2";"0";"1"
"521";"23";"9";"1";"10";"1";"1";"6";"1";"[1,2,3,11]";"0";"2";"1"
"522";"12";"10";"1";"1";"1";"1";"6";"1";"[2,3]";"1";"0";"1"
"523";"40";"10";"1";"12";"1";"1";"6";"1";"[1,2,3,13]";"1";"0";"1"
"524";"26";"10";"1";"24";"1";"1";"6";"1";"[1,2,3,25]";"2";"0";"1"
"525";"23";"10";"1";"10";"1";"1";"6";"1";"[1,2,3,11]";"0";"3";"1"
"526";"30";"11";"1";"21";"1";"1";"6";"1";"[1,2,3,22]";"1";"0";"1"
"527";"40";"11";"1";"12";"1";"1";"6";"1";"[1,2,3,13]";"1";"0";"1"
"528";"10";"11";"1";"22";"1";"1";"6";"1";"[1,2,3,23]";"1";"7";"1"
"529";"23";"11";"1";"10";"1";"1";"6";"1";"[1,2,3,11]";"0";"4";"1"
"530";"35";"11";"1";"33";"1";"1";"6";"1";"[1,2,3,34]";"2";"0";"1"
"531";"7";"12";"1";"37";"1";"1";"6";"1";"[1,2,3,38]";"2";"0";"1"
"532";"30";"12";"1";"21";"1";"1";"6";"1";"[1,2,3,22]";"1";"0";"1"
"533";"35";"12";"1";"33";"1";"1";"6";"1";"[1,2,3,34]";"2";"0";"1"
"534";"7";"13";"1";"37";"1";"1";"6";"1";"[1,2,3,38]";"2";"0";"1"
"535";"23";"13";"1";"10";"1";"1";"6";"1";"[1,2,3,11]";"0";"5";"1"
"536";"19";"13";"1";"35";"1";"1";"6";"2";"[1,2,3,36]";"1";"0";"1"
"537";"19";"14";"1";"35";"1";"1";"6";"2";"[1,2,3,36]";"1";"0";"1"
"538";"23";"15";"1";"10";"1";"1";"6";"1";"[1,2,3,11]";"1";"5";"1"
"539";"23";"16";"1";"10";"1";"1";"6";"1";"[1,2,3,11]";"1";"5";"1"
"540";"33";"17";"1";"26";"1";"1";"6";"2";"[1,2,3,27]";"2";"0";"1"
"541";"33";"18";"1";"26";"1";"1";"6";"2";"[1,2,3,27]";"2";"0";"1"
"542";"29";"18";"1";"2";"1";"1";"6";"1";"[1,3]";"0";"4";"1"
"543";"29";"19";"1";"2";"1";"1";"6";"1";"[1,3]";"0";"3";"1"
"544";"29";"20";"1";"2";"1";"1";"6";"1";"[1,3]";"0";"5";"1"
"545";"29";"20";"1";"2";"1";"1";"6";"1";"[1,3]";"0";"6";"1"
"546";"29";"22";"1";"2";"1";"1";"6";"1";"[1,3]";"1";"6";"1"
"547";"31";"22";"1";"14";"1";"1";"6";"2";"[1,2,3,15]";"1";"0";"1"
"548";"37";"22";"1";"19";"1";"1";"6";"1";"[1,2,3,20]";"1";"0";"1"
"549";"2";"23";"1";"40";"1";"1";"6";"1";"[1,2,3]";"1";"0";"1"
"550";"29";"23";"1";"2";"1";"1";"6";"1";"[1,3]";"1";"6";"1"
"551";"31";"23";"1";"14";"1";"1";"6";"2";"[1,2,3,15]";"1";"0";"1"
"552";"37";"23";"1";"19";"1";"1";"6";"1";"[1,2,3,20]";"1";"0";"1"
"553";"2";"24";"1";"40";"1";"1";"6";"1";"[1,2,3]";"1";"0";"1"
"554";"21";"24";"1";"27";"1";"1";"6";"1";"[1,2,3,28]";"2";"0";"1"
"555";"21";"25";"1";"27";"1";"1";"6";"1";"[1,2,3,28]";"2";"0";"1"
"556";"36";"1";"1";"6";"1";"1";"7";"1";"[1,2,3,7]";"2";"0";"1"
"557";"40";"2";"1";"12";"1";"1";"7";"1";"[1,2,3,13]";"1";"0";"1"
"558";"8";"2";"1";"31";"1";"1";"7";"1";"[1,2,3,32]";"1";"0";"1"
"559";"1";"2";"1";"15";"1";"1";"7";"1";"[1,2,3,16]";"1";"0";"1"
"560";"36";"2";"1";"6";"1";"1";"7";"1";"[1,2,3,7]";"2";"0";"1"
"561";"12";"2";"1";"1";"1";"1";"7";"1";"[2,3]";"1";"0";"1"
"562";"16";"2";"1";"20";"1";"1";"7";"1";"[1,2,3,21]";"1";"0";"1"
"563";"33";"2";"1";"26";"1";"1";"7";"2";"[1,2,3,27]";"2";"0";"1"
"564";"3";"3";"1";"3";"1";"1";"7";"1";"[1,2,4]";"1";"0";"1"
"565";"34";"3";"1";"16";"1";"1";"7";"1";"[1,2,3,17]";"1";"0";"1"
"566";"40";"3";"1";"12";"1";"1";"7";"1";"[1,2,3,13]";"1";"0";"1"
"567";"10";"3";"1";"22";"1";"1";"7";"1";"[1,2,3,23]";"1";"0";"1"
"568";"8";"3";"1";"31";"1";"1";"7";"1";"[1,2,3,32]";"1";"0";"1"
"569";"7";"3";"1";"37";"1";"1";"7";"1";"[1,2,3,38]";"1";"0";"1"
"570";"27";"3";"1";"25";"1";"1";"7";"2";"[1,2,3,26]";"2";"0";"1"
"571";"19";"3";"1";"35";"1";"1";"7";"2";"[1,2,3,36]";"1";"0";"1"
"572";"1";"3";"1";"15";"1";"1";"7";"1";"[1,2,3,16]";"1";"0";"1"
"573";"12";"3";"1";"1";"1";"1";"7";"1";"[2,3]";"1";"0";"1"
"574";"16";"3";"1";"20";"1";"1";"7";"1";"[1,2,3,21]";"1";"0";"1"
"575";"9";"3";"1";"39";"1";"1";"7";"1";"[1,2,3,40]";"1";"0";"1"
"576";"33";"3";"1";"26";"1";"1";"7";"2";"[1,2,3,27]";"2";"0";"1"
"577";"24";"3";"1";"8";"1";"1";"7";"1";"[1,2,3,9]";"1";"0";"1"
"578";"3";"4";"1";"3";"1";"1";"7";"1";"[1,2,4]";"1";"0";"1"
"579";"37";"4";"1";"19";"1";"1";"7";"1";"[1,2,3,20]";"2";"0";"1"
"580";"34";"4";"1";"16";"1";"1";"7";"1";"[1,2,3,17]";"1";"0";"1"
"581";"10";"4";"1";"22";"1";"1";"7";"1";"[1,2,3,23]";"1";"0";"1"
"582";"7";"4";"1";"37";"1";"1";"7";"1";"[1,2,3,38]";"1";"0";"1"
"583";"13";"4";"1";"7";"1";"1";"7";"2";"[1,2,3,8]";"2";"0";"1"
"584";"38";"4";"1";"23";"1";"1";"7";"2";"[1,2,3,24]";"1";"0";"1"
"585";"27";"4";"1";"25";"1";"1";"7";"2";"[1,2,3,26]";"2";"0";"1"
"586";"19";"4";"1";"35";"1";"1";"7";"2";"[1,2,3,36]";"1";"0";"1"
"587";"15";"4";"1";"34";"1";"1";"7";"2";"[1,2,3,35]";"1";"0";"1"
"588";"28";"4";"1";"28";"1";"1";"7";"1";"[1,2,3,29]";"1";"0";"1"
"589";"17";"4";"1";"11";"1";"1";"7";"2";"[1,2,3,12]";"2";"0";"1"
"590";"9";"4";"1";"39";"1";"1";"7";"1";"[1,2,3,40]";"1";"0";"1"
"591";"24";"4";"1";"8";"1";"1";"7";"1";"[1,2,3,9]";"1";"0";"1"
"592";"37";"5";"1";"19";"1";"1";"7";"1";"[1,2,3,20]";"2";"0";"1"
"593";"13";"5";"1";"7";"1";"1";"7";"2";"[1,2,3,8]";"2";"0";"1"
"594";"38";"5";"1";"23";"1";"1";"7";"2";"[1,2,3,24]";"1";"0";"1"
"595";"6";"5";"1";"38";"1";"1";"7";"1";"[1,2,3,39]";"1";"0";"1"
"596";"15";"5";"1";"34";"1";"1";"7";"2";"[1,2,3,35]";"1";"0";"1"
"597";"28";"5";"1";"28";"1";"1";"7";"1";"[1,2,3,29]";"1";"0";"1"
"598";"17";"5";"1";"11";"1";"1";"7";"2";"[1,2,3,12]";"2";"0";"1"
"599";"18";"5";"1";"5";"1";"1";"7";"1";"[1,2,3,6]";"1";"0";"1"
"600";"4";"6";"1";"17";"1";"1";"7";"1";"[1,2,3,18]";"1";"0";"1"
"601";"11";"6";"1";"4";"1";"1";"7";"1";"[1,2,3,5]";"1";"0";"1"
"602";"6";"6";"1";"38";"1";"1";"7";"1";"[1,2,3,39]";"1";"0";"1"
"603";"5";"6";"1";"32";"1";"1";"7";"2";"[1,2,3,33]";"1";"0";"1"
"604";"18";"6";"1";"5";"1";"1";"7";"1";"[1,2,3,6]";"1";"0";"1"
"605";"25";"6";"1";"36";"1";"1";"7";"1";"[1,2,3,37]";"1";"0";"1"
"606";"22";"7";"1";"18";"1";"1";"7";"1";"[1,2,3,19]";"1";"0";"1"
"607";"4";"7";"1";"17";"1";"1";"7";"1";"[1,2,3,18]";"1";"0";"1"
"608";"26";"7";"1";"24";"1";"1";"7";"1";"[1,2,3,25]";"1";"0";"1"
"609";"20";"7";"1";"9";"1";"1";"7";"2";"[1,2,3,10]";"1";"0";"1"
"610";"11";"7";"1";"4";"1";"1";"7";"1";"[1,2,3,5]";"1";"0";"1"
"611";"5";"7";"1";"32";"1";"1";"7";"2";"[1,2,3,33]";"1";"0";"1"
"612";"25";"7";"1";"36";"1";"1";"7";"1";"[1,2,3,37]";"1";"0";"1"
"613";"32";"7";"1";"30";"1";"1";"7";"1";"[1,2,3,31]";"1";"0";"1"
"614";"22";"8";"1";"18";"1";"1";"7";"1";"[1,2,3,19]";"1";"0";"1"
"615";"26";"8";"1";"24";"1";"1";"7";"1";"[1,2,3,25]";"1";"0";"1"
"616";"20";"8";"1";"9";"1";"1";"7";"2";"[1,2,3,10]";"1";"0";"1"
"617";"32";"8";"1";"30";"1";"1";"7";"1";"[1,2,3,31]";"1";"0";"1"
"618";"39";"9";"1";"13";"1";"1";"7";"2";"[1,2,3,14]";"1";"0";"1"
"619";"23";"9";"1";"10";"1";"1";"7";"1";"[1,2,3,11]";"1";"0";"1"
"620";"39";"10";"1";"13";"1";"1";"7";"2";"[1,2,3,14]";"1";"0";"1"
"621";"18";"10";"1";"5";"1";"1";"7";"1";"[1,2,3,6]";"1";"1";"1"
"622";"23";"10";"1";"10";"1";"1";"7";"1";"[1,2,3,11]";"1";"0";"1"
"623";"14";"11";"1";"29";"1";"1";"7";"2";"[1,2,3,30]";"1";"0";"1"
"624";"29";"11";"1";"2";"1";"1";"7";"1";"[1,3]";"1";"0";"1"
"625";"14";"12";"1";"29";"1";"1";"7";"2";"[1,2,3,30]";"1";"0";"1"
"626";"29";"12";"1";"2";"1";"1";"7";"1";"[1,3]";"1";"0";"1"
"627";"18";"13";"1";"5";"1";"1";"7";"1";"[1,2,3,6]";"1";"7";"1"
"628";"35";"13";"1";"33";"1";"1";"7";"1";"[1,2,3,34]";"1";"0";"1"
"629";"35";"14";"1";"33";"1";"1";"7";"1";"[1,2,3,34]";"1";"0";"1"
"630";"2";"18";"1";"40";"1";"1";"7";"1";"[1,2,3]";"1";"0";"1"
"631";"2";"19";"1";"40";"1";"1";"7";"1";"[1,2,3]";"1";"0";"1"
"632";"31";"22";"1";"14";"1";"1";"7";"2";"[1,2,3,15]";"1";"0";"1"
"633";"21";"23";"1";"27";"1";"1";"7";"1";"[1,2,3,28]";"2";"0";"1"
"634";"31";"23";"1";"14";"1";"1";"7";"2";"[1,2,3,15]";"1";"0";"1"
"635";"21";"24";"1";"27";"1";"1";"7";"1";"[1,2,3,28]";"2";"0";"1"
"636";"30";"29";"1";"21";"1";"1";"7";"1";"[1,2,3,22]";"1";"0";"1"
"637";"30";"30";"1";"21";"1";"1";"7";"1";"[1,2,3,22]";"1";"0";"1"
"638";"36";"1";"1";"6";"1";"1";"8";"1";"[1,2,3,7]";"1";"0";"1"
"639";"27";"1";"1";"25";"1";"1";"8";"2";"[1,2,3,26]";"2";"0";"1"
"640";"13";"2";"1";"7";"1";"1";"8";"2";"[1,2,3,8]";"2";"0";"1"
"641";"3";"2";"1";"3";"1";"1";"8";"1";"[1,2,4]";"1";"0";"1"
"642";"8";"2";"1";"31";"1";"1";"8";"1";"[1,2,3,32]";"1";"0";"1"
"643";"10";"2";"1";"22";"1";"1";"8";"1";"[1,2,3,23]";"1";"0";"1"
"644";"36";"2";"1";"6";"1";"1";"8";"1";"[1,2,3,7]";"1";"0";"1"
"645";"34";"2";"1";"16";"1";"1";"8";"1";"[1,2,3,17]";"1";"0";"1"
"646";"38";"2";"1";"23";"1";"1";"8";"2";"[1,2,3,24]";"1";"0";"1"
"647";"27";"2";"1";"25";"1";"1";"8";"2";"[1,2,3,26]";"2";"0";"1"
"648";"11";"2";"1";"4";"1";"1";"8";"1";"[1,2,3,5]";"1";"0";"1"
"649";"1";"2";"1";"15";"1";"1";"8";"1";"[1,2,3,16]";"1";"0";"1"
"650";"13";"3";"1";"7";"1";"1";"8";"2";"[1,2,3,8]";"2";"0";"1"
"651";"3";"3";"1";"3";"1";"1";"8";"1";"[1,2,4]";"1";"0";"1"
"652";"8";"3";"1";"31";"1";"1";"8";"1";"[1,2,3,32]";"1";"0";"1"
"653";"10";"3";"1";"22";"1";"1";"8";"1";"[1,2,3,23]";"1";"0";"1"
"654";"23";"3";"1";"10";"1";"1";"8";"1";"[1,2,3,11]";"2";"0";"1"
"655";"4";"3";"1";"17";"1";"1";"8";"1";"[1,2,3,18]";"0";"6";"1"
"656";"24";"3";"1";"8";"1";"1";"8";"1";"[1,2,3,9]";"1";"0";"1"
"657";"12";"3";"1";"1";"1";"1";"8";"1";"[2,3]";"1";"0";"1"
"658";"34";"3";"1";"16";"1";"1";"8";"1";"[1,2,3,17]";"1";"0";"1"
"659";"38";"3";"1";"23";"1";"1";"8";"2";"[1,2,3,24]";"1";"0";"1"
"660";"16";"3";"1";"20";"1";"1";"8";"1";"[1,2,3,21]";"1";"0";"1"
"661";"11";"3";"1";"4";"1";"1";"8";"1";"[1,2,3,5]";"1";"0";"1"
"662";"25";"3";"1";"36";"1";"1";"8";"1";"[1,2,3,37]";"1";"0";"1"
"663";"32";"3";"1";"30";"1";"1";"8";"1";"[1,2,3,31]";"1";"0";"1"
"664";"1";"3";"1";"15";"1";"1";"8";"1";"[1,2,3,16]";"1";"0";"1"
"665";"26";"4";"1";"24";"1";"1";"8";"1";"[1,2,3,25]";"1";"0";"1"
"666";"23";"4";"1";"10";"1";"1";"8";"1";"[1,2,3,11]";"2";"0";"1"
"667";"4";"4";"1";"17";"1";"1";"8";"1";"[1,2,3,18]";"0";"4";"1"
"668";"24";"4";"1";"8";"1";"1";"8";"1";"[1,2,3,9]";"1";"0";"1"
"669";"12";"4";"1";"1";"1";"1";"8";"1";"[2,3]";"1";"0";"1"
"670";"19";"4";"1";"35";"1";"1";"8";"2";"[1,2,3,36]";"1";"0";"1"
"671";"16";"4";"1";"20";"1";"1";"8";"1";"[1,2,3,21]";"1";"0";"1"
"672";"25";"4";"1";"36";"1";"1";"8";"1";"[1,2,3,37]";"1";"0";"1"
"673";"32";"4";"1";"30";"1";"1";"8";"1";"[1,2,3,31]";"1";"0";"1"
"674";"39";"4";"1";"13";"1";"1";"8";"2";"[1,2,3,14]";"1";"0";"1"
"675";"6";"5";"1";"38";"1";"1";"8";"1";"[1,2,3,39]";"1";"0";"1"
"676";"26";"5";"1";"24";"1";"1";"8";"1";"[1,2,3,25]";"1";"0";"1"
"677";"15";"5";"1";"34";"1";"1";"8";"2";"[1,2,3,35]";"1";"0";"1"
"678";"7";"5";"1";"37";"1";"1";"8";"1";"[1,2,3,38]";"1";"0";"1"
"679";"18";"5";"1";"5";"1";"1";"8";"1";"[1,2,3,6]";"1";"0";"1"
"680";"17";"5";"1";"11";"1";"1";"8";"2";"[1,2,3,12]";"1";"0";"1"
"681";"19";"5";"1";"35";"1";"1";"8";"2";"[1,2,3,36]";"1";"0";"1"
"682";"39";"6";"1";"13";"1";"1";"8";"2";"[1,2,3,14]";"1";"0";"1"
"683";"6";"6";"1";"38";"1";"1";"8";"1";"[1,2,3,39]";"1";"0";"1"
"684";"9";"6";"1";"39";"1";"1";"8";"1";"[1,2,3,40]";"1";"0";"1"
"685";"14";"6";"1";"29";"1";"1";"8";"2";"[1,2,3,30]";"2";"0";"1"
"686";"15";"6";"1";"34";"1";"1";"8";"2";"[1,2,3,35]";"1";"0";"1"
"687";"7";"6";"1";"37";"1";"1";"8";"1";"[1,2,3,38]";"1";"0";"1"
"688";"18";"6";"1";"5";"1";"1";"8";"1";"[1,2,3,6]";"1";"0";"1"
"689";"17";"6";"1";"11";"1";"1";"8";"2";"[1,2,3,12]";"1";"0";"1"
"690";"4";"7";"1";"17";"1";"1";"8";"1";"[1,2,3,18]";"0";"7";"1"
"691";"9";"7";"1";"39";"1";"1";"8";"1";"[1,2,3,40]";"1";"0";"1"
"692";"14";"7";"1";"29";"1";"1";"8";"2";"[1,2,3,30]";"2";"0";"1"
"693";"20";"8";"1";"9";"1";"1";"8";"2";"[1,2,3,10]";"0";"6";"1"
"694";"35";"8";"1";"33";"1";"1";"8";"1";"[1,2,3,34]";"1";"0";"1"
"695";"4";"8";"1";"17";"1";"1";"8";"1";"[1,2,3,18]";"0";"8";"1"
"696";"20";"8";"1";"9";"1";"1";"8";"2";"[1,2,3,10]";"0";"5";"1"
"697";"22";"8";"1";"18";"1";"1";"8";"1";"[1,2,3,19]";"1";"0";"1"
"698";"35";"9";"1";"33";"1";"1";"8";"1";"[1,2,3,34]";"1";"0";"1"
"699";"20";"9";"1";"9";"1";"1";"8";"2";"[1,2,3,10]";"0";"4";"1"
"700";"22";"9";"1";"18";"1";"1";"8";"1";"[1,2,3,19]";"1";"0";"1"
"701";"5";"9";"1";"32";"1";"1";"8";"2";"[1,2,3,33]";"1";"0";"1"
"702";"20";"10";"1";"9";"1";"1";"8";"2";"[1,2,3,10]";"0";"2";"1"
"703";"30";"10";"1";"21";"1";"1";"8";"1";"[1,2,3,22]";"2";"0";"1"
"704";"5";"11";"1";"32";"1";"1";"8";"2";"[1,2,3,33]";"1";"0";"1"
"705";"20";"11";"1";"9";"1";"1";"8";"2";"[1,2,3,10]";"0";"4";"1"
"706";"28";"11";"1";"28";"1";"1";"8";"1";"[1,2,3,29]";"1";"0";"1"
"707";"20";"11";"1";"9";"1";"1";"8";"2";"[1,2,3,10]";"0";"6";"1"
"708";"4";"11";"1";"17";"1";"1";"8";"1";"[1,2,3,18]";"1";"8";"1"
"709";"30";"11";"1";"21";"1";"1";"8";"1";"[1,2,3,22]";"2";"0";"1"
"710";"20";"11";"1";"9";"1";"1";"8";"2";"[1,2,3,10]";"0";"7";"1"
"711";"28";"12";"1";"28";"1";"1";"8";"1";"[1,2,3,29]";"1";"0";"1"
"712";"20";"12";"1";"9";"1";"1";"8";"2";"[1,2,3,10]";"0";"8";"1"
"713";"4";"12";"1";"17";"1";"1";"8";"1";"[1,2,3,18]";"1";"8";"1"
"714";"40";"14";"1";"12";"1";"1";"8";"1";"[1,2,3,13]";"1";"0";"1"
"715";"40";"15";"1";"12";"1";"1";"8";"1";"[1,2,3,13]";"1";"0";"1"
"716";"2";"15";"1";"40";"1";"1";"8";"1";"[1,2,3]";"2";"0";"1"
"717";"2";"16";"1";"40";"1";"1";"8";"1";"[1,2,3]";"2";"0";"1"
"718";"20";"17";"1";"9";"1";"1";"8";"2";"[1,2,3,10]";"2";"8";"1"
"719";"29";"17";"1";"2";"1";"1";"8";"1";"[1,3]";"1";"0";"1"
"720";"20";"18";"1";"9";"1";"1";"8";"2";"[1,2,3,10]";"2";"8";"1"
"721";"29";"18";"1";"2";"1";"1";"8";"1";"[1,3]";"1";"0";"1"
"722";"33";"20";"1";"26";"1";"1";"8";"2";"[1,2,3,27]";"2";"0";"1"
"723";"31";"20";"1";"14";"1";"1";"8";"2";"[1,2,3,15]";"1";"0";"1"
"724";"33";"21";"1";"26";"1";"1";"8";"2";"[1,2,3,27]";"2";"0";"1"
"725";"31";"21";"1";"14";"1";"1";"8";"2";"[1,2,3,15]";"1";"0";"1"
"726";"37";"23";"1";"19";"1";"1";"8";"1";"[1,2,3,20]";"1";"0";"1"
"727";"21";"23";"1";"27";"1";"1";"8";"1";"[1,2,3,28]";"2";"0";"1"
"728";"37";"24";"1";"19";"1";"1";"8";"1";"[1,2,3,20]";"1";"0";"1"
"729";"21";"24";"1";"27";"1";"1";"8";"1";"[1,2,3,28]";"2";"0";"1"
"730";"36";"1";"1";"6";"1";"1";"9";"1";"[1,2,3,7]";"1";"0";"1"
"731";"15";"1";"1";"34";"1";"1";"9";"2";"[1,2,3,35]";"2";"0";"1"
"732";"1";"1";"1";"15";"1";"1";"9";"1";"[1,2,3,16]";"1";"0";"1"
"733";"14";"2";"1";"29";"1";"1";"9";"2";"[1,2,3,30]";"1";"0";"1"
"734";"18";"2";"1";"5";"1";"1";"9";"1";"[1,2,3,6]";"1";"0";"1"
"735";"10";"2";"1";"22";"1";"1";"9";"1";"[1,2,3,23]";"1";"0";"1"
"736";"3";"2";"1";"3";"1";"1";"9";"1";"[1,2,4]";"1";"0";"1"
"737";"36";"2";"1";"6";"1";"1";"9";"1";"[1,2,3,7]";"1";"0";"1"
"738";"8";"2";"1";"31";"1";"1";"9";"1";"[1,2,3,32]";"1";"0";"1"
"739";"25";"2";"1";"36";"1";"1";"9";"1";"[1,2,3,37]";"1";"0";"1"
"740";"38";"2";"1";"23";"1";"1";"9";"2";"[1,2,3,24]";"1";"0";"1"
"741";"13";"2";"1";"7";"1";"1";"9";"2";"[1,2,3,8]";"2";"0";"1"
"742";"22";"2";"1";"18";"1";"1";"9";"1";"[1,2,3,19]";"1";"0";"1"
"743";"6";"2";"1";"38";"1";"1";"9";"1";"[1,2,3,39]";"2";"0";"1"
"744";"15";"2";"1";"34";"1";"1";"9";"2";"[1,2,3,35]";"2";"0";"1"
"745";"34";"2";"1";"16";"1";"1";"9";"1";"[1,2,3,17]";"1";"0";"1"
"746";"1";"3";"1";"15";"1";"1";"9";"1";"[1,2,3,16]";"1";"0";"1"
"747";"14";"3";"1";"29";"1";"1";"9";"2";"[1,2,3,30]";"1";"0";"1"
"748";"18";"3";"1";"5";"1";"1";"9";"1";"[1,2,3,6]";"1";"0";"1"
"749";"10";"3";"1";"22";"1";"1";"9";"1";"[1,2,3,23]";"1";"0";"1"
"750";"3";"3";"1";"3";"1";"1";"9";"1";"[1,2,4]";"1";"0";"1"
"751";"8";"3";"1";"31";"1";"1";"9";"1";"[1,2,3,32]";"1";"0";"1"
"752";"25";"3";"1";"36";"1";"1";"9";"1";"[1,2,3,37]";"1";"0";"1"
"753";"38";"3";"1";"23";"1";"1";"9";"2";"[1,2,3,24]";"1";"0";"1"
"754";"22";"3";"1";"18";"1";"1";"9";"1";"[1,2,3,19]";"1";"0";"1"
"755";"13";"3";"1";"7";"1";"1";"9";"2";"[1,2,3,8]";"2";"0";"1"
"756";"6";"3";"1";"38";"1";"1";"9";"1";"[1,2,3,39]";"2";"0";"1"
"757";"34";"3";"1";"16";"1";"1";"9";"1";"[1,2,3,17]";"1";"0";"1"
"758";"17";"3";"1";"11";"1";"1";"9";"2";"[1,2,3,12]";"2";"0";"1"
"759";"32";"4";"1";"30";"1";"1";"9";"1";"[1,2,3,31]";"2";"0";"1"
"760";"24";"4";"1";"8";"1";"1";"9";"1";"[1,2,3,9]";"1";"0";"1"
"761";"12";"4";"1";"1";"1";"1";"9";"1";"[2,3]";"1";"0";"1"
"762";"21";"4";"1";"27";"1";"1";"9";"1";"[1,2,3,28]";"2";"0";"1"
"763";"23";"4";"1";"10";"1";"1";"9";"1";"[1,2,3,11]";"1";"0";"1"
"764";"19";"4";"1";"35";"1";"1";"9";"2";"[1,2,3,36]";"1";"0";"1"
"765";"28";"4";"1";"28";"1";"1";"9";"1";"[1,2,3,29]";"1";"0";"1"
"766";"9";"4";"1";"39";"1";"1";"9";"1";"[1,2,3,40]";"1";"0";"1"
"767";"17";"4";"1";"11";"1";"1";"9";"2";"[1,2,3,12]";"2";"0";"1"
"768";"32";"5";"1";"30";"1";"1";"9";"1";"[1,2,3,31]";"2";"0";"1"
"769";"24";"5";"1";"8";"1";"1";"9";"1";"[1,2,3,9]";"1";"0";"1"
"770";"12";"5";"1";"1";"1";"1";"9";"1";"[2,3]";"1";"0";"1"
"771";"27";"5";"1";"25";"1";"1";"9";"2";"[1,2,3,26]";"1";"0";"1"
"772";"21";"5";"1";"27";"1";"1";"9";"1";"[1,2,3,28]";"2";"0";"1"
"773";"23";"5";"1";"10";"1";"1";"9";"1";"[1,2,3,11]";"1";"0";"1"
"774";"19";"5";"1";"35";"1";"1";"9";"2";"[1,2,3,36]";"1";"0";"1"
"775";"5";"5";"1";"32";"1";"1";"9";"2";"[1,2,3,33]";"1";"0";"1"
"776";"35";"5";"1";"33";"1";"1";"9";"1";"[1,2,3,34]";"2";"0";"1"
"777";"28";"5";"1";"28";"1";"1";"9";"1";"[1,2,3,29]";"1";"0";"1"
"778";"9";"5";"1";"39";"1";"1";"9";"1";"[1,2,3,40]";"1";"0";"1"
"779";"27";"6";"1";"25";"1";"1";"9";"2";"[1,2,3,26]";"1";"0";"1"
"780";"5";"6";"1";"32";"1";"1";"9";"2";"[1,2,3,33]";"1";"0";"1"
"781";"35";"6";"1";"33";"1";"1";"9";"1";"[1,2,3,34]";"2";"0";"1"
"782";"20";"6";"1";"9";"1";"1";"9";"2";"[1,2,3,10]";"1";"0";"1"
"783";"39";"7";"1";"13";"1";"1";"9";"2";"[1,2,3,14]";"1";"0";"1"
"784";"17";"7";"1";"11";"1";"1";"9";"2";"[1,2,3,12]";"2";"7";"1"
"785";"20";"7";"1";"9";"1";"1";"9";"2";"[1,2,3,10]";"1";"0";"1"
"786";"39";"8";"1";"13";"1";"1";"9";"2";"[1,2,3,14]";"1";"0";"1"
"787";"17";"8";"1";"11";"1";"1";"9";"2";"[1,2,3,12]";"2";"8";"1"
"788";"16";"9";"1";"20";"1";"1";"9";"1";"[1,2,3,21]";"1";"0";"1"
"789";"16";"10";"1";"20";"1";"1";"9";"1";"[1,2,3,21]";"1";"0";"1"
"790";"33";"10";"1";"26";"1";"1";"9";"2";"[1,2,3,27]";"2";"0";"1"
"791";"33";"11";"1";"26";"1";"1";"9";"2";"[1,2,3,27]";"2";"0";"1"
"792";"26";"11";"1";"24";"1";"1";"9";"1";"[1,2,3,25]";"1";"0";"1"
"793";"7";"11";"1";"37";"1";"1";"9";"1";"[1,2,3,38]";"1";"0";"1"
"794";"26";"12";"1";"24";"1";"1";"9";"1";"[1,2,3,25]";"1";"0";"1"
"795";"7";"12";"1";"37";"1";"1";"9";"1";"[1,2,3,38]";"1";"0";"1"
"796";"40";"13";"1";"12";"1";"1";"9";"1";"[1,2,3,13]";"1";"0";"1"
"797";"4";"13";"1";"17";"1";"1";"9";"1";"[1,2,3,18]";"1";"0";"1"
"798";"30";"14";"1";"21";"1";"1";"9";"1";"[1,2,3,22]";"1";"0";"1"
"799";"40";"14";"1";"12";"1";"1";"9";"1";"[1,2,3,13]";"1";"0";"1"
"800";"4";"14";"1";"17";"1";"1";"9";"1";"[1,2,3,18]";"1";"0";"1"
"801";"11";"15";"1";"4";"1";"1";"9";"1";"[1,2,3,5]";"1";"0";"1"
"802";"30";"15";"1";"21";"1";"1";"9";"1";"[1,2,3,22]";"1";"0";"1"
"803";"11";"16";"1";"4";"1";"1";"9";"1";"[1,2,3,5]";"1";"0";"1"
"804";"2";"17";"1";"40";"1";"1";"9";"1";"[1,2,3]";"1";"0";"1"
"805";"2";"18";"1";"40";"1";"1";"9";"1";"[1,2,3]";"1";"0";"1"
"806";"31";"20";"1";"14";"1";"1";"9";"2";"[1,2,3,15]";"2";"0";"1"
"807";"31";"21";"1";"14";"1";"1";"9";"2";"[1,2,3,15]";"2";"0";"1"
"808";"37";"26";"1";"19";"1";"1";"9";"1";"[1,2,3,20]";"1";"0";"1"
"809";"37";"27";"1";"19";"1";"1";"9";"1";"[1,2,3,20]";"1";"0";"1"
"810";"29";"28";"1";"2";"1";"1";"9";"1";"[1,3]";"1";"0";"1"
"811";"29";"29";"1";"2";"1";"1";"9";"1";"[1,3]";"1";"0";"1"
"812";"8";"1";"1";"31";"1";"1";"10";"1";"[1,2,3,32]";"1";"0";"1"
"813";"21";"1";"1";"27";"1";"1";"10";"1";"[1,2,3,28]";"2";"0";"1"
"814";"3";"1";"1";"3";"1";"1";"10";"1";"[1,2,4]";"1";"0";"1"
"815";"34";"1";"1";"16";"1";"1";"10";"1";"[1,2,3,17]";"1";"0";"1"
"816";"12";"1";"1";"1";"1";"1";"10";"1";"[2,3]";"1";"0";"1"
"817";"13";"2";"1";"7";"1";"1";"10";"2";"[1,2,3,8]";"2";"0";"1"
"818";"1";"2";"1";"15";"1";"1";"10";"1";"[1,2,3,16]";"1";"0";"1"
"819";"24";"2";"1";"8";"1";"1";"10";"1";"[1,2,3,9]";"1";"0";"1"
"820";"36";"2";"1";"6";"1";"1";"10";"1";"[1,2,3,7]";"2";"0";"1"
"821";"38";"2";"1";"23";"1";"1";"10";"2";"[1,2,3,24]";"1";"0";"1"
"822";"10";"2";"1";"22";"1";"1";"10";"1";"[1,2,3,23]";"1";"0";"1"
"823";"8";"2";"1";"31";"1";"1";"10";"1";"[1,2,3,32]";"1";"0";"1"
"824";"15";"2";"1";"34";"1";"1";"10";"2";"[1,2,3,35]";"2";"0";"1"
"825";"39";"2";"1";"13";"1";"1";"10";"2";"[1,2,3,14]";"2";"0";"1"
"826";"26";"2";"1";"24";"1";"1";"10";"1";"[1,2,3,25]";"1";"0";"1"
"827";"21";"2";"1";"27";"1";"1";"10";"1";"[1,2,3,28]";"2";"0";"1"
"828";"9";"2";"1";"39";"1";"1";"10";"1";"[1,2,3,40]";"1";"0";"1"
"829";"3";"2";"1";"3";"1";"1";"10";"1";"[1,2,4]";"1";"0";"1"
"830";"34";"2";"1";"16";"1";"1";"10";"1";"[1,2,3,17]";"1";"0";"1"
"831";"12";"2";"1";"1";"1";"1";"10";"1";"[2,3]";"1";"0";"1"
"832";"13";"3";"1";"7";"1";"1";"10";"2";"[1,2,3,8]";"2";"0";"1"
"833";"1";"3";"1";"15";"1";"1";"10";"1";"[1,2,3,16]";"1";"0";"1"
"834";"24";"3";"1";"8";"1";"1";"10";"1";"[1,2,3,9]";"1";"0";"1"
"835";"25";"3";"1";"36";"1";"1";"10";"1";"[1,2,3,37]";"1";"0";"1"
"836";"22";"3";"1";"18";"1";"1";"10";"1";"[1,2,3,19]";"1";"0";"1"
"837";"32";"3";"1";"30";"1";"1";"10";"1";"[1,2,3,31]";"1";"0";"1"
"838";"36";"3";"1";"6";"1";"1";"10";"1";"[1,2,3,7]";"2";"0";"1"
"839";"38";"3";"1";"23";"1";"1";"10";"2";"[1,2,3,24]";"1";"0";"1"
"840";"10";"3";"1";"22";"1";"1";"10";"1";"[1,2,3,23]";"1";"0";"1"
"841";"14";"3";"1";"29";"1";"1";"10";"2";"[1,2,3,30]";"1";"0";"1"
"842";"15";"3";"1";"34";"1";"1";"10";"2";"[1,2,3,35]";"2";"0";"1"
"843";"39";"3";"1";"13";"1";"1";"10";"2";"[1,2,3,14]";"2";"0";"1"
"844";"26";"3";"1";"24";"1";"1";"10";"1";"[1,2,3,25]";"1";"0";"1"
"845";"9";"3";"1";"39";"1";"1";"10";"1";"[1,2,3,40]";"1";"0";"1"
"846";"16";"3";"1";"20";"1";"1";"10";"1";"[1,2,3,21]";"1";"0";"1"
"847";"25";"4";"1";"36";"1";"1";"10";"1";"[1,2,3,37]";"1";"0";"1"
"848";"32";"4";"1";"30";"1";"1";"10";"1";"[1,2,3,31]";"1";"0";"1"
"849";"22";"4";"1";"18";"1";"1";"10";"1";"[1,2,3,19]";"1";"0";"1"
"850";"17";"4";"1";"11";"1";"1";"10";"2";"[1,2,3,12]";"2";"0";"1"
"851";"14";"4";"1";"29";"1";"1";"10";"2";"[1,2,3,30]";"1";"0";"1"
"852";"6";"4";"1";"38";"1";"1";"10";"1";"[1,2,3,39]";"1";"0";"1"
"853";"7";"4";"1";"37";"1";"1";"10";"1";"[1,2,3,38]";"0";"8";"1"
"854";"28";"4";"1";"28";"1";"1";"10";"1";"[1,2,3,29]";"1";"0";"1"
"855";"16";"4";"1";"20";"1";"1";"10";"1";"[1,2,3,21]";"1";"0";"1"
"856";"19";"4";"1";"35";"1";"1";"10";"2";"[1,2,3,36]";"1";"0";"1"
"857";"27";"5";"1";"25";"1";"1";"10";"2";"[1,2,3,26]";"1";"0";"1"
"858";"17";"5";"1";"11";"1";"1";"10";"2";"[1,2,3,12]";"2";"0";"1"
"859";"6";"5";"1";"38";"1";"1";"10";"1";"[1,2,3,39]";"1";"0";"1"
"860";"11";"5";"1";"4";"1";"1";"10";"1";"[1,2,3,5]";"1";"0";"1"
"861";"28";"5";"1";"28";"1";"1";"10";"1";"[1,2,3,29]";"1";"0";"1"
"862";"19";"5";"1";"35";"1";"1";"10";"2";"[1,2,3,36]";"1";"0";"1"
"863";"20";"6";"1";"9";"1";"1";"10";"2";"[1,2,3,10]";"1";"0";"1"
"864";"27";"6";"1";"25";"1";"1";"10";"2";"[1,2,3,26]";"1";"0";"1"
"865";"33";"6";"1";"26";"1";"1";"10";"2";"[1,2,3,27]";"2";"0";"1"
"866";"11";"6";"1";"4";"1";"1";"10";"1";"[1,2,3,5]";"1";"0";"1"
"867";"40";"7";"1";"12";"1";"1";"10";"1";"[1,2,3,13]";"1";"0";"1"
"868";"20";"7";"1";"9";"1";"1";"10";"2";"[1,2,3,10]";"1";"0";"1"
"869";"23";"7";"1";"10";"1";"1";"10";"1";"[1,2,3,11]";"1";"0";"1"
"870";"33";"7";"1";"26";"1";"1";"10";"2";"[1,2,3,27]";"2";"0";"1"
"871";"4";"7";"1";"17";"1";"1";"10";"1";"[1,2,3,18]";"1";"0";"1"
"872";"40";"8";"1";"12";"1";"1";"10";"1";"[1,2,3,13]";"1";"0";"1"
"873";"23";"8";"1";"10";"1";"1";"10";"1";"[1,2,3,11]";"1";"0";"1"
"874";"35";"8";"1";"33";"1";"1";"10";"1";"[1,2,3,34]";"2";"0";"1"
"875";"4";"8";"1";"17";"1";"1";"10";"1";"[1,2,3,18]";"1";"0";"1"
"876";"7";"9";"1";"37";"1";"1";"10";"1";"[1,2,3,38]";"0";"7";"1"
"877";"35";"9";"1";"33";"1";"1";"10";"1";"[1,2,3,34]";"2";"0";"1"
"878";"18";"9";"1";"5";"1";"1";"10";"1";"[1,2,3,6]";"1";"0";"1"
"879";"7";"10";"1";"37";"1";"1";"10";"1";"[1,2,3,38]";"0";"4";"1"
"880";"18";"10";"1";"5";"1";"1";"10";"1";"[1,2,3,6]";"1";"0";"1"
"881";"2";"12";"1";"40";"1";"1";"10";"1";"[1,2,3]";"2";"0";"1"
"882";"2";"13";"1";"40";"1";"1";"10";"1";"[1,2,3]";"2";"0";"1"
"883";"7";"14";"1";"37";"1";"1";"10";"1";"[1,2,3,38]";"0";"9";"1"
"884";"37";"15";"1";"19";"1";"1";"10";"1";"[1,2,3,20]";"1";"0";"1"
"885";"37";"16";"1";"19";"1";"1";"10";"1";"[1,2,3,20]";"1";"0";"1"
"886";"7";"16";"1";"37";"1";"1";"10";"1";"[1,2,3,38]";"1";"9";"1"
"887";"7";"17";"1";"37";"1";"1";"10";"1";"[1,2,3,38]";"1";"9";"1"
"888";"31";"20";"1";"14";"1";"1";"10";"2";"[1,2,3,15]";"2";"0";"1"
"889";"30";"21";"1";"21";"1";"1";"10";"1";"[1,2,3,22]";"1";"0";"1"
"890";"31";"21";"1";"14";"1";"1";"10";"2";"[1,2,3,15]";"2";"0";"1"
"891";"5";"22";"1";"32";"1";"1";"10";"2";"[1,2,3,33]";"1";"0";"1"
"892";"30";"22";"1";"21";"1";"1";"10";"1";"[1,2,3,22]";"1";"0";"1"
"893";"5";"23";"1";"32";"1";"1";"10";"2";"[1,2,3,33]";"1";"0";"1"
"894";"29";"23";"1";"2";"1";"1";"10";"1";"[1,3]";"1";"0";"1"
"895";"29";"24";"1";"2";"1";"1";"10";"1";"[1,3]";"1";"0";"1"
"896";"36";"1";"1";"6";"1";"1";"11";"1";"[1,2,3,7]";"1";"0";"1"
"897";"3";"1";"1";"3";"1";"1";"11";"1";"[1,2,4]";"1";"0";"1"
"898";"12";"1";"1";"1";"1";"1";"11";"1";"[2,3]";"1";"0";"1"
"899";"8";"1";"1";"31";"1";"1";"11";"1";"[1,2,3,32]";"1";"0";"1"
"900";"11";"1";"1";"4";"1";"1";"11";"1";"[1,2,3,5]";"1";"0";"1"
"901";"27";"2";"1";"25";"1";"1";"11";"2";"[1,2,3,26]";"1";"0";"1"
"902";"34";"2";"1";"16";"1";"1";"11";"1";"[1,2,3,17]";"1";"0";"1"
"903";"14";"2";"1";"29";"1";"1";"11";"2";"[1,2,3,30]";"2";"0";"1"
"904";"36";"2";"1";"6";"1";"1";"11";"1";"[1,2,3,7]";"1";"0";"1"
"905";"22";"2";"1";"18";"1";"1";"11";"1";"[1,2,3,19]";"1";"0";"1"
"906";"39";"2";"1";"13";"1";"1";"11";"2";"[1,2,3,14]";"2";"0";"1"
"907";"24";"2";"1";"8";"1";"1";"11";"1";"[1,2,3,9]";"1";"0";"1"
"908";"3";"2";"1";"3";"1";"1";"11";"1";"[1,2,4]";"1";"0";"1"
"909";"12";"2";"1";"1";"1";"1";"11";"1";"[2,3]";"1";"0";"1"
"910";"33";"2";"1";"26";"1";"1";"11";"2";"[1,2,3,27]";"2";"0";"1"
"911";"18";"2";"1";"5";"1";"1";"11";"1";"[1,2,3,6]";"1";"0";"1"
"912";"17";"2";"1";"11";"1";"1";"11";"2";"[1,2,3,12]";"2";"0";"1"
"913";"8";"2";"1";"31";"1";"1";"11";"1";"[1,2,3,32]";"1";"0";"1"
"914";"19";"2";"1";"35";"1";"1";"11";"2";"[1,2,3,36]";"1";"0";"1"
"915";"11";"2";"1";"4";"1";"1";"11";"1";"[1,2,3,5]";"1";"0";"1"
"916";"38";"2";"1";"23";"1";"1";"11";"2";"[1,2,3,24]";"1";"0";"1"
"917";"15";"2";"1";"34";"1";"1";"11";"2";"[1,2,3,35]";"1";"0";"1"
"918";"10";"3";"1";"22";"1";"1";"11";"1";"[1,2,3,23]";"1";"0";"1"
"919";"27";"3";"1";"25";"1";"1";"11";"2";"[1,2,3,26]";"1";"0";"1"
"920";"34";"3";"1";"16";"1";"1";"11";"1";"[1,2,3,17]";"1";"0";"1"
"921";"1";"3";"1";"15";"1";"1";"11";"1";"[1,2,3,16]";"1";"0";"1"
"922";"14";"3";"1";"29";"1";"1";"11";"2";"[1,2,3,30]";"2";"0";"1"
"923";"25";"3";"1";"36";"1";"1";"11";"1";"[1,2,3,37]";"1";"0";"1"
"924";"32";"3";"1";"30";"1";"1";"11";"1";"[1,2,3,31]";"2";"0";"1"
"925";"22";"3";"1";"18";"1";"1";"11";"1";"[1,2,3,19]";"1";"0";"1"
"926";"16";"3";"1";"20";"1";"1";"11";"1";"[1,2,3,21]";"1";"0";"1"
"927";"39";"3";"1";"13";"1";"1";"11";"2";"[1,2,3,14]";"2";"0";"1"
"928";"24";"3";"1";"8";"1";"1";"11";"1";"[1,2,3,9]";"1";"0";"1"
"929";"33";"3";"1";"26";"1";"1";"11";"2";"[1,2,3,27]";"2";"0";"1"
"930";"18";"3";"1";"5";"1";"1";"11";"1";"[1,2,3,6]";"1";"0";"1"
"931";"17";"3";"1";"11";"1";"1";"11";"2";"[1,2,3,12]";"2";"0";"1"
"932";"19";"3";"1";"35";"1";"1";"11";"2";"[1,2,3,36]";"1";"0";"1"
"933";"38";"3";"1";"23";"1";"1";"11";"2";"[1,2,3,24]";"1";"0";"1"
"934";"15";"3";"1";"34";"1";"1";"11";"2";"[1,2,3,35]";"1";"0";"1"
"935";"30";"3";"1";"21";"1";"1";"11";"1";"[1,2,3,22]";"1";"0";"1"
"936";"2";"3";"1";"40";"1";"1";"11";"1";"[1,2,3]";"1";"0";"1"
"937";"13";"4";"1";"7";"1";"1";"11";"2";"[1,2,3,8]";"2";"0";"1"
"938";"10";"4";"1";"22";"1";"1";"11";"1";"[1,2,3,23]";"1";"0";"1"
"939";"7";"4";"1";"37";"1";"1";"11";"1";"[1,2,3,38]";"1";"0";"1"
"940";"1";"4";"1";"15";"1";"1";"11";"1";"[1,2,3,16]";"1";"0";"1"
"941";"25";"4";"1";"36";"1";"1";"11";"1";"[1,2,3,37]";"1";"0";"1"
"942";"32";"4";"1";"30";"1";"1";"11";"1";"[1,2,3,31]";"2";"0";"1"
"943";"9";"4";"1";"39";"1";"1";"11";"1";"[1,2,3,40]";"1";"0";"1"
"944";"16";"4";"1";"20";"1";"1";"11";"1";"[1,2,3,21]";"1";"0";"1"
"945";"20";"4";"1";"9";"1";"1";"11";"2";"[1,2,3,10]";"2";"0";"1"
"946";"2";"4";"1";"40";"1";"1";"11";"1";"[1,2,3]";"1";"0";"1"
"947";"30";"4";"1";"21";"1";"1";"11";"1";"[1,2,3,22]";"1";"0";"1"
"948";"13";"5";"1";"7";"1";"1";"11";"2";"[1,2,3,8]";"2";"0";"1"
"949";"7";"5";"1";"37";"1";"1";"11";"1";"[1,2,3,38]";"1";"0";"1"
"950";"28";"5";"1";"28";"1";"1";"11";"1";"[1,2,3,29]";"1";"0";"1"
"951";"9";"5";"1";"39";"1";"1";"11";"1";"[1,2,3,40]";"1";"0";"1"
"952";"37";"5";"1";"19";"1";"1";"11";"1";"[1,2,3,20]";"2";"0";"1"
"953";"20";"5";"1";"9";"1";"1";"11";"2";"[1,2,3,10]";"2";"0";"1"
"954";"28";"6";"1";"28";"1";"1";"11";"1";"[1,2,3,29]";"1";"0";"1"
"955";"10";"6";"1";"22";"1";"1";"11";"1";"[1,2,3,23]";"1";"12";"1"
"956";"37";"6";"1";"19";"1";"1";"11";"1";"[1,2,3,20]";"2";"0";"1"
"957";"26";"6";"1";"24";"1";"1";"11";"1";"[1,2,3,25]";"1";"0";"1"
"958";"21";"6";"1";"27";"1";"1";"11";"1";"[1,2,3,28]";"2";"0";"1"
"959";"6";"7";"1";"38";"1";"1";"11";"1";"[1,2,3,39]";"1";"0";"1"
"960";"26";"7";"1";"24";"1";"1";"11";"1";"[1,2,3,25]";"1";"0";"1"
"961";"10";"7";"1";"22";"1";"1";"11";"1";"[1,2,3,23]";"1";"11";"1"
"962";"21";"7";"1";"27";"1";"1";"11";"1";"[1,2,3,28]";"2";"0";"1"
"963";"6";"8";"1";"38";"1";"1";"11";"1";"[1,2,3,39]";"1";"0";"1"
"964";"35";"9";"1";"33";"1";"1";"11";"1";"[1,2,3,34]";"2";"0";"1"
"965";"35";"10";"1";"33";"1";"1";"11";"1";"[1,2,3,34]";"2";"0";"1"
"966";"40";"10";"1";"12";"1";"1";"11";"1";"[1,2,3,13]";"1";"0";"1"
"967";"40";"11";"1";"12";"1";"1";"11";"1";"[1,2,3,13]";"1";"0";"1"
"968";"5";"12";"1";"32";"1";"1";"11";"2";"[1,2,3,33]";"1";"0";"1"
"969";"5";"13";"1";"32";"1";"1";"11";"2";"[1,2,3,33]";"1";"0";"1"
"970";"29";"14";"1";"2";"1";"1";"11";"1";"[1,3]";"1";"0";"1"
"971";"29";"15";"1";"2";"1";"1";"11";"1";"[1,3]";"1";"0";"1"
"972";"23";"19";"1";"10";"1";"1";"11";"1";"[1,2,3,11]";"1";"0";"1"
"973";"23";"20";"1";"10";"1";"1";"11";"1";"[1,2,3,11]";"1";"0";"1"
"974";"4";"22";"1";"17";"1";"1";"11";"1";"[1,2,3,18]";"1";"0";"1"
"975";"4";"23";"1";"17";"1";"1";"11";"1";"[1,2,3,18]";"1";"0";"1"
"976";"31";"23";"1";"14";"1";"1";"11";"2";"[1,2,3,15]";"2";"0";"1"
"977";"31";"24";"1";"14";"1";"1";"11";"2";"[1,2,3,15]";"2";"0";"1"
"978";"36";"0";"1";"6";"1";"1";"12";"1";"[1,2,3,7]";"1";"0";"1"
"979";"34";"1";"1";"16";"1";"1";"12";"1";"[1,2,3,17]";"1";"0";"1"
"980";"8";"1";"1";"31";"1";"1";"12";"1";"[1,2,3,32]";"1";"0";"1"
"981";"3";"1";"1";"3";"1";"1";"12";"1";"[1,2,4]";"1";"0";"1"
"982";"32";"1";"1";"30";"1";"1";"12";"1";"[1,2,3,31]";"1";"0";"1"
"983";"39";"1";"1";"13";"1";"1";"12";"2";"[1,2,3,14]";"2";"0";"1"
"984";"10";"1";"1";"22";"1";"1";"12";"1";"[1,2,3,23]";"1";"0";"1"
"985";"36";"1";"1";"6";"1";"1";"12";"1";"[1,2,3,7]";"1";"0";"1"
"986";"27";"2";"1";"25";"1";"1";"12";"2";"[1,2,3,26]";"1";"0";"1"
"987";"38";"2";"1";"23";"1";"1";"12";"2";"[1,2,3,24]";"1";"0";"1"
"988";"12";"2";"1";"1";"1";"1";"12";"1";"[2,3]";"1";"0";"1"
"989";"15";"2";"1";"34";"1";"1";"12";"2";"[1,2,3,35]";"2";"0";"1"
"990";"13";"2";"1";"7";"1";"1";"12";"2";"[1,2,3,8]";"2";"0";"1"
"991";"16";"2";"1";"20";"1";"1";"12";"1";"[1,2,3,21]";"1";"0";"1"
"992";"34";"2";"1";"16";"1";"1";"12";"1";"[1,2,3,17]";"1";"0";"1"
"993";"3";"2";"1";"3";"1";"1";"12";"1";"[1,2,4]";"1";"0";"1"
"994";"8";"2";"1";"31";"1";"1";"12";"1";"[1,2,3,32]";"1";"0";"1"
"995";"17";"2";"1";"11";"1";"1";"12";"2";"[1,2,3,12]";"2";"0";"1"
"996";"32";"2";"1";"30";"1";"1";"12";"1";"[1,2,3,31]";"1";"0";"1"
"997";"39";"2";"1";"13";"1";"1";"12";"2";"[1,2,3,14]";"2";"0";"1"
"998";"1";"2";"1";"15";"1";"1";"12";"1";"[1,2,3,16]";"1";"0";"1"
"999";"10";"2";"1";"22";"1";"1";"12";"1";"[1,2,3,23]";"1";"0";"1"
"1000";"33";"3";"1";"26";"1";"1";"12";"2";"[1,2,3,27]";"2";"0";"1"
"1001";"27";"3";"1";"25";"1";"1";"12";"2";"[1,2,3,26]";"1";"0";"1"
"1002";"40";"3";"1";"12";"1";"1";"12";"1";"[1,2,3,13]";"1";"0";"1"
"1003";"38";"3";"1";"23";"1";"1";"12";"2";"[1,2,3,24]";"1";"0";"1"
"1004";"12";"3";"1";"1";"1";"1";"12";"1";"[2,3]";"1";"0";"1"
"1005";"11";"3";"1";"4";"1";"1";"12";"1";"[1,2,3,5]";"1";"0";"1"
"1006";"15";"3";"1";"34";"1";"1";"12";"2";"[1,2,3,35]";"2";"0";"1"
"1007";"30";"3";"1";"21";"1";"1";"12";"1";"[1,2,3,22]";"1";"0";"1"
"1008";"13";"3";"1";"7";"1";"1";"12";"2";"[1,2,3,8]";"2";"0";"1"
"1009";"16";"3";"1";"20";"1";"1";"12";"1";"[1,2,3,21]";"1";"0";"1"
"1010";"37";"3";"1";"19";"1";"1";"12";"1";"[1,2,3,20]";"1";"0";"1"
"1011";"25";"3";"1";"36";"1";"1";"12";"1";"[1,2,3,37]";"1";"0";"1"
"1012";"17";"3";"1";"11";"1";"1";"12";"2";"[1,2,3,12]";"2";"0";"1"
"1013";"1";"3";"1";"15";"1";"1";"12";"1";"[1,2,3,16]";"1";"0";"1"
"1014";"19";"3";"1";"35";"1";"1";"12";"2";"[1,2,3,36]";"1";"0";"1"
"1015";"33";"4";"1";"26";"1";"1";"12";"2";"[1,2,3,27]";"2";"0";"1"
"1016";"5";"4";"1";"32";"1";"1";"12";"2";"[1,2,3,33]";"1";"0";"1"
"1017";"24";"4";"1";"8";"1";"1";"12";"1";"[1,2,3,9]";"1";"0";"1"
"1018";"40";"4";"1";"12";"1";"1";"12";"1";"[1,2,3,13]";"1";"0";"1"
"1019";"18";"4";"1";"5";"1";"1";"12";"1";"[1,2,3,6]";"1";"0";"1"
"1020";"11";"4";"1";"4";"1";"1";"12";"1";"[1,2,3,5]";"1";"0";"1"
"1021";"30";"4";"1";"21";"1";"1";"12";"1";"[1,2,3,22]";"1";"0";"1"
"1022";"37";"4";"1";"19";"1";"1";"12";"1";"[1,2,3,20]";"1";"0";"1"
"1023";"25";"4";"1";"36";"1";"1";"12";"1";"[1,2,3,37]";"1";"0";"1"
"1024";"19";"4";"1";"35";"1";"1";"12";"2";"[1,2,3,36]";"1";"0";"1"
"1025";"26";"4";"1";"24";"1";"1";"12";"1";"[1,2,3,25]";"1";"0";"1"
"1026";"21";"4";"1";"27";"1";"1";"12";"1";"[1,2,3,28]";"2";"0";"1"
"1027";"22";"5";"1";"18";"1";"1";"12";"1";"[1,2,3,19]";"1";"0";"1"
"1028";"5";"5";"1";"32";"1";"1";"12";"2";"[1,2,3,33]";"1";"0";"1"
"1029";"24";"5";"1";"8";"1";"1";"12";"1";"[1,2,3,9]";"1";"0";"1"
"1030";"9";"5";"1";"39";"1";"1";"12";"1";"[1,2,3,40]";"1";"0";"1"
"1031";"18";"5";"1";"5";"1";"1";"12";"1";"[1,2,3,6]";"1";"0";"1"
"1032";"7";"5";"1";"37";"1";"1";"12";"1";"[1,2,3,38]";"1";"0";"1"
"1033";"23";"5";"1";"10";"1";"1";"12";"1";"[1,2,3,11]";"1";"0";"1"
"1034";"6";"5";"1";"38";"1";"1";"12";"1";"[1,2,3,39]";"1";"0";"1"
"1035";"26";"5";"1";"24";"1";"1";"12";"1";"[1,2,3,25]";"1";"0";"1"
"1036";"21";"5";"1";"27";"1";"1";"12";"1";"[1,2,3,28]";"2";"0";"1"
"1037";"22";"6";"1";"18";"1";"1";"12";"1";"[1,2,3,19]";"1";"0";"1"
"1038";"9";"6";"1";"39";"1";"1";"12";"1";"[1,2,3,40]";"1";"0";"1"
"1039";"7";"6";"1";"37";"1";"1";"12";"1";"[1,2,3,38]";"1";"0";"1"
"1040";"14";"6";"1";"29";"1";"1";"12";"2";"[1,2,3,30]";"1";"0";"1"
"1041";"20";"6";"1";"9";"1";"1";"12";"2";"[1,2,3,10]";"1";"0";"1"
"1042";"23";"6";"1";"10";"1";"1";"12";"1";"[1,2,3,11]";"1";"0";"1"
"1043";"6";"6";"1";"38";"1";"1";"12";"1";"[1,2,3,39]";"1";"0";"1"
"1044";"2";"7";"1";"40";"1";"1";"12";"1";"[1,2,3]";"1";"0";"1"
"1045";"14";"7";"1";"29";"1";"1";"12";"2";"[1,2,3,30]";"1";"0";"1"
"1046";"20";"7";"1";"9";"1";"1";"12";"2";"[1,2,3,10]";"1";"0";"1"
"1047";"28";"7";"1";"28";"1";"1";"12";"1";"[1,2,3,29]";"1";"0";"1"
"1048";"2";"8";"1";"40";"1";"1";"12";"1";"[1,2,3]";"1";"0";"1"
"1049";"28";"8";"1";"28";"1";"1";"12";"1";"[1,2,3,29]";"1";"0";"1"
"1050";"35";"11";"1";"33";"1";"1";"12";"1";"[1,2,3,34]";"2";"0";"1"
"1051";"35";"12";"1";"33";"1";"1";"12";"1";"[1,2,3,34]";"2";"0";"1"
"1052";"31";"13";"1";"14";"1";"1";"12";"2";"[1,2,3,15]";"2";"0";"1"
"1053";"4";"13";"1";"17";"1";"1";"12";"1";"[1,2,3,18]";"1";"0";"1"
"1054";"31";"14";"1";"14";"1";"1";"12";"2";"[1,2,3,15]";"2";"0";"1"
"1055";"4";"14";"1";"17";"1";"1";"12";"1";"[1,2,3,18]";"1";"0";"1"
"1056";"29";"26";"1";"2";"1";"1";"12";"1";"[1,3]";"1";"0";"1"
"1057";"29";"27";"1";"2";"1";"1";"12";"1";"[1,3]";"1";"0";"1"
"1058";"34";"0";"1";"39";"1";"2";"12";"1";"[1,2,3,40]";"1";"0";"1"
"1059";"18";"0";"1";"12";"1";"2";"12";"2";"[1,2,3,13]";"1";"0";"1"
"1060";"3";"0";"1";"27";"1";"2";"12";"2";"[1,2,3,28]";"2";"0";"1"
"1061";"8";"0";"1";"35";"1";"2";"12";"2";"[1,2,3,36]";"1";"0";"1"
"1062";"21";"0";"1";"21";"1";"2";"12";"2";"[1,2,3,22]";"1";"0";"1"
"1063";"10";"0";"1";"31";"1";"2";"12";"2";"[1,2,3,32]";"1";"0";"1"
"1064";"14";"0";"1";"11";"1";"2";"12";"1";"[1,2,3,12]";"2";"0";"1"
"1065";"24";"0";"1";"34";"1";"2";"12";"1";"[1,2,3,35]";"2";"0";"1"
"1066";"36";"0";"1";"7";"1";"2";"12";"2";"[1,2,3,8]";"2";"0";"1"
"1067";"22";"0";"1";"28";"1";"2";"12";"1";"[1,2,3,29]";"1";"0";"1"
"1068";"31";"0";"1";"22";"1";"2";"12";"1";"[1,2,3,23]";"1";"0";"1"
"1069";"5";"0";"1";"38";"1";"2";"12";"1";"[1,2,3,39]";"1";"0";"1"
"1070";"32";"0";"1";"8";"1";"2";"12";"1";"[1,2,3,9]";"1";"0";"1"
"1071";"7";"0";"1";"37";"1";"2";"12";"2";"[1,2,3,38]";"1";"0";"1"
"1072";"39";"0";"1";"26";"1";"2";"12";"1";"[1,2,3,27]";"2";"0";"1"
"1073";"1";"0";"1";"1";"1";"2";"12";"2";"[2,3]";"1";"0";"1"
"1074";"11";"0";"1";"36";"1";"2";"12";"2";"[1,2,3,37]";"1";"0";"1"
"1075";"38";"0";"1";"17";"1";"2";"12";"2";"[1,2,3,18]";"1";"0";"1"
"1076";"9";"0";"1";"29";"1";"2";"12";"1";"[1,2,3,30]";"1";"0";"1"
"1077";"16";"0";"1";"19";"1";"2";"12";"2";"[1,2,3,20]";"1";"0";"1"
"1078";"23";"0";"1";"10";"1";"2";"12";"2";"[1,2,3,11]";"1";"0";"1"
"1079";"15";"0";"1";"23";"1";"2";"12";"1";"[1,2,3,24]";"1";"0";"1"
"1080";"37";"0";"1";"15";"1";"2";"12";"1";"[1,2,3,16]";"1";"0";"1"
"1081";"12";"0";"1";"18";"1";"2";"12";"2";"[1,2,3,19]";"1";"0";"1"
"1082";"30";"0";"1";"32";"1";"2";"12";"2";"[1,2,3,33]";"1";"0";"1"
"1083";"4";"0";"1";"13";"1";"2";"12";"2";"[1,2,3,14]";"2";"0";"1"
"1084";"13";"0";"1";"16";"1";"2";"12";"2";"[1,2,3,17]";"1";"0";"1"
"1085";"19";"0";"1";"14";"1";"2";"12";"2";"[1,2,3,15]";"2";"0";"1"
"1086";"28";"0";"1";"40";"1";"2";"12";"1";"[1,2,3]";"1";"0";"1"
"1087";"17";"0";"1";"25";"1";"2";"12";"2";"[1,2,3,26]";"1";"0";"1"
"1088";"25";"0";"1";"6";"1";"2";"12";"2";"[1,2,3,7]";"1";"0";"1"
"1089";"26";"0";"1";"9";"1";"2";"12";"2";"[1,2,3,10]";"1";"0";"1"
"1090";"40";"0";"1";"20";"1";"2";"12";"2";"[1,2,3,21]";"1";"0";"1"
"1091";"6";"0";"1";"33";"1";"2";"12";"1";"[1,2,3,34]";"2";"0";"1"
"1092";"2";"0";"1";"5";"1";"2";"12";"2";"[1,2,3,6]";"1";"0";"1"
"1093";"33";"0";"1";"4";"1";"2";"12";"2";"[1,2,3,5]";"1";"0";"1"
"1094";"20";"0";"1";"2";"1";"2";"12";"2";"[1,3]";"1";"0";"1"
"1095";"29";"0";"1";"24";"1";"2";"12";"2";"[1,2,3,25]";"1";"0";"1"
"1096";"35";"0";"1";"3";"1";"2";"12";"2";"[1,2,4]";"1";"0";"1"
"1097";"27";"0";"1";"30";"1";"2";"12";"2";"[1,2,3,31]";"1";"0";"1"
"1098";"14";"2";"1";"11";"1";"2";"1";"1";"[1,2,3,12]";"2";"0";"1"
"1099";"27";"3";"1";"30";"1";"2";"1";"2";"[1,2,3,31]";"2";"0";"1"
"1100";"14";"3";"1";"11";"1";"2";"1";"1";"[1,2,3,12]";"2";"0";"1"
"1101";"18";"3";"1";"12";"1";"2";"1";"2";"[1,2,3,13]";"2";"0";"1"
"1102";"40";"3";"1";"20";"1";"2";"1";"2";"[1,2,3,21]";"2";"0";"1"
"1103";"15";"3";"1";"23";"1";"2";"1";"1";"[1,2,3,24]";"1";"0";"1"
"1104";"38";"4";"1";"17";"1";"2";"1";"2";"[1,2,3,18]";"2";"0";"1"
"1105";"6";"4";"1";"33";"1";"2";"1";"1";"[1,2,3,34]";"1";"0";"1"
"1106";"27";"4";"1";"30";"1";"2";"1";"2";"[1,2,3,31]";"2";"0";"1"
"1107";"8";"4";"1";"35";"1";"2";"1";"2";"[1,2,3,36]";"2";"0";"1"
"1108";"18";"4";"1";"12";"1";"2";"1";"2";"[1,2,3,13]";"2";"0";"1"
"1109";"40";"4";"1";"20";"1";"2";"1";"2";"[1,2,3,21]";"2";"0";"1"
"1110";"33";"4";"1";"4";"1";"2";"1";"2";"[1,2,3,5]";"1";"0";"1"
"1111";"15";"4";"1";"23";"1";"2";"1";"1";"[1,2,3,24]";"1";"0";"1"
"1112";"38";"5";"1";"17";"1";"2";"1";"2";"[1,2,3,18]";"2";"0";"1"
"1113";"9";"5";"1";"29";"1";"2";"1";"1";"[1,2,3,30]";"1";"0";"1"
"1114";"36";"5";"1";"7";"1";"2";"1";"2";"[1,2,3,8]";"2";"0";"1"
"1115";"16";"5";"1";"19";"1";"2";"1";"2";"[1,2,3,20]";"2";"0";"1"
"1116";"6";"5";"1";"33";"1";"2";"1";"1";"[1,2,3,34]";"1";"0";"1"
"1117";"8";"5";"1";"35";"1";"2";"1";"2";"[1,2,3,36]";"2";"0";"1"
"1118";"3";"5";"1";"27";"1";"2";"1";"2";"[1,2,3,28]";"2";"0";"1"
"1119";"26";"5";"1";"9";"1";"2";"1";"2";"[1,2,3,10]";"2";"0";"1"
"1120";"33";"5";"1";"4";"1";"2";"1";"2";"[1,2,3,5]";"1";"0";"1"
"1121";"9";"6";"1";"29";"1";"2";"1";"1";"[1,2,3,30]";"1";"0";"1"
"1122";"36";"6";"1";"7";"1";"2";"1";"2";"[1,2,3,8]";"2";"0";"1"
"1123";"16";"6";"1";"19";"1";"2";"1";"2";"[1,2,3,20]";"2";"0";"1"
"1124";"21";"6";"1";"21";"1";"2";"1";"2";"[1,2,3,22]";"2";"0";"1"
"1125";"10";"6";"1";"31";"1";"2";"1";"2";"[1,2,3,32]";"2";"0";"1"
"1126";"19";"6";"1";"14";"1";"2";"1";"2";"[1,2,3,15]";"2";"0";"1"
"1127";"25";"6";"1";"6";"1";"2";"1";"2";"[1,2,3,7]";"2";"0";"1"
"1128";"3";"6";"1";"27";"1";"2";"1";"2";"[1,2,3,28]";"2";"0";"1"
"1129";"23";"6";"1";"10";"1";"2";"1";"2";"[1,2,3,11]";"2";"0";"1"
"1130";"26";"6";"1";"9";"1";"2";"1";"2";"[1,2,3,10]";"2";"0";"1"
"1131";"24";"6";"1";"34";"1";"2";"1";"1";"[1,2,3,35]";"1";"0";"1"
"1132";"32";"6";"1";"8";"1";"2";"1";"1";"[1,2,3,9]";"1";"0";"1"
"1133";"1";"7";"1";"1";"1";"2";"1";"2";"[2,3]";"2";"0";"1"
"1134";"7";"7";"1";"37";"1";"2";"1";"2";"[1,2,3,38]";"2";"0";"1"
"1135";"20";"7";"1";"2";"1";"2";"1";"2";"[1,3]";"2";"0";"1"
"1136";"21";"7";"1";"21";"1";"2";"1";"2";"[1,2,3,22]";"2";"0";"1"
"1137";"25";"7";"1";"6";"1";"2";"1";"2";"[1,2,3,7]";"2";"0";"1"
"1138";"10";"7";"1";"31";"1";"2";"1";"2";"[1,2,3,32]";"2";"0";"1"
"1139";"19";"7";"1";"14";"1";"2";"1";"2";"[1,2,3,15]";"2";"0";"1"
"1140";"34";"7";"1";"39";"1";"2";"1";"1";"[1,2,3,40]";"1";"0";"1"
"1141";"17";"7";"1";"25";"1";"2";"1";"2";"[1,2,3,26]";"2";"0";"1"
"1142";"23";"7";"1";"10";"1";"2";"1";"2";"[1,2,3,11]";"2";"0";"1"
"1143";"24";"7";"1";"34";"1";"2";"1";"1";"[1,2,3,35]";"1";"0";"1"
"1144";"32";"7";"1";"8";"1";"2";"1";"1";"[1,2,3,9]";"1";"0";"1"
"1145";"39";"8";"1";"26";"1";"2";"1";"1";"[1,2,3,27]";"1";"0";"1"
"1146";"1";"8";"1";"1";"1";"2";"1";"2";"[2,3]";"2";"0";"1"
"1147";"4";"8";"1";"13";"1";"2";"1";"2";"[1,2,3,14]";"2";"0";"1"
"1148";"7";"8";"1";"37";"1";"2";"1";"2";"[1,2,3,38]";"2";"0";"1"
"1149";"20";"8";"1";"2";"1";"2";"1";"2";"[1,3]";"2";"0";"1"
"1150";"34";"8";"1";"39";"1";"2";"1";"1";"[1,2,3,40]";"1";"0";"1"
"1151";"28";"8";"1";"40";"1";"2";"1";"1";"[1,2,3]";"1";"0";"1"
"1152";"17";"8";"1";"25";"1";"2";"1";"2";"[1,2,3,26]";"2";"0";"1"
"1153";"11";"9";"1";"36";"1";"2";"1";"2";"[1,2,3,37]";"2";"0";"1"
"1154";"35";"9";"1";"3";"1";"2";"1";"2";"[1,2,4]";"2";"0";"1"
"1155";"39";"9";"1";"26";"1";"2";"1";"1";"[1,2,3,27]";"1";"0";"1"
"1156";"4";"9";"1";"13";"1";"2";"1";"2";"[1,2,3,14]";"2";"0";"1"
"1157";"30";"9";"1";"32";"1";"2";"1";"2";"[1,2,3,33]";"2";"0";"1"
"1158";"22";"9";"1";"28";"1";"2";"1";"1";"[1,2,3,29]";"1";"0";"1"
"1159";"12";"9";"1";"18";"1";"2";"1";"2";"[1,2,3,19]";"2";"0";"1"
"1160";"28";"9";"1";"40";"1";"2";"1";"1";"[1,2,3]";"1";"0";"1"
"1161";"11";"10";"1";"36";"1";"2";"1";"2";"[1,2,3,37]";"2";"0";"1"
"1162";"35";"10";"1";"3";"1";"2";"1";"2";"[1,2,4]";"2";"0";"1"
"1163";"13";"10";"1";"16";"1";"2";"1";"2";"[1,2,3,17]";"2";"0";"1"
"1164";"30";"10";"1";"32";"1";"2";"1";"2";"[1,2,3,33]";"2";"0";"1"
"1165";"22";"10";"1";"28";"1";"2";"1";"1";"[1,2,3,29]";"1";"0";"1"
"1166";"12";"10";"1";"18";"1";"2";"1";"2";"[1,2,3,19]";"2";"0";"1"
"1167";"13";"11";"1";"16";"1";"2";"1";"2";"[1,2,3,17]";"2";"0";"1"
"1168";"5";"11";"1";"38";"1";"2";"1";"1";"[1,2,3,39]";"1";"0";"1"
"1169";"37";"12";"1";"15";"1";"2";"1";"1";"[1,2,3,16]";"1";"0";"1"
"1170";"5";"12";"1";"38";"1";"2";"1";"1";"[1,2,3,39]";"1";"0";"1"
"1171";"31";"13";"1";"22";"1";"2";"1";"1";"[1,2,3,23]";"1";"0";"1"
"1172";"37";"13";"1";"15";"1";"2";"1";"1";"[1,2,3,16]";"1";"0";"1"
"1173";"31";"14";"1";"22";"1";"2";"1";"1";"[1,2,3,23]";"1";"0";"1"
"1174";"29";"21";"1";"24";"1";"2";"1";"2";"[1,2,3,25]";"2";"0";"1"
"1175";"29";"22";"1";"24";"1";"2";"1";"2";"[1,2,3,25]";"2";"0";"1"
"1176";"2";"28";"1";"5";"1";"2";"1";"2";"[1,2,3,6]";"2";"0";"1"
"1177";"2";"29";"1";"5";"1";"2";"1";"2";"[1,2,3,6]";"2";"0";"1"
"1178";"36";"2";"1";"7";"1";"2";"2";"2";"[1,2,3,8]";"2";"0";"1"
"1179";"14";"2";"1";"11";"1";"2";"2";"1";"[1,2,3,12]";"2";"0";"1"
"1180";"36";"3";"1";"7";"1";"2";"2";"2";"[1,2,3,8]";"2";"0";"1"
"1181";"32";"3";"1";"8";"1";"2";"2";"1";"[1,2,3,9]";"1";"0";"1"
"1182";"12";"3";"1";"18";"1";"2";"2";"2";"[1,2,3,19]";"2";"0";"1"
"1183";"16";"3";"1";"19";"1";"2";"2";"2";"[1,2,3,20]";"2";"0";"1"
"1184";"40";"3";"1";"20";"1";"2";"2";"2";"[1,2,3,21]";"2";"0";"1"
"1185";"38";"3";"1";"17";"1";"2";"2";"2";"[1,2,3,18]";"2";"0";"1"
"1186";"14";"3";"1";"11";"1";"2";"2";"1";"[1,2,3,12]";"2";"0";"1"
"1187";"32";"4";"1";"8";"1";"2";"2";"1";"[1,2,3,9]";"1";"0";"1"
"1188";"12";"4";"1";"18";"1";"2";"2";"2";"[1,2,3,19]";"2";"0";"1"
"1189";"9";"4";"1";"29";"1";"2";"2";"1";"[1,2,3,30]";"2";"0";"1"
"1190";"16";"4";"1";"19";"1";"2";"2";"2";"[1,2,3,20]";"2";"0";"1"
"1191";"40";"4";"1";"20";"1";"2";"2";"2";"[1,2,3,21]";"2";"0";"1"
"1192";"19";"4";"1";"14";"1";"2";"2";"2";"[1,2,3,15]";"2";"0";"1"
"1193";"38";"4";"1";"17";"1";"2";"2";"2";"[1,2,3,18]";"2";"0";"1"
"1194";"11";"4";"1";"36";"1";"2";"2";"2";"[1,2,3,37]";"2";"0";"1"
"1195";"23";"5";"1";"10";"1";"2";"2";"2";"[1,2,3,11]";"2";"0";"1"
"1196";"7";"5";"1";"37";"1";"2";"2";"2";"[1,2,3,38]";"2";"0";"1"
"1197";"10";"5";"1";"31";"1";"2";"2";"2";"[1,2,3,32]";"2";"0";"1"
"1198";"9";"5";"1";"29";"1";"2";"2";"1";"[1,2,3,30]";"2";"0";"1"
"1199";"27";"5";"1";"30";"1";"2";"2";"2";"[1,2,3,31]";"2";"0";"1"
"1200";"19";"5";"1";"14";"1";"2";"2";"2";"[1,2,3,15]";"2";"0";"1"
"1201";"11";"5";"1";"36";"1";"2";"2";"2";"[1,2,3,37]";"2";"0";"1"
"1202";"4";"6";"1";"13";"1";"2";"2";"2";"[1,2,3,14]";"2";"0";"1"
"1203";"24";"6";"1";"34";"1";"2";"2";"1";"[1,2,3,35]";"2";"0";"1"
"1204";"22";"6";"1";"28";"1";"2";"2";"1";"[1,2,3,29]";"1";"0";"1"
"1205";"23";"6";"1";"10";"1";"2";"2";"2";"[1,2,3,11]";"2";"0";"1"
"1206";"7";"6";"1";"37";"1";"2";"2";"2";"[1,2,3,38]";"2";"0";"1"
"1207";"20";"6";"1";"2";"1";"2";"2";"2";"[1,3]";"2";"0";"1"
"1208";"3";"6";"1";"27";"1";"2";"2";"2";"[1,2,3,28]";"2";"0";"1"
"1209";"34";"6";"1";"39";"1";"2";"2";"1";"[1,2,3,40]";"2";"0";"1"
"1210";"18";"6";"1";"12";"1";"2";"2";"2";"[1,2,3,13]";"2";"0";"1"
"1211";"10";"6";"1";"31";"1";"2";"2";"2";"[1,2,3,32]";"2";"0";"1"
"1212";"27";"6";"1";"30";"1";"2";"2";"2";"[1,2,3,31]";"2";"0";"1"
"1213";"4";"7";"1";"13";"1";"2";"2";"2";"[1,2,3,14]";"2";"0";"1"
"1214";"24";"7";"1";"34";"1";"2";"2";"1";"[1,2,3,35]";"2";"0";"1"
"1215";"22";"7";"1";"28";"1";"2";"2";"1";"[1,2,3,29]";"1";"0";"1"
"1216";"20";"7";"1";"2";"1";"2";"2";"2";"[1,3]";"2";"0";"1"
"1217";"3";"7";"1";"27";"1";"2";"2";"2";"[1,2,3,28]";"2";"0";"1"
"1218";"34";"7";"1";"39";"1";"2";"2";"1";"[1,2,3,40]";"2";"0";"1"
"1219";"18";"7";"1";"12";"1";"2";"2";"2";"[1,2,3,13]";"2";"0";"1"
"1220";"13";"7";"1";"16";"1";"2";"2";"2";"[1,2,3,17]";"2";"0";"1"
"1221";"25";"7";"1";"6";"1";"2";"2";"2";"[1,2,3,7]";"2";"0";"1"
"1222";"15";"8";"1";"23";"1";"2";"2";"1";"[1,2,3,24]";"2";"0";"1"
"1223";"30";"8";"1";"32";"1";"2";"2";"2";"[1,2,3,33]";"2";"0";"1"
"1224";"26";"8";"1";"9";"1";"2";"2";"2";"[1,2,3,10]";"2";"0";"1"
"1225";"13";"8";"1";"16";"1";"2";"2";"2";"[1,2,3,17]";"2";"0";"1"
"1226";"25";"8";"1";"6";"1";"2";"2";"2";"[1,2,3,7]";"2";"0";"1"
"1227";"15";"9";"1";"23";"1";"2";"2";"1";"[1,2,3,24]";"2";"0";"1"
"1228";"30";"9";"1";"32";"1";"2";"2";"2";"[1,2,3,33]";"2";"0";"1"
"1229";"17";"9";"1";"25";"1";"2";"2";"2";"[1,2,3,26]";"2";"0";"1"
"1230";"26";"9";"1";"9";"1";"2";"2";"2";"[1,2,3,10]";"2";"0";"1"
"1231";"6";"10";"1";"33";"1";"2";"2";"1";"[1,2,3,34]";"1";"0";"1"
"1232";"5";"10";"1";"38";"1";"2";"2";"1";"[1,2,3,39]";"2";"0";"1"
"1233";"17";"10";"1";"25";"1";"2";"2";"2";"[1,2,3,26]";"2";"0";"1"
"1234";"1";"10";"1";"1";"1";"2";"2";"2";"[2,3]";"2";"0";"1"
"1235";"37";"10";"1";"15";"1";"2";"2";"1";"[1,2,3,16]";"2";"0";"1"
"1236";"6";"11";"1";"33";"1";"2";"2";"1";"[1,2,3,34]";"1";"0";"1"
"1237";"5";"11";"1";"38";"1";"2";"2";"1";"[1,2,3,39]";"2";"0";"1"
"1238";"39";"11";"1";"26";"1";"2";"2";"1";"[1,2,3,27]";"2";"0";"1"
"1239";"28";"11";"1";"40";"1";"2";"2";"1";"[1,2,3]";"2";"0";"1"
"1240";"1";"11";"1";"1";"1";"2";"2";"2";"[2,3]";"2";"0";"1"
"1241";"37";"11";"1";"15";"1";"2";"2";"1";"[1,2,3,16]";"2";"0";"1"
"1242";"31";"11";"1";"22";"1";"2";"2";"1";"[1,2,3,23]";"1";"0";"1"
"1243";"8";"12";"1";"35";"1";"2";"2";"2";"[1,2,3,36]";"2";"0";"1"
"1244";"39";"12";"1";"26";"1";"2";"2";"1";"[1,2,3,27]";"2";"0";"1"
"1245";"28";"12";"1";"40";"1";"2";"2";"1";"[1,2,3]";"2";"0";"1"
"1246";"31";"12";"1";"22";"1";"2";"2";"1";"[1,2,3,23]";"1";"0";"1"
"1247";"8";"13";"1";"35";"1";"2";"2";"2";"[1,2,3,36]";"2";"0";"1"
"1248";"35";"13";"1";"3";"1";"2";"2";"2";"[1,2,4]";"2";"0";"1"
"1249";"35";"14";"1";"3";"1";"2";"2";"2";"[1,2,4]";"2";"0";"1"
"1250";"29";"17";"1";"24";"1";"2";"2";"2";"[1,2,3,25]";"2";"0";"1"
"1251";"29";"18";"1";"24";"1";"2";"2";"2";"[1,2,3,25]";"2";"0";"1"
"1252";"21";"19";"1";"21";"1";"2";"2";"2";"[1,2,3,22]";"2";"0";"1"
"1253";"2";"20";"1";"5";"1";"2";"2";"2";"[1,2,3,6]";"2";"0";"1"
"1254";"21";"20";"1";"21";"1";"2";"2";"2";"[1,2,3,22]";"2";"0";"1"
"1255";"2";"21";"1";"5";"1";"2";"2";"2";"[1,2,3,6]";"2";"0";"1"
"1256";"33";"21";"1";"4";"1";"2";"2";"2";"[1,2,3,5]";"2";"0";"1"
"1257";"33";"22";"1";"4";"1";"2";"2";"2";"[1,2,3,5]";"2";"0";"1"
"1258";"36";"1";"1";"7";"1";"2";"3";"2";"[1,2,3,8]";"2";"0";"1"
"1259";"32";"2";"1";"8";"1";"2";"3";"1";"[1,2,3,9]";"1";"0";"1"
"1260";"34";"2";"1";"39";"1";"2";"3";"1";"[1,2,3,40]";"2";"0";"1"
"1261";"36";"2";"1";"7";"1";"2";"3";"2";"[1,2,3,8]";"2";"0";"1"
"1262";"1";"2";"1";"1";"1";"2";"3";"2";"[2,3]";"2";"0";"1"
"1263";"8";"2";"1";"35";"1";"2";"3";"2";"[1,2,3,36]";"2";"0";"1"
"1264";"14";"2";"1";"11";"1";"2";"3";"1";"[1,2,3,12]";"2";"0";"1"
"1265";"40";"3";"1";"20";"1";"2";"3";"2";"[1,2,3,21]";"2";"0";"1"
"1266";"32";"3";"1";"8";"1";"2";"3";"1";"[1,2,3,9]";"1";"0";"1"
"1267";"38";"3";"1";"17";"1";"2";"3";"2";"[1,2,3,18]";"2";"0";"1"
"1268";"13";"3";"1";"16";"1";"2";"3";"2";"[1,2,3,17]";"2";"0";"1"
"1269";"6";"3";"1";"33";"1";"2";"3";"1";"[1,2,3,34]";"2";"0";"1"
"1270";"27";"3";"1";"30";"1";"2";"3";"2";"[1,2,3,31]";"2";"0";"1"
"1271";"24";"3";"1";"34";"1";"2";"3";"1";"[1,2,3,35]";"2";"0";"1"
"1272";"34";"3";"1";"39";"1";"2";"3";"1";"[1,2,3,40]";"2";"0";"1"
"1273";"1";"3";"1";"1";"1";"2";"3";"2";"[2,3]";"2";"0";"1"
"1274";"8";"3";"1";"35";"1";"2";"3";"2";"[1,2,3,36]";"2";"0";"1"
"1275";"14";"3";"1";"11";"1";"2";"3";"1";"[1,2,3,12]";"2";"0";"1"
"1276";"15";"3";"1";"23";"1";"2";"3";"1";"[1,2,3,24]";"1";"0";"1"
"1277";"21";"4";"1";"21";"1";"2";"3";"2";"[1,2,3,22]";"2";"0";"1"
"1278";"40";"4";"1";"20";"1";"2";"3";"2";"[1,2,3,21]";"2";"0";"1"
"1279";"10";"4";"1";"31";"1";"2";"3";"2";"[1,2,3,32]";"2";"0";"1"
"1280";"13";"4";"1";"16";"1";"2";"3";"2";"[1,2,3,17]";"2";"0";"1"
"1281";"38";"4";"1";"17";"1";"2";"3";"2";"[1,2,3,18]";"2";"0";"1"
"1282";"6";"4";"1";"33";"1";"2";"3";"1";"[1,2,3,34]";"2";"0";"1"
"1283";"27";"4";"1";"30";"1";"2";"3";"2";"[1,2,3,31]";"2";"0";"1"
"1284";"24";"4";"1";"34";"1";"2";"3";"1";"[1,2,3,35]";"2";"0";"1"
"1285";"5";"4";"1";"38";"1";"2";"3";"1";"[1,2,3,39]";"2";"0";"1"
"1286";"25";"4";"1";"6";"1";"2";"3";"2";"[1,2,3,7]";"2";"0";"1"
"1287";"23";"4";"1";"10";"1";"2";"3";"2";"[1,2,3,11]";"2";"0";"1"
"1288";"22";"4";"1";"28";"1";"2";"3";"1";"[1,2,3,29]";"1";"0";"1"
"1289";"15";"4";"1";"23";"1";"2";"3";"1";"[1,2,3,24]";"1";"0";"1"
"1290";"21";"5";"1";"21";"1";"2";"3";"2";"[1,2,3,22]";"2";"0";"1"
"1291";"10";"5";"1";"31";"1";"2";"3";"2";"[1,2,3,32]";"2";"0";"1"
"1292";"9";"5";"1";"29";"1";"2";"3";"1";"[1,2,3,30]";"2";"0";"1"
"1293";"5";"5";"1";"38";"1";"2";"3";"1";"[1,2,3,39]";"2";"0";"1"
"1294";"33";"5";"1";"4";"1";"2";"3";"2";"[1,2,3,5]";"2";"0";"1"
"1295";"4";"5";"1";"13";"1";"2";"3";"2";"[1,2,3,14]";"0";"1";"1"
"1296";"25";"5";"1";"6";"1";"2";"3";"2";"[1,2,3,7]";"2";"0";"1"
"1297";"23";"5";"1";"10";"1";"2";"3";"2";"[1,2,3,11]";"2";"0";"1"
"1298";"3";"5";"1";"27";"1";"2";"3";"2";"[1,2,3,28]";"2";"0";"1"
"1299";"30";"5";"1";"32";"1";"2";"3";"2";"[1,2,3,33]";"2";"0";"1"
"1300";"22";"5";"1";"28";"1";"2";"3";"1";"[1,2,3,29]";"1";"0";"1"
"1301";"12";"6";"1";"18";"1";"2";"3";"2";"[1,2,3,19]";"2";"0";"1"
"1302";"26";"6";"1";"9";"1";"2";"3";"2";"[1,2,3,10]";"2";"0";"1"
"1303";"39";"6";"1";"26";"1";"2";"3";"1";"[1,2,3,27]";"2";"0";"1"
"1304";"11";"6";"1";"36";"1";"2";"3";"2";"[1,2,3,37]";"2";"0";"1"
"1305";"19";"6";"1";"14";"1";"2";"3";"2";"[1,2,3,15]";"2";"0";"1"
"1306";"9";"6";"1";"29";"1";"2";"3";"1";"[1,2,3,30]";"2";"0";"1"
"1307";"33";"6";"1";"4";"1";"2";"3";"2";"[1,2,3,5]";"2";"0";"1"
"1308";"3";"6";"1";"27";"1";"2";"3";"2";"[1,2,3,28]";"2";"0";"1"
"1309";"30";"6";"1";"32";"1";"2";"3";"2";"[1,2,3,33]";"2";"0";"1"
"1310";"12";"7";"1";"18";"1";"2";"3";"2";"[1,2,3,19]";"2";"0";"1"
"1311";"26";"7";"1";"9";"1";"2";"3";"2";"[1,2,3,10]";"2";"0";"1"
"1312";"39";"7";"1";"26";"1";"2";"3";"1";"[1,2,3,27]";"2";"0";"1"
"1313";"11";"7";"1";"36";"1";"2";"3";"2";"[1,2,3,37]";"2";"0";"1"
"1314";"20";"7";"1";"2";"1";"2";"3";"2";"[1,3]";"0";"1";"1"
"1315";"19";"7";"1";"14";"1";"2";"3";"2";"[1,2,3,15]";"2";"0";"1"
"1316";"20";"7";"1";"2";"1";"2";"3";"2";"[1,3]";"0";"2";"1"
"1317";"4";"7";"1";"13";"1";"2";"3";"2";"[1,2,3,14]";"0";"2";"1"
"1318";"17";"8";"1";"25";"1";"2";"3";"2";"[1,2,3,26]";"1";"0";"1"
"1319";"35";"8";"1";"3";"1";"2";"3";"2";"[1,2,4]";"2";"0";"1"
"1320";"28";"8";"1";"40";"1";"2";"3";"1";"[1,2,3]";"2";"0";"1"
"1321";"4";"8";"1";"13";"1";"2";"3";"2";"[1,2,3,14]";"0";"3";"1"
"1322";"17";"9";"1";"25";"1";"2";"3";"2";"[1,2,3,26]";"1";"0";"1"
"1323";"35";"9";"1";"3";"1";"2";"3";"2";"[1,2,4]";"2";"0";"1"
"1324";"28";"9";"1";"40";"1";"2";"3";"1";"[1,2,3]";"2";"0";"1"
"1325";"29";"11";"1";"24";"1";"2";"3";"2";"[1,2,3,25]";"2";"0";"1"
"1326";"16";"11";"1";"19";"1";"2";"3";"2";"[1,2,3,20]";"2";"0";"1"
"1327";"29";"12";"1";"24";"1";"2";"3";"2";"[1,2,3,25]";"2";"0";"1"
"1328";"4";"12";"1";"13";"1";"2";"3";"2";"[1,2,3,14]";"2";"3";"1"
"1329";"16";"12";"1";"19";"1";"2";"3";"2";"[1,2,3,20]";"2";"0";"1"
"1330";"4";"13";"1";"13";"1";"2";"3";"2";"[1,2,3,14]";"2";"3";"1"
"1331";"20";"15";"1";"2";"1";"2";"3";"2";"[1,3]";"1";"2";"1"
"1332";"20";"16";"1";"2";"1";"2";"3";"2";"[1,3]";"1";"2";"1"
"1333";"7";"16";"1";"37";"1";"2";"3";"2";"[1,2,3,38]";"2";"0";"1"
"1334";"7";"17";"1";"37";"1";"2";"3";"2";"[1,2,3,38]";"2";"0";"1"
"1335";"37";"17";"1";"15";"1";"2";"3";"1";"[1,2,3,16]";"2";"0";"1"
"1336";"2";"17";"1";"5";"1";"2";"3";"2";"[1,2,3,6]";"2";"0";"1"
"1337";"23";"18";"1";"10";"1";"2";"3";"2";"[1,2,3,11]";"2";"1";"1"
"1338";"18";"18";"1";"12";"1";"2";"3";"2";"[1,2,3,13]";"2";"0";"1"
"1339";"37";"18";"1";"15";"1";"2";"3";"1";"[1,2,3,16]";"2";"0";"1"
"1340";"2";"18";"1";"5";"1";"2";"3";"2";"[1,2,3,6]";"2";"0";"1"
"1341";"23";"19";"1";"10";"1";"2";"3";"2";"[1,2,3,11]";"2";"2";"1"
"1342";"18";"19";"1";"12";"1";"2";"3";"2";"[1,2,3,13]";"2";"0";"1"
"1343";"31";"22";"1";"22";"1";"2";"3";"1";"[1,2,3,23]";"2";"0";"1"
"1344";"31";"23";"1";"22";"1";"2";"3";"1";"[1,2,3,23]";"2";"0";"1"
"1345";"36";"1";"1";"7";"1";"2";"4";"2";"[1,2,3,8]";"2";"0";"1"
"1346";"28";"1";"1";"40";"1";"2";"4";"1";"[1,2,3]";"2";"0";"1"
"1347";"18";"2";"1";"12";"1";"2";"4";"2";"[1,2,3,13]";"2";"0";"1"
"1348";"9";"2";"1";"29";"1";"2";"4";"1";"[1,2,3,30]";"1";"0";"1"
"1349";"36";"2";"1";"7";"1";"2";"4";"2";"[1,2,3,8]";"2";"0";"1"
"1350";"33";"2";"1";"4";"1";"2";"4";"2";"[1,2,3,5]";"2";"0";"1"
"1351";"15";"2";"1";"23";"1";"2";"4";"1";"[1,2,3,24]";"1";"0";"1"
"1352";"28";"2";"1";"40";"1";"2";"4";"1";"[1,2,3]";"2";"0";"1"
"1353";"21";"2";"1";"21";"1";"2";"4";"2";"[1,2,3,22]";"2";"0";"1"
"1354";"18";"3";"1";"12";"1";"2";"4";"2";"[1,2,3,13]";"2";"0";"1"
"1355";"22";"3";"1";"28";"1";"2";"4";"1";"[1,2,3,29]";"1";"0";"1"
"1356";"27";"3";"1";"30";"1";"2";"4";"2";"[1,2,3,31]";"2";"0";"1"
"1357";"32";"3";"1";"8";"1";"2";"4";"1";"[1,2,3,9]";"2";"0";"1"
"1358";"9";"3";"1";"29";"1";"2";"4";"1";"[1,2,3,30]";"1";"0";"1"
"1359";"23";"3";"1";"10";"1";"2";"4";"2";"[1,2,3,11]";"2";"0";"1"
"1360";"33";"3";"1";"4";"1";"2";"4";"2";"[1,2,3,5]";"2";"0";"1"
"1361";"38";"3";"1";"17";"1";"2";"4";"2";"[1,2,3,18]";"2";"0";"1"
"1362";"15";"3";"1";"23";"1";"2";"4";"1";"[1,2,3,24]";"1";"0";"1"
"1363";"13";"3";"1";"16";"1";"2";"4";"2";"[1,2,3,17]";"2";"0";"1"
"1364";"35";"3";"1";"3";"1";"2";"4";"2";"[1,2,4]";"1";"0";"1"
"1365";"21";"4";"1";"21";"1";"2";"4";"2";"[1,2,3,22]";"2";"0";"1"
"1366";"22";"4";"1";"28";"1";"2";"4";"1";"[1,2,3,29]";"1";"0";"1"
"1367";"27";"4";"1";"30";"1";"2";"4";"2";"[1,2,3,31]";"2";"0";"1"
"1368";"32";"4";"1";"8";"1";"2";"4";"1";"[1,2,3,9]";"2";"0";"1"
"1369";"23";"4";"1";"10";"1";"2";"4";"2";"[1,2,3,11]";"2";"0";"1"
"1370";"17";"4";"1";"25";"1";"2";"4";"2";"[1,2,3,26]";"2";"0";"1"
"1371";"38";"4";"1";"17";"1";"2";"4";"2";"[1,2,3,18]";"2";"0";"1"
"1372";"13";"4";"1";"16";"1";"2";"4";"2";"[1,2,3,17]";"2";"0";"1"
"1373";"35";"4";"1";"3";"1";"2";"4";"2";"[1,2,4]";"1";"0";"1"
"1374";"20";"4";"1";"2";"1";"2";"4";"2";"[1,3]";"2";"0";"1"
"1375";"25";"4";"1";"6";"1";"2";"4";"2";"[1,2,3,7]";"2";"0";"1"
"1376";"34";"5";"1";"39";"1";"2";"4";"1";"[1,2,3,40]";"2";"0";"1"
"1377";"40";"5";"1";"20";"1";"2";"4";"2";"[1,2,3,21]";"2";"0";"1"
"1378";"17";"5";"1";"25";"1";"2";"4";"2";"[1,2,3,26]";"2";"0";"1"
"1379";"3";"5";"1";"27";"1";"2";"4";"2";"[1,2,3,28]";"2";"0";"1"
"1380";"24";"5";"1";"34";"1";"2";"4";"1";"[1,2,3,35]";"2";"0";"1"
"1381";"25";"5";"1";"6";"1";"2";"4";"2";"[1,2,3,7]";"2";"0";"1"
"1382";"20";"5";"1";"2";"1";"2";"4";"2";"[1,3]";"2";"0";"1"
"1383";"34";"6";"1";"39";"1";"2";"4";"1";"[1,2,3,40]";"2";"0";"1"
"1384";"14";"6";"1";"11";"1";"2";"4";"1";"[1,2,3,12]";"1";"0";"1"
"1385";"19";"6";"1";"14";"1";"2";"4";"2";"[1,2,3,15]";"2";"0";"1"
"1386";"40";"6";"1";"20";"1";"2";"4";"2";"[1,2,3,21]";"2";"0";"1"
"1387";"3";"6";"1";"27";"1";"2";"4";"2";"[1,2,3,28]";"2";"0";"1"
"1388";"24";"6";"1";"34";"1";"2";"4";"1";"[1,2,3,35]";"2";"0";"1"
"1389";"4";"6";"1";"13";"1";"2";"4";"2";"[1,2,3,14]";"2";"0";"1"
"1390";"1";"7";"1";"1";"1";"2";"4";"2";"[2,3]";"2";"0";"1"
"1391";"16";"7";"1";"19";"1";"2";"4";"2";"[1,2,3,20]";"2";"0";"1"
"1392";"14";"7";"1";"11";"1";"2";"4";"1";"[1,2,3,12]";"1";"0";"1"
"1393";"19";"7";"1";"14";"1";"2";"4";"2";"[1,2,3,15]";"2";"0";"1"
"1394";"4";"7";"1";"13";"1";"2";"4";"2";"[1,2,3,14]";"2";"0";"1"
"1395";"11";"7";"1";"36";"1";"2";"4";"2";"[1,2,3,37]";"2";"0";"1"
"1396";"30";"8";"1";"32";"1";"2";"4";"2";"[1,2,3,33]";"2";"0";"1"
"1397";"1";"8";"1";"1";"1";"2";"4";"2";"[2,3]";"2";"0";"1"
"1398";"16";"8";"1";"19";"1";"2";"4";"2";"[1,2,3,20]";"2";"0";"1"
"1399";"11";"8";"1";"36";"1";"2";"4";"2";"[1,2,3,37]";"2";"0";"1"
"1400";"30";"9";"1";"32";"1";"2";"4";"2";"[1,2,3,33]";"2";"0";"1"
"1401";"12";"9";"1";"18";"1";"2";"4";"2";"[1,2,3,19]";"2";"0";"1"
"1402";"12";"10";"1";"18";"1";"2";"4";"2";"[1,2,3,19]";"2";"0";"1"
"1403";"31";"10";"1";"22";"1";"2";"4";"1";"[1,2,3,23]";"2";"0";"1"
"1404";"31";"11";"1";"22";"1";"2";"4";"1";"[1,2,3,23]";"2";"0";"1"
"1405";"37";"12";"1";"15";"1";"2";"4";"1";"[1,2,3,16]";"1";"0";"1"
"1406";"26";"12";"1";"9";"1";"2";"4";"2";"[1,2,3,10]";"1";"0";"1"
"1407";"37";"13";"1";"15";"1";"2";"4";"1";"[1,2,3,16]";"1";"0";"1"
"1408";"26";"13";"1";"9";"1";"2";"4";"2";"[1,2,3,10]";"1";"0";"1"
"1409";"6";"15";"1";"33";"1";"2";"4";"1";"[1,2,3,34]";"1";"0";"1"
"1410";"5";"15";"1";"38";"1";"2";"4";"1";"[1,2,3,39]";"2";"0";"1"
"1411";"6";"16";"1";"33";"1";"2";"4";"1";"[1,2,3,34]";"1";"0";"1"
"1412";"8";"16";"1";"35";"1";"2";"4";"2";"[1,2,3,36]";"2";"0";"1"
"1413";"10";"16";"1";"31";"1";"2";"4";"2";"[1,2,3,32]";"2";"0";"1"
"1414";"5";"16";"1";"38";"1";"2";"4";"1";"[1,2,3,39]";"2";"0";"1"
"1415";"2";"17";"1";"5";"1";"2";"4";"2";"[1,2,3,6]";"2";"0";"1"
"1416";"8";"17";"1";"35";"1";"2";"4";"2";"[1,2,3,36]";"2";"0";"1"
"1417";"10";"17";"1";"31";"1";"2";"4";"2";"[1,2,3,32]";"2";"0";"1"
"1418";"39";"17";"1";"26";"1";"2";"4";"1";"[1,2,3,27]";"1";"0";"1"
"1419";"2";"18";"1";"5";"1";"2";"4";"2";"[1,2,3,6]";"2";"0";"1"
"1420";"39";"18";"1";"26";"1";"2";"4";"1";"[1,2,3,27]";"1";"0";"1"
"1421";"29";"25";"1";"24";"1";"2";"4";"2";"[1,2,3,25]";"1";"0";"1"
"1422";"29";"26";"1";"24";"1";"2";"4";"2";"[1,2,3,25]";"1";"0";"1"
"1423";"7";"27";"1";"37";"1";"2";"4";"2";"[1,2,3,38]";"2";"0";"1"
"1424";"7";"28";"1";"37";"1";"2";"4";"2";"[1,2,3,38]";"2";"0";"1"
"1425";"36";"1";"1";"7";"1";"2";"5";"2";"[1,2,3,8]";"2";"0";"1"
"1426";"6";"1";"1";"33";"1";"2";"5";"1";"[1,2,3,34]";"1";"0";"1"
"1427";"36";"2";"1";"7";"1";"2";"5";"2";"[1,2,3,8]";"2";"0";"1"
"1428";"18";"2";"1";"12";"1";"2";"5";"2";"[1,2,3,13]";"2";"0";"1"
"1429";"40";"2";"1";"20";"1";"2";"5";"2";"[1,2,3,21]";"2";"0";"1"
"1430";"6";"2";"1";"33";"1";"2";"5";"1";"[1,2,3,34]";"1";"0";"1"
"1431";"9";"3";"1";"29";"1";"2";"5";"1";"[1,2,3,30]";"2";"0";"1"
"1432";"22";"3";"1";"28";"1";"2";"5";"1";"[1,2,3,29]";"1";"0";"1"
"1433";"18";"3";"1";"12";"1";"2";"5";"2";"[1,2,3,13]";"2";"0";"1"
"1434";"14";"3";"1";"11";"1";"2";"5";"1";"[1,2,3,12]";"2";"0";"1"
"1435";"32";"3";"1";"8";"1";"2";"5";"1";"[1,2,3,9]";"1";"0";"1"
"1436";"13";"3";"1";"16";"1";"2";"5";"2";"[1,2,3,17]";"2";"0";"1"
"1437";"40";"3";"1";"20";"1";"2";"5";"2";"[1,2,3,21]";"2";"0";"1"
"1438";"24";"3";"1";"34";"1";"2";"5";"1";"[1,2,3,35]";"2";"0";"1"
"1439";"15";"3";"1";"23";"1";"2";"5";"1";"[1,2,3,24]";"1";"0";"1"
"1440";"33";"3";"1";"4";"1";"2";"5";"2";"[1,2,3,5]";"2";"0";"1"
"1441";"9";"4";"1";"29";"1";"2";"5";"1";"[1,2,3,30]";"2";"0";"1"
"1442";"23";"4";"1";"10";"1";"2";"5";"2";"[1,2,3,11]";"2";"0";"1"
"1443";"22";"4";"1";"28";"1";"2";"5";"1";"[1,2,3,29]";"1";"0";"1"
"1444";"3";"4";"1";"27";"1";"2";"5";"2";"[1,2,3,28]";"2";"0";"1"
"1445";"14";"4";"1";"11";"1";"2";"5";"1";"[1,2,3,12]";"2";"0";"1"
"1446";"32";"4";"1";"8";"1";"2";"5";"1";"[1,2,3,9]";"1";"0";"1"
"1447";"13";"4";"1";"16";"1";"2";"5";"2";"[1,2,3,17]";"2";"0";"1"
"1448";"24";"4";"1";"34";"1";"2";"5";"1";"[1,2,3,35]";"2";"0";"1"
"1449";"8";"4";"1";"35";"1";"2";"5";"2";"[1,2,3,36]";"2";"0";"1"
"1450";"15";"4";"1";"23";"1";"2";"5";"1";"[1,2,3,24]";"1";"0";"1"
"1451";"33";"4";"1";"4";"1";"2";"5";"2";"[1,2,3,5]";"2";"0";"1"
"1452";"38";"4";"1";"17";"1";"2";"5";"2";"[1,2,3,18]";"2";"0";"1"
"1453";"16";"5";"1";"19";"1";"2";"5";"2";"[1,2,3,20]";"2";"0";"1"
"1454";"30";"5";"1";"32";"1";"2";"5";"2";"[1,2,3,33]";"2";"0";"1"
"1455";"23";"5";"1";"10";"1";"2";"5";"2";"[1,2,3,11]";"2";"0";"1"
"1456";"3";"5";"1";"27";"1";"2";"5";"2";"[1,2,3,28]";"2";"0";"1"
"1457";"25";"5";"1";"6";"1";"2";"5";"2";"[1,2,3,7]";"2";"0";"1"
"1458";"29";"5";"1";"24";"1";"2";"5";"2";"[1,2,3,25]";"2";"0";"1"
"1459";"8";"5";"1";"35";"1";"2";"5";"2";"[1,2,3,36]";"2";"0";"1"
"1460";"38";"6";"1";"17";"1";"2";"5";"2";"[1,2,3,18]";"2";"0";"1"
"1461";"16";"6";"1";"19";"1";"2";"5";"2";"[1,2,3,20]";"2";"0";"1"
"1462";"7";"6";"1";"37";"1";"2";"5";"2";"[1,2,3,38]";"2";"0";"1"
"1463";"4";"6";"1";"13";"1";"2";"5";"2";"[1,2,3,14]";"0";"3";"1"
"1464";"30";"6";"1";"32";"1";"2";"5";"2";"[1,2,3,33]";"2";"0";"1"
"1465";"25";"6";"1";"6";"1";"2";"5";"2";"[1,2,3,7]";"2";"0";"1"
"1466";"10";"6";"1";"31";"1";"2";"5";"2";"[1,2,3,32]";"2";"0";"1"
"1467";"35";"6";"1";"3";"1";"2";"5";"2";"[1,2,4]";"1";"0";"1"
"1468";"29";"6";"1";"24";"1";"2";"5";"2";"[1,2,3,25]";"2";"0";"1"
"1469";"7";"7";"1";"37";"1";"2";"5";"2";"[1,2,3,38]";"2";"0";"1"
"1470";"26";"7";"1";"9";"1";"2";"5";"2";"[1,2,3,10]";"2";"0";"1"
"1471";"10";"7";"1";"31";"1";"2";"5";"2";"[1,2,3,32]";"2";"0";"1"
"1472";"5";"7";"1";"38";"1";"2";"5";"1";"[1,2,3,39]";"2";"0";"1"
"1473";"35";"7";"1";"3";"1";"2";"5";"2";"[1,2,4]";"1";"0";"1"
"1474";"1";"7";"1";"1";"1";"2";"5";"2";"[2,3]";"2";"0";"1"
"1475";"28";"7";"1";"40";"1";"2";"5";"1";"[1,2,3]";"2";"0";"1"
"1476";"17";"8";"1";"25";"1";"2";"5";"2";"[1,2,3,26]";"2";"0";"1"
"1477";"34";"8";"1";"39";"1";"2";"5";"1";"[1,2,3,40]";"2";"0";"1"
"1478";"26";"8";"1";"9";"1";"2";"5";"2";"[1,2,3,10]";"2";"0";"1"
"1479";"19";"8";"1";"14";"1";"2";"5";"2";"[1,2,3,15]";"2";"0";"1"
"1480";"5";"8";"1";"38";"1";"2";"5";"1";"[1,2,3,39]";"2";"0";"1"
"1481";"1";"8";"1";"1";"1";"2";"5";"2";"[2,3]";"2";"0";"1"
"1482";"28";"8";"1";"40";"1";"2";"5";"1";"[1,2,3]";"2";"0";"1"
"1483";"4";"9";"1";"13";"1";"2";"5";"2";"[1,2,3,14]";"0";"2";"1"
"1484";"27";"9";"1";"30";"1";"2";"5";"2";"[1,2,3,31]";"2";"0";"1"
"1485";"17";"9";"1";"25";"1";"2";"5";"2";"[1,2,3,26]";"2";"0";"1"
"1486";"34";"9";"1";"39";"1";"2";"5";"1";"[1,2,3,40]";"2";"0";"1"
"1487";"19";"9";"1";"14";"1";"2";"5";"2";"[1,2,3,15]";"2";"0";"1"
"1488";"37";"9";"1";"15";"1";"2";"5";"1";"[1,2,3,16]";"1";"0";"1"
"1489";"27";"10";"1";"30";"1";"2";"5";"2";"[1,2,3,31]";"2";"0";"1"
"1490";"37";"10";"1";"15";"1";"2";"5";"1";"[1,2,3,16]";"1";"0";"1"
"1491";"4";"11";"1";"13";"1";"2";"5";"2";"[1,2,3,14]";"0";"4";"1"
"1492";"4";"12";"1";"13";"1";"2";"5";"2";"[1,2,3,14]";"0";"5";"1"
"1493";"2";"13";"1";"5";"1";"2";"5";"2";"[1,2,3,6]";"2";"0";"1"
"1494";"31";"13";"1";"22";"1";"2";"5";"1";"[1,2,3,23]";"2";"0";"1"
"1495";"2";"14";"1";"5";"1";"2";"5";"2";"[1,2,3,6]";"2";"0";"1"
"1496";"39";"14";"1";"26";"1";"2";"5";"1";"[1,2,3,27]";"2";"0";"1"
"1497";"4";"14";"1";"13";"1";"2";"5";"2";"[1,2,3,14]";"2";"5";"1"
"1498";"31";"14";"1";"22";"1";"2";"5";"1";"[1,2,3,23]";"2";"0";"1"
"1499";"39";"15";"1";"26";"1";"2";"5";"1";"[1,2,3,27]";"2";"0";"1"
"1500";"4";"15";"1";"13";"1";"2";"5";"2";"[1,2,3,14]";"2";"5";"1"
"1501";"20";"16";"1";"2";"1";"2";"5";"2";"[1,3]";"2";"0";"1"
"1502";"11";"17";"1";"36";"1";"2";"5";"2";"[1,2,3,37]";"2";"0";"1"
"1503";"20";"17";"1";"2";"1";"2";"5";"2";"[1,3]";"2";"0";"1"
"1504";"11";"18";"1";"36";"1";"2";"5";"2";"[1,2,3,37]";"2";"0";"1"
"1505";"21";"22";"1";"21";"1";"2";"5";"2";"[1,2,3,22]";"2";"0";"1"
"1506";"21";"23";"1";"21";"1";"2";"5";"2";"[1,2,3,22]";"2";"0";"1"
"1507";"12";"30";"1";"18";"1";"2";"5";"2";"[1,2,3,19]";"0";"0";"1"
"1508";"0";"30";"1";"18";"1";"2";"5";"2";"[1,2,3,19]";"2";"0";"0"
"1509";"20";"2";"1";"2";"1";"2";"6";"2";"[1,3]";"1";"0";"1"
"1510";"15";"2";"1";"23";"1";"2";"6";"1";"[1,2,3,24]";"1";"0";"1"
"1511";"27";"2";"1";"30";"1";"2";"6";"2";"[1,2,3,31]";"1";"0";"1"
"1512";"14";"2";"1";"11";"1";"2";"6";"1";"[1,2,3,12]";"2";"0";"1"
"1513";"6";"3";"1";"33";"1";"2";"6";"1";"[1,2,3,34]";"2";"0";"1"
"1514";"10";"3";"1";"31";"1";"2";"6";"2";"[1,2,3,32]";"2";"0";"1"
"1515";"34";"3";"1";"39";"1";"2";"6";"1";"[1,2,3,40]";"2";"0";"1"
"1516";"23";"3";"1";"10";"1";"2";"6";"2";"[1,2,3,11]";"2";"0";"1"
"1517";"38";"3";"1";"17";"1";"2";"6";"2";"[1,2,3,18]";"2";"0";"1"
"1518";"12";"3";"1";"18";"1";"2";"6";"2";"[1,2,3,19]";"2";"0";"1"
"1519";"17";"3";"1";"25";"1";"2";"6";"2";"[1,2,3,26]";"2";"0";"1"
