"id";"id_subj";"time";"session";"id_grp";"grp";"round";"period";"sig";"links";"choice";"hist";"active"
"1";"2";"0";"1";"7";"4";"1";"1";"0";"[2,4,9,10]";"0";"0";"1"
"2";"34";"0";"1";"7";"1";"1";"1";"0";"[2,4,9,10]";"0";"0";"1"
"3";"1";"0";"1";"2";"2";"1";"1";"1";"[1,5,6,7,8,9,10]";"0";"0";"1"
"4";"23";"0";"1";"10";"4";"1";"1";"2";"[2,7,9]";"0";"0";"1"
"5";"3";"0";"1";"4";"4";"1";"1";"1";"[3,7]";"0";"0";"1"
"6";"4";"0";"1";"1";"4";"1";"1";"0";"[2,3,5,8,9]";"0";"0";"1"
"7";"16";"0";"1";"2";"1";"1";"1";"1";"[1,5,6,7,8,9,10]";"0";"0";"1"
"8";"19";"0";"1";"2";"4";"1";"1";"2";"[1,5,6,7,8,9,10]";"0";"0";"1"
"9";"25";"0";"1";"9";"2";"1";"1";"2";"[1,2,3,7,10]";"0";"0";"1"
"10";"18";"0";"1";"1";"2";"1";"1";"1";"[2,3,5,8,9]";"0";"0";"1"
"11";"11";"0";"1";"4";"3";"1";"1";"0";"[3,7]";"0";"0";"1"
"12";"9";"0";"1";"7";"3";"1";"1";"1";"[2,4,9,10]";"0";"0";"1"
"13";"35";"0";"1";"6";"2";"1";"1";"2";"[2,3,5,8]";"0";"0";"1"
"14";"33";"0";"1";"6";"4";"1";"1";"1";"[2,3,5,8]";"0";"0";"1"
"15";"15";"0";"1";"7";"2";"1";"1";"2";"[2,4,9,10]";"0";"0";"1"
"16";"24";"0";"1";"6";"1";"1";"1";"0";"[2,3,5,8]";"0";"0";"1"
"17";"12";"0";"1";"5";"4";"1";"1";"2";"[1,2,6]";"0";"0";"1"
"18";"29";"0";"1";"3";"3";"1";"1";"2";"[1,4,6,9]";"0";"0";"1"
"19";"38";"0";"1";"9";"4";"1";"1";"2";"[1,2,3,7,10]";"0";"0";"1"
"20";"26";"0";"1";"8";"3";"1";"1";"2";"[1,2,6]";"0";"0";"1"
"21";"20";"0";"1";"8";"4";"1";"1";"2";"[1,2,6]";"0";"0";"1"
"22";"8";"0";"1";"4";"2";"1";"1";"2";"[3,7]";"0";"0";"1"
"23";"7";"0";"1";"9";"3";"1";"1";"0";"[1,2,3,7,10]";"0";"0";"1"
"24";"5";"0";"1";"8";"2";"1";"1";"2";"[1,2,6]";"0";"0";"1"
"25";"32";"0";"1";"10";"3";"1";"1";"1";"[2,7,9]";"0";"0";"1"
"26";"37";"0";"1";"4";"1";"1";"1";"2";"[3,7]";"0";"0";"1"
"27";"36";"0";"1";"5";"1";"1";"1";"1";"[1,2,6]";"0";"0";"1"
"28";"22";"0";"1";"9";"1";"1";"1";"1";"[1,2,3,7,10]";"0";"0";"1"
"29";"10";"0";"1";"5";"2";"1";"1";"0";"[1,2,6]";"0";"0";"1"
"30";"14";"0";"1";"8";"1";"1";"1";"0";"[1,2,6]";"0";"0";"1"
"31";"28";"0";"1";"3";"1";"1";"1";"1";"[1,4,6,9]";"0";"0";"1"
"32";"6";"0";"1";"2";"3";"1";"1";"1";"[1,5,6,7,8,9,10]";"0";"0";"1"
"33";"21";"0";"1";"5";"3";"1";"1";"0";"[1,2,6]";"0";"0";"1"
"34";"39";"0";"1";"10";"1";"1";"1";"1";"[2,7,9]";"0";"0";"1"
"35";"30";"0";"1";"6";"3";"1";"1";"0";"[2,3,5,8]";"0";"0";"1"
"36";"31";"0";"1";"3";"2";"1";"1";"2";"[1,4,6,9]";"0";"0";"1"
"37";"17";"0";"1";"10";"2";"1";"1";"2";"[2,7,9]";"0";"0";"1"
"38";"40";"0";"1";"1";"1";"1";"1";"0";"[2,3,5,8,9]";"0";"0";"1"
"39";"13";"0";"1";"1";"3";"1";"1";"0";"[2,3,5,8,9]";"0";"0";"1"
"40";"27";"0";"1";"3";"4";"1";"1";"0";"[1,4,6,9]";"0";"0";"1"
"41";"17";"4";"1";"10";"2";"1";"1";"2";"[2,7,9]";"2";"0";"1"
"42";"12";"5";"1";"5";"4";"1";"1";"2";"[1,2,6]";"2";"0";"1"
"43";"17";"5";"1";"10";"2";"1";"1";"2";"[2,7,9]";"2";"0";"1"
"44";"20";"5";"1";"8";"4";"1";"1";"2";"[1,2,6]";"2";"0";"1"
"45";"9";"5";"1";"7";"3";"1";"1";"1";"[2,4,9,10]";"1";"0";"1"
"46";"35";"5";"1";"6";"2";"1";"1";"2";"[2,3,5,8]";"2";"0";"1"
"47";"12";"6";"1";"5";"4";"1";"1";"2";"[1,2,6]";"2";"0";"1"
"48";"20";"6";"1";"8";"4";"1";"1";"2";"[1,2,6]";"2";"0";"1"
"49";"5";"6";"1";"8";"2";"1";"1";"2";"[1,2,6]";"2";"0";"1"
"50";"31";"6";"1";"3";"2";"1";"1";"2";"[1,4,6,9]";"1";"0";"1"
"51";"9";"6";"1";"7";"3";"1";"1";"1";"[2,4,9,10]";"1";"0";"1"
"52";"35";"6";"1";"6";"2";"1";"1";"2";"[2,3,5,8]";"2";"0";"1"
"53";"33";"7";"1";"6";"4";"1";"1";"1";"[2,3,5,8]";"1";"0";"1"
"54";"29";"7";"1";"3";"3";"1";"1";"2";"[1,4,6,9]";"2";"0";"1"
"55";"7";"7";"1";"9";"3";"1";"1";"0";"[1,2,3,7,10]";"1";"0";"1"
"56";"25";"7";"1";"9";"2";"1";"1";"2";"[1,2,3,7,10]";"2";"0";"1"
"57";"5";"7";"1";"8";"2";"1";"1";"2";"[1,2,6]";"2";"0";"1"
"58";"31";"7";"1";"3";"2";"1";"1";"2";"[1,4,6,9]";"1";"0";"1"
"59";"24";"7";"1";"6";"1";"1";"1";"0";"[2,3,5,8]";"1";"0";"1"
"60";"33";"8";"1";"6";"4";"1";"1";"1";"[2,3,5,8]";"1";"0";"1"
"61";"19";"8";"1";"2";"4";"1";"1";"2";"[1,5,6,7,8,9,10]";"2";"0";"1"
"62";"23";"8";"1";"10";"4";"1";"1";"2";"[2,7,9]";"2";"0";"1"
"63";"29";"8";"1";"3";"3";"1";"1";"2";"[1,4,6,9]";"2";"0";"1"
"64";"7";"8";"1";"9";"3";"1";"1";"0";"[1,2,3,7,10]";"1";"0";"1"
"65";"25";"8";"1";"9";"2";"1";"1";"2";"[1,2,3,7,10]";"2";"0";"1"
"66";"10";"8";"1";"5";"2";"1";"1";"0";"[1,2,6]";"1";"0";"1"
"67";"24";"8";"1";"6";"1";"1";"1";"0";"[2,3,5,8]";"1";"0";"1"
"68";"8";"9";"1";"4";"2";"1";"1";"2";"[3,7]";"2";"0";"1"
"69";"3";"9";"1";"4";"4";"1";"1";"1";"[3,7]";"1";"0";"1"
"70";"19";"9";"1";"2";"4";"1";"1";"2";"[1,5,6,7,8,9,10]";"2";"0";"1"
"71";"2";"9";"1";"7";"4";"1";"1";"0";"[2,4,9,10]";"2";"0";"1"
"72";"23";"9";"1";"10";"4";"1";"1";"2";"[2,7,9]";"2";"0";"1"
"73";"1";"9";"1";"2";"2";"1";"1";"1";"[1,5,6,7,8,9,10]";"1";"0";"1"
"74";"10";"9";"1";"5";"2";"1";"1";"0";"[1,2,6]";"1";"0";"1"
"75";"14";"10";"1";"8";"1";"1";"1";"0";"[1,2,6]";"2";"0";"1"
"76";"8";"10";"1";"4";"2";"1";"1";"2";"[3,7]";"2";"0";"1"
"77";"3";"10";"1";"4";"4";"1";"1";"1";"[3,7]";"1";"0";"1"
"78";"2";"10";"1";"7";"4";"1";"1";"0";"[2,4,9,10]";"2";"0";"1"
"79";"6";"10";"1";"2";"3";"1";"1";"1";"[1,5,6,7,8,9,10]";"1";"0";"1"
"80";"1";"10";"1";"2";"2";"1";"1";"1";"[1,5,6,7,8,9,10]";"1";"0";"1"
"81";"36";"10";"1";"5";"1";"1";"1";"1";"[1,2,6]";"1";"0";"1"
"82";"16";"11";"1";"2";"1";"1";"1";"1";"[1,5,6,7,8,9,10]";"1";"0";"1"
"83";"14";"11";"1";"8";"1";"1";"1";"0";"[1,2,6]";"2";"0";"1"
"84";"6";"11";"1";"2";"3";"1";"1";"1";"[1,5,6,7,8,9,10]";"1";"0";"1"
"85";"15";"11";"1";"7";"2";"1";"1";"2";"[2,4,9,10]";"2";"0";"1"
"86";"36";"11";"1";"5";"1";"1";"1";"1";"[1,2,6]";"1";"0";"1"
"87";"27";"11";"1";"3";"4";"1";"1";"0";"[1,4,6,9]";"1";"0";"1"
"88";"16";"12";"1";"2";"1";"1";"1";"1";"[1,5,6,7,8,9,10]";"1";"0";"1"
"89";"15";"12";"1";"7";"2";"1";"1";"2";"[2,4,9,10]";"2";"0";"1"
"90";"18";"12";"1";"1";"2";"1";"1";"1";"[2,3,5,8,9]";"1";"0";"1"
"91";"38";"12";"1";"9";"4";"1";"1";"2";"[1,2,3,7,10]";"1";"0";"1"
"92";"4";"12";"1";"1";"4";"1";"1";"0";"[2,3,5,8,9]";"2";"0";"1"
"93";"27";"12";"1";"3";"4";"1";"1";"0";"[1,4,6,9]";"1";"0";"1"
"94";"37";"13";"1";"4";"1";"1";"1";"2";"[3,7]";"2";"0";"1"
"95";"22";"13";"1";"9";"1";"1";"1";"1";"[1,2,3,7,10]";"1";"0";"1"
"96";"34";"13";"1";"7";"1";"1";"1";"0";"[2,4,9,10]";"1";"0";"1"
"97";"26";"13";"1";"8";"3";"1";"1";"2";"[1,2,6]";"2";"0";"1"
"98";"28";"13";"1";"3";"1";"1";"1";"1";"[1,4,6,9]";"1";"0";"1"
"99";"18";"13";"1";"1";"2";"1";"1";"1";"[2,3,5,8,9]";"1";"0";"1"
"100";"38";"13";"1";"9";"4";"1";"1";"2";"[1,2,3,7,10]";"1";"0";"1"
"101";"4";"13";"1";"1";"4";"1";"1";"0";"[2,3,5,8,9]";"2";"0";"1"
"102";"37";"14";"1";"4";"1";"1";"1";"2";"[3,7]";"2";"0";"1"
"103";"22";"14";"1";"9";"1";"1";"1";"1";"[1,2,3,7,10]";"1";"0";"1"
"104";"34";"14";"1";"7";"1";"1";"1";"0";"[2,4,9,10]";"1";"0";"1"
"105";"26";"14";"1";"8";"3";"1";"1";"2";"[1,2,6]";"2";"0";"1"
"106";"28";"14";"1";"3";"1";"1";"1";"1";"[1,4,6,9]";"1";"0";"1"
"107";"39";"16";"1";"10";"1";"1";"1";"1";"[2,7,9]";"1";"0";"1"
"108";"13";"17";"1";"1";"3";"1";"1";"0";"[2,3,5,8,9]";"1";"0";"1"
"109";"39";"17";"1";"10";"1";"1";"1";"1";"[2,7,9]";"1";"0";"1"
"110";"21";"17";"1";"5";"3";"1";"1";"0";"[1,2,6]";"2";"0";"1"
"111";"13";"18";"1";"1";"3";"1";"1";"0";"[2,3,5,8,9]";"1";"0";"1"
"112";"21";"18";"1";"5";"3";"1";"1";"0";"[1,2,6]";"2";"0";"1"
"113";"40";"19";"1";"1";"1";"1";"1";"0";"[2,3,5,8,9]";"1";"0";"1"
"114";"40";"20";"1";"1";"1";"1";"1";"0";"[2,3,5,8,9]";"1";"0";"1"
"115";"32";"22";"1";"10";"3";"1";"1";"1";"[2,7,9]";"1";"0";"1"
"116";"32";"23";"1";"10";"3";"1";"1";"1";"[2,7,9]";"1";"0";"1"
"117";"30";"25";"1";"6";"3";"1";"1";"0";"[2,3,5,8]";"2";"0";"1"
"118";"11";"25";"1";"4";"3";"1";"1";"0";"[3,7]";"1";"0";"1"
"119";"30";"26";"1";"6";"3";"1";"1";"0";"[2,3,5,8]";"2";"0";"1"
"120";"11";"26";"1";"4";"3";"1";"1";"0";"[3,7]";"1";"0";"1"
"121";"9";"29";"1";"7";"3";"1";"2";"1";"[2,4,9,10]";"1";"0";"1"
"122";"39";"4";"1";"10";"1";"1";"2";"1";"[2,7,9]";"1";"0";"1"
"123";"1";"30";"1";"2";"2";"1";"2";"1";"[1,5,6,7,8,9,10]";"2";"0";"1"
"124";"9";"30";"1";"7";"3";"1";"2";"1";"[2,4,9,10]";"1";"0";"1"
"125";"39";"5";"1";"10";"1";"1";"2";"1";"[2,7,9]";"1";"0";"1"
"126";"1";"31";"1";"2";"2";"1";"2";"1";"[1,5,6,7,8,9,10]";"2";"0";"1"
"127";"38";"32";"1";"9";"4";"1";"2";"2";"[1,2,3,7,10]";"2";"0";"1"
"128";"7";"32";"1";"9";"3";"1";"2";"0";"[1,2,3,7,10]";"1";"0";"1"
"129";"26";"32";"1";"8";"3";"1";"2";"2";"[1,2,6]";"2";"0";"1"
"130";"15";"33";"1";"7";"2";"1";"2";"2";"[2,4,9,10]";"2";"0";"1"
"131";"4";"33";"1";"1";"4";"1";"2";"0";"[2,3,5,8,9]";"2";"0";"1"
"132";"38";"33";"1";"9";"4";"1";"2";"2";"[1,2,3,7,10]";"2";"0";"1"
"133";"7";"33";"1";"9";"3";"1";"2";"0";"[1,2,3,7,10]";"1";"0";"1"
"134";"3";"33";"1";"4";"4";"1";"2";"1";"[3,7]";"1";"0";"1"
"135";"26";"33";"1";"8";"3";"1";"2";"2";"[1,2,6]";"2";"0";"1"
"136";"19";"33";"1";"2";"4";"1";"2";"2";"[1,5,6,7,8,9,10]";"2";"0";"1"
"137";"15";"34";"1";"7";"2";"1";"2";"2";"[2,4,9,10]";"2";"0";"1"
"138";"12";"34";"1";"5";"4";"1";"2";"2";"[1,2,6]";"2";"0";"1"
"139";"4";"34";"1";"1";"4";"1";"2";"0";"[2,3,5,8,9]";"2";"0";"1"
"140";"3";"34";"1";"4";"4";"1";"2";"1";"[3,7]";"1";"0";"1"
"141";"22";"8";"1";"9";"1";"1";"2";"1";"[1,2,3,7,10]";"1";"0";"1"
"142";"23";"34";"1";"10";"4";"1";"2";"2";"[2,7,9]";"2";"0";"1"
"143";"19";"34";"1";"2";"4";"1";"2";"2";"[1,5,6,7,8,9,10]";"2";"0";"1"
"144";"8";"34";"1";"4";"2";"1";"2";"2";"[3,7]";"2";"0";"1"
"145";"12";"35";"1";"5";"4";"1";"2";"2";"[1,2,6]";"2";"0";"1"
"146";"16";"9";"1";"2";"1";"1";"2";"1";"[1,5,6,7,8,9,10]";"1";"0";"1"
"147";"22";"9";"1";"9";"1";"1";"2";"1";"[1,2,3,7,10]";"1";"0";"1"
"148";"23";"35";"1";"10";"4";"1";"2";"2";"[2,7,9]";"2";"0";"1"
"149";"8";"35";"1";"4";"2";"1";"2";"2";"[3,7]";"2";"0";"1"
"150";"20";"36";"1";"8";"4";"1";"2";"2";"[1,2,6]";"2";"0";"1"
"151";"40";"10";"1";"1";"1";"1";"2";"0";"[2,3,5,8,9]";"0";"2";"1"
"152";"16";"10";"1";"2";"1";"1";"2";"1";"[1,5,6,7,8,9,10]";"1";"0";"1"
"153";"21";"36";"1";"5";"3";"1";"2";"0";"[1,2,6]";"1";"0";"1"
"154";"40";"10";"1";"1";"1";"1";"2";"0";"[2,3,5,8,9]";"0";"2";"1"
"155";"20";"37";"1";"8";"4";"1";"2";"2";"[1,2,6]";"2";"0";"1"
"156";"2";"37";"1";"7";"4";"1";"2";"0";"[2,4,9,10]";"2";"0";"1"
"157";"21";"37";"1";"5";"3";"1";"2";"0";"[1,2,6]";"1";"0";"1"
"158";"14";"11";"1";"8";"1";"1";"2";"0";"[1,2,6]";"2";"0";"1"
"159";"28";"11";"1";"3";"1";"1";"2";"1";"[1,4,6,9]";"1";"0";"1"
"160";"25";"38";"1";"9";"2";"1";"2";"2";"[1,2,3,7,10]";"2";"0";"1"
"161";"33";"38";"1";"6";"4";"1";"2";"1";"[2,3,5,8]";"1";"0";"1"
"162";"2";"38";"1";"7";"4";"1";"2";"0";"[2,4,9,10]";"2";"0";"1"
"163";"14";"12";"1";"8";"1";"1";"2";"0";"[1,2,6]";"2";"0";"1"
"164";"28";"12";"1";"3";"1";"1";"2";"1";"[1,4,6,9]";"1";"0";"1"
"165";"6";"38";"1";"2";"3";"1";"2";"1";"[1,5,6,7,8,9,10]";"1";"0";"1"
"166";"17";"39";"1";"10";"2";"1";"2";"2";"[2,7,9]";"2";"0";"1"
"167";"25";"39";"1";"9";"2";"1";"2";"2";"[1,2,3,7,10]";"2";"0";"1"
"168";"33";"39";"1";"6";"4";"1";"2";"1";"[2,3,5,8]";"1";"0";"1"
"169";"6";"39";"1";"2";"3";"1";"2";"1";"[1,5,6,7,8,9,10]";"1";"0";"1"
"170";"17";"40";"1";"10";"2";"1";"2";"2";"[2,7,9]";"2";"0";"1"
"171";"35";"40";"1";"6";"2";"1";"2";"2";"[2,3,5,8]";"1";"0";"1"
"172";"34";"15";"1";"7";"1";"1";"2";"0";"[2,4,9,10]";"1";"0";"1"
"173";"35";"41";"1";"6";"2";"1";"2";"2";"[2,3,5,8]";"1";"0";"1"
"174";"37";"15";"1";"4";"1";"1";"2";"2";"[3,7]";"1";"0";"1"
"175";"13";"41";"1";"1";"3";"1";"2";"0";"[2,3,5,8,9]";"1";"0";"1"
"176";"34";"16";"1";"7";"1";"1";"2";"0";"[2,4,9,10]";"1";"0";"1"
"177";"24";"16";"1";"6";"1";"1";"2";"0";"[2,3,5,8]";"1";"0";"1"
"178";"37";"16";"1";"4";"1";"1";"2";"2";"[3,7]";"1";"0";"1"
"179";"13";"42";"1";"1";"3";"1";"2";"0";"[2,3,5,8,9]";"1";"0";"1"
"180";"32";"42";"1";"10";"3";"1";"2";"1";"[2,7,9]";"1";"0";"1"
"181";"27";"42";"1";"3";"4";"1";"2";"0";"[1,4,6,9]";"1";"0";"1"
"182";"11";"43";"1";"4";"3";"1";"2";"0";"[3,7]";"1";"0";"1"
"183";"24";"17";"1";"6";"1";"1";"2";"0";"[2,3,5,8]";"1";"0";"1"
"184";"32";"43";"1";"10";"3";"1";"2";"1";"[2,7,9]";"1";"0";"1"
"185";"27";"44";"1";"3";"4";"1";"2";"0";"[1,4,6,9]";"1";"0";"1"
"186";"11";"44";"1";"4";"3";"1";"2";"0";"[3,7]";"1";"0";"1"
"187";"5";"44";"1";"8";"2";"1";"2";"2";"[1,2,6]";"2";"0";"1"
"188";"36";"18";"1";"5";"1";"1";"2";"1";"[1,2,6]";"1";"0";"1"
"189";"5";"45";"1";"8";"2";"1";"2";"2";"[1,2,6]";"2";"0";"1"
"190";"29";"45";"1";"3";"3";"1";"2";"2";"[1,4,6,9]";"1";"0";"1"
"191";"36";"19";"1";"5";"1";"1";"2";"1";"[1,2,6]";"1";"0";"1"
"192";"29";"46";"1";"3";"3";"1";"2";"2";"[1,4,6,9]";"1";"0";"1"
"193";"10";"46";"1";"5";"2";"1";"2";"0";"[1,2,6]";"1";"0";"1"
"194";"10";"47";"1";"5";"2";"1";"2";"0";"[1,2,6]";"1";"0";"1"
"195";"40";"22";"1";"1";"1";"1";"2";"0";"[2,3,5,8,9]";"1";"2";"1"
"196";"40";"23";"1";"1";"1";"1";"2";"0";"[2,3,5,8,9]";"1";"2";"1"
"197";"30";"50";"1";"6";"3";"1";"2";"0";"[2,3,5,8]";"2";"0";"1"
"198";"30";"51";"1";"6";"3";"1";"2";"0";"[2,3,5,8]";"2";"0";"1"
"199";"18";"52";"1";"1";"2";"1";"2";"1";"[2,3,5,8,9]";"1";"0";"1"
"200";"31";"53";"1";"3";"2";"1";"2";"2";"[1,4,6,9]";"1";"0";"1"
"201";"18";"53";"1";"1";"2";"1";"2";"1";"[2,3,5,8,9]";"1";"0";"1"
"202";"31";"54";"1";"3";"2";"1";"2";"2";"[1,4,6,9]";"1";"0";"1"
"203";"9";"56";"1";"7";"3";"1";"3";"1";"[2,4,9,10]";"1";"0";"1"
"204";"21";"56";"1";"5";"3";"1";"3";"0";"[1,2,6]";"1";"0";"1"
"205";"7";"57";"1";"9";"3";"1";"3";"0";"[1,2,3,7,10]";"1";"0";"1"
"206";"9";"57";"1";"7";"3";"1";"3";"1";"[2,4,9,10]";"1";"0";"1"
"207";"21";"57";"1";"5";"3";"1";"3";"0";"[1,2,6]";"1";"0";"1"
"208";"1";"57";"1";"2";"2";"1";"3";"1";"[1,5,6,7,8,9,10]";"2";"0";"1"
"209";"4";"58";"1";"1";"4";"1";"3";"0";"[2,3,5,8,9]";"2";"0";"1"
"210";"7";"58";"1";"9";"3";"1";"3";"0";"[1,2,3,7,10]";"1";"0";"1"
"211";"15";"58";"1";"7";"2";"1";"3";"2";"[2,4,9,10]";"2";"0";"1"
"212";"40";"4";"1";"1";"1";"1";"3";"0";"[2,3,5,8,9]";"0";"1";"1"
"213";"1";"58";"1";"2";"2";"1";"3";"1";"[1,5,6,7,8,9,10]";"2";"0";"1"
"214";"12";"58";"1";"5";"4";"1";"3";"2";"[1,2,6]";"2";"0";"1"
"215";"34";"4";"1";"7";"1";"1";"3";"0";"[2,4,9,10]";"1";"0";"1"
"216";"2";"58";"1";"7";"4";"1";"3";"0";"[2,4,9,10]";"2";"0";"1"
"217";"4";"59";"1";"1";"4";"1";"3";"0";"[2,3,5,8,9]";"2";"0";"1"
"218";"40";"5";"1";"1";"1";"1";"3";"0";"[2,3,5,8,9]";"0";"2";"1"
"219";"8";"59";"1";"4";"2";"1";"3";"2";"[3,7]";"0";"1";"1"
"220";"15";"59";"1";"7";"2";"1";"3";"2";"[2,4,9,10]";"2";"0";"1"
"221";"12";"59";"1";"5";"4";"1";"3";"2";"[1,2,6]";"2";"0";"1"
"222";"34";"5";"1";"7";"1";"1";"3";"0";"[2,4,9,10]";"1";"0";"1"
"223";"39";"5";"1";"10";"1";"1";"3";"1";"[2,7,9]";"1";"0";"1"
"224";"2";"59";"1";"7";"4";"1";"3";"0";"[2,4,9,10]";"2";"0";"1"
"225";"20";"59";"1";"8";"4";"1";"3";"2";"[1,2,6]";"2";"0";"1"
"226";"23";"60";"1";"10";"4";"1";"3";"2";"[2,7,9]";"2";"0";"1"
"227";"39";"6";"1";"10";"1";"1";"3";"1";"[2,7,9]";"1";"0";"1"
"228";"20";"60";"1";"8";"4";"1";"3";"2";"[1,2,6]";"2";"0";"1"
"229";"24";"6";"1";"6";"1";"1";"3";"0";"[2,3,5,8]";"0";"1";"1"
"230";"40";"7";"1";"1";"1";"1";"3";"0";"[2,3,5,8,9]";"0";"3";"1"
"231";"16";"7";"1";"2";"1";"1";"3";"1";"[1,5,6,7,8,9,10]";"1";"0";"1"
"232";"3";"61";"1";"4";"4";"1";"3";"1";"[3,7]";"1";"0";"1"
"233";"33";"61";"1";"6";"4";"1";"3";"1";"[2,3,5,8]";"1";"0";"1"
"234";"14";"7";"1";"8";"1";"1";"3";"0";"[1,2,6]";"1";"0";"1"
"235";"23";"61";"1";"10";"4";"1";"3";"2";"[2,7,9]";"2";"0";"1"
"236";"16";"8";"1";"2";"1";"1";"3";"1";"[1,5,6,7,8,9,10]";"1";"0";"1"
"237";"3";"62";"1";"4";"4";"1";"3";"1";"[3,7]";"1";"0";"1"
"238";"33";"62";"1";"6";"4";"1";"3";"1";"[2,3,5,8]";"1";"0";"1"
"239";"37";"8";"1";"4";"1";"1";"3";"2";"[3,7]";"1";"0";"1"
"240";"14";"8";"1";"8";"1";"1";"3";"0";"[1,2,6]";"1";"0";"1"
"241";"8";"62";"1";"4";"2";"1";"3";"2";"[3,7]";"0";"2";"1"
"242";"17";"62";"1";"10";"2";"1";"3";"2";"[2,7,9]";"2";"0";"1"
"243";"36";"9";"1";"5";"1";"1";"3";"1";"[1,2,6]";"1";"0";"1"
"244";"37";"9";"1";"4";"1";"1";"3";"2";"[3,7]";"1";"0";"1"
"245";"22";"9";"1";"9";"1";"1";"3";"1";"[1,2,3,7,10]";"1";"0";"1"
"246";"6";"63";"1";"2";"3";"1";"3";"1";"[1,5,6,7,8,9,10]";"1";"0";"1"
"247";"24";"9";"1";"6";"1";"1";"3";"0";"[2,3,5,8]";"0";"2";"1"
"248";"35";"63";"1";"6";"2";"1";"3";"2";"[2,3,5,8]";"1";"0";"1"
"249";"25";"63";"1";"9";"2";"1";"3";"2";"[1,2,3,7,10]";"2";"0";"1"
"250";"40";"9";"1";"1";"1";"1";"3";"0";"[2,3,5,8,9]";"1";"3";"1"
"251";"17";"63";"1";"10";"2";"1";"3";"2";"[2,7,9]";"2";"0";"1"
"252";"36";"10";"1";"5";"1";"1";"3";"1";"[1,2,6]";"1";"0";"1"
"253";"22";"10";"1";"9";"1";"1";"3";"1";"[1,2,3,7,10]";"1";"0";"1"
"254";"6";"64";"1";"2";"3";"1";"3";"1";"[1,5,6,7,8,9,10]";"1";"0";"1"
"255";"8";"64";"1";"4";"2";"1";"3";"2";"[3,7]";"0";"1";"1"
"256";"35";"64";"1";"6";"2";"1";"3";"2";"[2,3,5,8]";"1";"0";"1"
"257";"25";"64";"1";"9";"2";"1";"3";"2";"[1,2,3,7,10]";"2";"0";"1"
"258";"40";"10";"1";"1";"1";"1";"3";"0";"[2,3,5,8,9]";"1";"3";"1"
"259";"10";"65";"1";"5";"2";"1";"3";"0";"[1,2,6]";"1";"0";"1"
"260";"26";"65";"1";"8";"3";"1";"3";"2";"[1,2,6]";"1";"0";"1"
"261";"19";"65";"1";"2";"4";"1";"3";"2";"[1,5,6,7,8,9,10]";"2";"0";"1"
"262";"13";"65";"1";"1";"3";"1";"3";"0";"[2,3,5,8,9]";"1";"0";"1"
"263";"8";"65";"1";"4";"2";"1";"3";"2";"[3,7]";"0";"2";"1"
"264";"28";"11";"1";"3";"1";"1";"3";"1";"[1,4,6,9]";"1";"0";"1"
"265";"10";"66";"1";"5";"2";"1";"3";"0";"[1,2,6]";"1";"0";"1"
"266";"26";"66";"1";"8";"3";"1";"3";"2";"[1,2,6]";"1";"0";"1"
"267";"19";"66";"1";"2";"4";"1";"3";"2";"[1,5,6,7,8,9,10]";"2";"0";"1"
"268";"13";"66";"1";"1";"3";"1";"3";"0";"[2,3,5,8,9]";"1";"0";"1"
"269";"28";"12";"1";"3";"1";"1";"3";"1";"[1,4,6,9]";"1";"0";"1"
"270";"18";"67";"1";"1";"2";"1";"3";"1";"[2,3,5,8,9]";"1";"0";"1"
"271";"5";"67";"1";"8";"2";"1";"3";"2";"[1,2,6]";"2";"0";"1"
"272";"18";"68";"1";"1";"2";"1";"3";"1";"[2,3,5,8,9]";"1";"0";"1"
"273";"5";"68";"1";"8";"2";"1";"3";"2";"[1,2,6]";"2";"0";"1"
"274";"24";"14";"1";"6";"1";"1";"3";"0";"[2,3,5,8]";"1";"2";"1"
"275";"29";"69";"1";"3";"3";"1";"3";"2";"[1,4,6,9]";"2";"0";"1"
"276";"24";"15";"1";"6";"1";"1";"3";"0";"[2,3,5,8]";"1";"2";"1"
"277";"29";"70";"1";"3";"3";"1";"3";"2";"[1,4,6,9]";"2";"0";"1"
"278";"32";"71";"1";"10";"3";"1";"3";"1";"[2,7,9]";"2";"0";"1"
"279";"38";"71";"1";"9";"4";"1";"3";"2";"[1,2,3,7,10]";"2";"0";"1"
"280";"32";"72";"1";"10";"3";"1";"3";"1";"[2,7,9]";"2";"0";"1"
"281";"8";"72";"1";"4";"2";"1";"3";"2";"[3,7]";"2";"2";"1"
"282";"38";"72";"1";"9";"4";"1";"3";"2";"[1,2,3,7,10]";"2";"0";"1"
"283";"8";"73";"1";"4";"2";"1";"3";"2";"[3,7]";"2";"2";"1"
"284";"27";"73";"1";"3";"4";"1";"3";"0";"[1,4,6,9]";"1";"0";"1"
"285";"27";"74";"1";"3";"4";"1";"3";"0";"[1,4,6,9]";"1";"0";"1"
"286";"31";"76";"1";"3";"2";"1";"3";"2";"[1,4,6,9]";"1";"0";"1"
"287";"31";"77";"1";"3";"2";"1";"3";"2";"[1,4,6,9]";"1";"0";"1"
"288";"30";"78";"1";"6";"3";"1";"3";"0";"[2,3,5,8]";"1";"0";"1"
"289";"30";"79";"1";"6";"3";"1";"3";"0";"[2,3,5,8]";"1";"0";"1"
"290";"11";"84";"1";"4";"3";"1";"3";"0";"[3,7]";"0";"0";"1"
"291";"0";"30";"1";"4";"3";"1";"3";"0";"[3,7]";"1";"0";"0"
"292";"4";"86";"1";"1";"4";"1";"4";"0";"[2,3,5,8,9]";"0";"2";"1"
"293";"34";"3";"1";"7";"1";"1";"4";"0";"[2,4,9,10]";"1";"0";"1"
"294";"16";"3";"1";"2";"1";"1";"4";"1";"[1,5,6,7,8,9,10]";"2";"0";"1"
"295";"1";"87";"1";"2";"2";"1";"4";"1";"[1,5,6,7,8,9,10]";"2";"0";"1"
"296";"12";"87";"1";"5";"4";"1";"4";"2";"[1,2,6]";"1";"0";"1"
"297";"32";"87";"1";"10";"3";"1";"4";"1";"[2,7,9]";"1";"0";"1"
"298";"11";"87";"1";"4";"3";"1";"4";"0";"[3,7]";"1";"0";"1"
"299";"4";"87";"1";"1";"4";"1";"4";"0";"[2,3,5,8,9]";"0";"3";"1"
"300";"19";"87";"1";"2";"4";"1";"4";"2";"[1,5,6,7,8,9,10]";"2";"0";"1"
"301";"24";"4";"1";"6";"1";"1";"4";"0";"[2,3,5,8]";"1";"0";"1"
"302";"34";"4";"1";"7";"1";"1";"4";"0";"[2,4,9,10]";"1";"0";"1"
"303";"16";"4";"1";"2";"1";"1";"4";"1";"[1,5,6,7,8,9,10]";"2";"0";"1"
"304";"1";"88";"1";"2";"2";"1";"4";"1";"[1,5,6,7,8,9,10]";"2";"0";"1"
"305";"12";"88";"1";"5";"4";"1";"4";"2";"[1,2,6]";"1";"0";"1"
"306";"32";"88";"1";"10";"3";"1";"4";"1";"[2,7,9]";"1";"0";"1"
"307";"20";"88";"1";"8";"4";"1";"4";"2";"[1,2,6]";"2";"0";"1"
"308";"39";"4";"1";"10";"1";"1";"4";"1";"[2,7,9]";"1";"0";"1"
"309";"33";"88";"1";"6";"4";"1";"4";"1";"[2,3,5,8]";"1";"0";"1"
"310";"11";"88";"1";"4";"3";"1";"4";"0";"[3,7]";"1";"0";"1"
"311";"37";"4";"1";"4";"1";"1";"4";"2";"[3,7]";"1";"0";"1"
"312";"5";"88";"1";"8";"2";"1";"4";"2";"[1,2,6]";"0";"2";"1"
"313";"19";"88";"1";"2";"4";"1";"4";"2";"[1,5,6,7,8,9,10]";"2";"0";"1"
"314";"24";"5";"1";"6";"1";"1";"4";"0";"[2,3,5,8]";"1";"0";"1"
"315";"25";"89";"1";"9";"2";"1";"4";"2";"[1,2,3,7,10]";"2";"0";"1"
"316";"2";"89";"1";"7";"4";"1";"4";"0";"[2,4,9,10]";"2";"0";"1"
"317";"20";"89";"1";"8";"4";"1";"4";"2";"[1,2,6]";"2";"0";"1"
"318";"39";"5";"1";"10";"1";"1";"4";"1";"[2,7,9]";"1";"0";"1"
"319";"33";"89";"1";"6";"4";"1";"4";"1";"[2,3,5,8]";"1";"0";"1"
"320";"7";"89";"1";"9";"3";"1";"4";"0";"[1,2,3,7,10]";"1";"0";"1"
"321";"37";"5";"1";"4";"1";"1";"4";"2";"[3,7]";"1";"0";"1"
"322";"9";"89";"1";"7";"3";"1";"4";"1";"[2,4,9,10]";"1";"0";"1"
"323";"22";"5";"1";"9";"1";"1";"4";"1";"[1,2,3,7,10]";"0";"2";"1"
"324";"23";"89";"1";"10";"4";"1";"4";"2";"[2,7,9]";"2";"0";"1"
"325";"3";"89";"1";"4";"4";"1";"4";"1";"[3,7]";"0";"6";"1"
"326";"5";"90";"1";"8";"2";"1";"4";"2";"[1,2,6]";"0";"4";"1"
"327";"25";"90";"1";"9";"2";"1";"4";"2";"[1,2,3,7,10]";"2";"0";"1"
"328";"22";"6";"1";"9";"1";"1";"4";"1";"[1,2,3,7,10]";"0";"1";"1"
"329";"2";"90";"1";"7";"4";"1";"4";"0";"[2,4,9,10]";"2";"0";"1"
"330";"7";"90";"1";"9";"3";"1";"4";"0";"[1,2,3,7,10]";"1";"0";"1"
"331";"9";"90";"1";"7";"3";"1";"4";"1";"[2,4,9,10]";"1";"0";"1"
"332";"23";"90";"1";"10";"4";"1";"4";"2";"[2,7,9]";"2";"0";"1"
"333";"22";"6";"1";"9";"1";"1";"4";"1";"[1,2,3,7,10]";"0";"3";"1"
"334";"5";"91";"1";"8";"2";"1";"4";"2";"[1,2,6]";"2";"4";"1"
"335";"18";"91";"1";"1";"2";"1";"4";"1";"[2,3,5,8,9]";"0";"1";"1"
"336";"15";"91";"1";"7";"2";"1";"4";"2";"[2,4,9,10]";"2";"0";"1"
"337";"8";"91";"1";"4";"2";"1";"4";"2";"[3,7]";"1";"0";"1"
"338";"17";"91";"1";"10";"2";"1";"4";"2";"[2,7,9]";"0";"1";"1"
"339";"21";"92";"1";"5";"3";"1";"4";"0";"[1,2,6]";"1";"0";"1"
"340";"35";"92";"1";"6";"2";"1";"4";"2";"[2,3,5,8]";"1";"0";"1"
"341";"28";"8";"1";"3";"1";"1";"4";"1";"[1,4,6,9]";"1";"0";"1"
"342";"3";"92";"1";"4";"4";"1";"4";"1";"[3,7]";"1";"6";"1"
"343";"5";"92";"1";"8";"2";"1";"4";"2";"[1,2,6]";"2";"4";"1"
"344";"15";"92";"1";"7";"2";"1";"4";"2";"[2,4,9,10]";"2";"0";"1"
"345";"22";"8";"1";"9";"1";"1";"4";"1";"[1,2,3,7,10]";"1";"3";"1"
"346";"8";"92";"1";"4";"2";"1";"4";"2";"[3,7]";"1";"0";"1"
"347";"18";"92";"1";"1";"2";"1";"4";"1";"[2,3,5,8,9]";"0";"8";"1"
"348";"21";"93";"1";"5";"3";"1";"4";"0";"[1,2,6]";"1";"0";"1"
"349";"35";"93";"1";"6";"2";"1";"4";"2";"[2,3,5,8]";"1";"0";"1"
"350";"28";"9";"1";"3";"1";"1";"4";"1";"[1,4,6,9]";"1";"0";"1"
"351";"3";"93";"1";"4";"4";"1";"4";"1";"[3,7]";"1";"6";"1"
"352";"22";"9";"1";"9";"1";"1";"4";"1";"[1,2,3,7,10]";"1";"3";"1"
"353";"22";"9";"1";"9";"1";"1";"4";"1";"[1,2,3,7,10]";"1";"4";"1"
"354";"17";"94";"1";"10";"2";"1";"4";"2";"[2,7,9]";"0";"2";"1"
"355";"14";"10";"1";"8";"1";"1";"4";"0";"[1,2,6]";"1";"0";"1"
"356";"36";"10";"1";"5";"1";"1";"4";"1";"[1,2,6]";"1";"0";"1"
"357";"13";"94";"1";"1";"3";"1";"4";"0";"[2,3,5,8,9]";"2";"0";"1"
"358";"10";"95";"1";"5";"2";"1";"4";"0";"[1,2,6]";"1";"0";"1"
"359";"14";"11";"1";"8";"1";"1";"4";"0";"[1,2,6]";"1";"0";"1"
"360";"36";"11";"1";"5";"1";"1";"4";"1";"[1,2,6]";"1";"0";"1"
"361";"13";"95";"1";"1";"3";"1";"4";"0";"[2,3,5,8,9]";"2";"0";"1"
"362";"6";"95";"1";"2";"3";"1";"4";"1";"[1,5,6,7,8,9,10]";"1";"0";"1"
"363";"10";"96";"1";"5";"2";"1";"4";"0";"[1,2,6]";"1";"0";"1"
"364";"4";"96";"1";"1";"4";"1";"4";"0";"[2,3,5,8,9]";"1";"3";"1"
"365";"17";"96";"1";"10";"2";"1";"4";"2";"[2,7,9]";"0";"3";"1"
"366";"6";"96";"1";"2";"3";"1";"4";"1";"[1,5,6,7,8,9,10]";"1";"0";"1"
"367";"4";"97";"1";"1";"4";"1";"4";"0";"[2,3,5,8,9]";"1";"3";"1"
"368";"29";"97";"1";"3";"3";"1";"4";"2";"[1,4,6,9]";"1";"0";"1"
"369";"29";"98";"1";"3";"3";"1";"4";"2";"[1,4,6,9]";"1";"0";"1"
"370";"18";"98";"1";"1";"2";"1";"4";"1";"[2,3,5,8,9]";"1";"8";"1"
"371";"26";"98";"1";"8";"3";"1";"4";"2";"[1,2,6]";"2";"0";"1"
"372";"18";"99";"1";"1";"2";"1";"4";"1";"[2,3,5,8,9]";"1";"8";"1"
"373";"26";"99";"1";"8";"3";"1";"4";"2";"[1,2,6]";"2";"0";"1"
"374";"17";"100";"1";"10";"2";"1";"4";"2";"[2,7,9]";"2";"3";"1"
"375";"17";"101";"1";"10";"2";"1";"4";"2";"[2,7,9]";"2";"3";"1"
"376";"31";"103";"1";"3";"2";"1";"4";"2";"[1,4,6,9]";"1";"0";"1"
"377";"40";"20";"1";"1";"1";"1";"4";"0";"[2,3,5,8,9]";"1";"0";"1"
"378";"31";"104";"1";"3";"2";"1";"4";"2";"[1,4,6,9]";"1";"0";"1"
"379";"40";"21";"1";"1";"1";"1";"4";"0";"[2,3,5,8,9]";"1";"0";"1"
"380";"27";"105";"1";"3";"4";"1";"4";"0";"[1,4,6,9]";"1";"0";"1"
"381";"25";"105";"1";"9";"2";"1";"4";"2";"[1,2,3,7,10]";"2";"2";"1"
"382";"27";"106";"1";"3";"4";"1";"4";"0";"[1,4,6,9]";"1";"0";"1"
"383";"38";"106";"1";"9";"4";"1";"4";"2";"[1,2,3,7,10]";"1";"0";"1"
"384";"25";"107";"1";"9";"2";"1";"4";"2";"[1,2,3,7,10]";"2";"1";"1"
"385";"38";"107";"1";"9";"4";"1";"4";"2";"[1,2,3,7,10]";"1";"0";"1"
"386";"25";"109";"1";"9";"2";"1";"4";"2";"[1,2,3,7,10]";"2";"2";"1"
"387";"30";"110";"1";"6";"3";"1";"4";"0";"[2,3,5,8]";"1";"0";"1"
"388";"25";"110";"1";"9";"2";"1";"4";"2";"[1,2,3,7,10]";"2";"3";"1"
"389";"30";"111";"1";"6";"3";"1";"4";"0";"[2,3,5,8]";"1";"0";"1"
"390";"3";"112";"1";"4";"4";"1";"5";"1";"[3,7]";"1";"0";"1"
"391";"3";"113";"1";"4";"4";"1";"5";"1";"[3,7]";"1";"0";"1"
"392";"25";"114";"1";"9";"2";"1";"5";"2";"[1,2,3,7,10]";"0";"5";"1"
"393";"8";"114";"1";"4";"2";"1";"5";"2";"[3,7]";"2";"0";"1"
"394";"10";"114";"1";"5";"2";"1";"5";"0";"[1,2,6]";"1";"0";"1"
"395";"21";"114";"1";"5";"3";"1";"5";"0";"[1,2,6]";"1";"0";"1"
"396";"11";"114";"1";"4";"3";"1";"5";"0";"[3,7]";"1";"0";"1"
"397";"1";"115";"1";"2";"2";"1";"5";"1";"[1,5,6,7,8,9,10]";"2";"0";"1"
"398";"16";"4";"1";"2";"1";"1";"5";"1";"[1,5,6,7,8,9,10]";"1";"0";"1"
"399";"7";"115";"1";"9";"3";"1";"5";"0";"[1,2,3,7,10]";"1";"0";"1"
"400";"13";"115";"1";"1";"3";"1";"5";"0";"[2,3,5,8,9]";"2";"0";"1"
"401";"8";"115";"1";"4";"2";"1";"5";"2";"[3,7]";"2";"0";"1"
"402";"12";"115";"1";"5";"4";"1";"5";"2";"[1,2,6]";"1";"0";"1"
"403";"10";"115";"1";"5";"2";"1";"5";"0";"[1,2,6]";"1";"0";"1"
"404";"21";"115";"1";"5";"3";"1";"5";"0";"[1,2,6]";"1";"0";"1"
"405";"35";"115";"1";"6";"2";"1";"5";"2";"[2,3,5,8]";"1";"0";"1"
"406";"38";"115";"1";"9";"4";"1";"5";"2";"[1,2,3,7,10]";"2";"0";"1"
"407";"32";"115";"1";"10";"3";"1";"5";"1";"[2,7,9]";"0";"3";"1"
"408";"11";"115";"1";"4";"3";"1";"5";"0";"[3,7]";"1";"0";"1"
"409";"5";"115";"1";"8";"2";"1";"5";"2";"[1,2,6]";"2";"0";"1"
"410";"40";"4";"1";"1";"1";"1";"5";"0";"[2,3,5,8,9]";"1";"0";"1"
"411";"34";"4";"1";"7";"1";"1";"5";"0";"[2,4,9,10]";"1";"0";"1"
"412";"1";"116";"1";"2";"2";"1";"5";"1";"[1,5,6,7,8,9,10]";"2";"0";"1"
"413";"16";"5";"1";"2";"1";"1";"5";"1";"[1,5,6,7,8,9,10]";"1";"0";"1"
"414";"33";"116";"1";"6";"4";"1";"5";"1";"[2,3,5,8]";"1";"0";"1"
"415";"4";"116";"1";"1";"4";"1";"5";"0";"[2,3,5,8,9]";"1";"0";"1"
"416";"7";"116";"1";"9";"3";"1";"5";"0";"[1,2,3,7,10]";"1";"0";"1"
"417";"13";"116";"1";"1";"3";"1";"5";"0";"[2,3,5,8,9]";"2";"0";"1"
"418";"12";"116";"1";"5";"4";"1";"5";"2";"[1,2,6]";"1";"0";"1"
"419";"9";"116";"1";"7";"3";"1";"5";"1";"[2,4,9,10]";"1";"0";"1"
"420";"35";"116";"1";"6";"2";"1";"5";"2";"[2,3,5,8]";"1";"0";"1"
"421";"38";"116";"1";"9";"4";"1";"5";"2";"[1,2,3,7,10]";"2";"0";"1"
"422";"5";"116";"1";"8";"2";"1";"5";"2";"[1,2,6]";"2";"0";"1"
"423";"40";"5";"1";"1";"1";"1";"5";"0";"[2,3,5,8,9]";"1";"0";"1"
"424";"14";"5";"1";"8";"1";"1";"5";"0";"[1,2,6]";"2";"0";"1"
"425";"34";"5";"1";"7";"1";"1";"5";"0";"[2,4,9,10]";"1";"0";"1"
"426";"28";"5";"1";"3";"1";"1";"5";"1";"[1,4,6,9]";"1";"0";"1"
"427";"32";"117";"1";"10";"3";"1";"5";"1";"[2,7,9]";"0";"2";"1"
"428";"20";"117";"1";"8";"4";"1";"5";"2";"[1,2,6]";"2";"0";"1"
"429";"33";"117";"1";"6";"4";"1";"5";"1";"[2,3,5,8]";"1";"0";"1"
"430";"4";"117";"1";"1";"4";"1";"5";"0";"[2,3,5,8,9]";"1";"0";"1"
"431";"17";"117";"1";"10";"2";"1";"5";"2";"[2,7,9]";"0";"3";"1"
"432";"9";"117";"1";"7";"3";"1";"5";"1";"[2,4,9,10]";"1";"0";"1"
"433";"19";"117";"1";"2";"4";"1";"5";"2";"[1,5,6,7,8,9,10]";"2";"0";"1"
"434";"14";"6";"1";"8";"1";"1";"5";"0";"[1,2,6]";"2";"0";"1"
"435";"36";"6";"1";"5";"1";"1";"5";"1";"[1,2,6]";"1";"0";"1"
"436";"15";"117";"1";"7";"2";"1";"5";"2";"[2,4,9,10]";"2";"0";"1"
"437";"28";"6";"1";"3";"1";"1";"5";"1";"[1,4,6,9]";"1";"0";"1"
"438";"32";"118";"1";"10";"3";"1";"5";"1";"[2,7,9]";"0";"3";"1"
"439";"20";"118";"1";"8";"4";"1";"5";"2";"[1,2,6]";"2";"0";"1"
"440";"26";"118";"1";"8";"3";"1";"5";"2";"[1,2,6]";"1";"0";"1"
"441";"19";"118";"1";"2";"4";"1";"5";"2";"[1,5,6,7,8,9,10]";"2";"0";"1"
"442";"36";"7";"1";"5";"1";"1";"5";"1";"[1,2,6]";"1";"0";"1"
"443";"15";"118";"1";"7";"2";"1";"5";"2";"[2,4,9,10]";"2";"0";"1"
"444";"32";"119";"1";"10";"3";"1";"5";"1";"[2,7,9]";"0";"4";"1"
"445";"26";"119";"1";"8";"3";"1";"5";"2";"[1,2,6]";"1";"0";"1"
"446";"17";"119";"1";"10";"2";"1";"5";"2";"[2,7,9]";"0";"2";"1"
"447";"2";"119";"1";"7";"4";"1";"5";"0";"[2,4,9,10]";"2";"0";"1"
"448";"22";"9";"1";"9";"1";"1";"5";"1";"[1,2,3,7,10]";"1";"0";"1"
"449";"32";"120";"1";"10";"3";"1";"5";"1";"[2,7,9]";"1";"4";"1"
"450";"18";"120";"1";"1";"2";"1";"5";"1";"[2,3,5,8,9]";"1";"0";"1"
"451";"2";"121";"1";"7";"4";"1";"5";"0";"[2,4,9,10]";"2";"0";"1"
"452";"22";"10";"1";"9";"1";"1";"5";"1";"[1,2,3,7,10]";"1";"0";"1"
"453";"17";"121";"1";"10";"2";"1";"5";"2";"[2,7,9]";"0";"1";"1"
"454";"25";"121";"1";"9";"2";"1";"5";"2";"[1,2,3,7,10]";"1";"5";"1"
"455";"32";"121";"1";"10";"3";"1";"5";"1";"[2,7,9]";"1";"4";"1"
"456";"18";"121";"1";"1";"2";"1";"5";"1";"[2,3,5,8,9]";"1";"0";"1"
"457";"23";"122";"1";"10";"4";"1";"5";"2";"[2,7,9]";"2";"0";"1"
"458";"24";"11";"1";"6";"1";"1";"5";"0";"[2,3,5,8]";"1";"0";"1"
"459";"25";"122";"1";"9";"2";"1";"5";"2";"[1,2,3,7,10]";"1";"5";"1"
"460";"27";"122";"1";"3";"4";"1";"5";"0";"[1,4,6,9]";"1";"0";"1"
"461";"23";"123";"1";"10";"4";"1";"5";"2";"[2,7,9]";"2";"0";"1"
"462";"24";"12";"1";"6";"1";"1";"5";"0";"[2,3,5,8]";"1";"0";"1"
"463";"37";"12";"1";"4";"1";"1";"5";"2";"[3,7]";"1";"0";"1"
"464";"29";"123";"1";"3";"3";"1";"5";"2";"[1,4,6,9]";"1";"0";"1"
"465";"27";"123";"1";"3";"4";"1";"5";"0";"[1,4,6,9]";"1";"0";"1"
"466";"39";"12";"1";"10";"1";"1";"5";"1";"[2,7,9]";"1";"0";"1"
"467";"37";"13";"1";"4";"1";"1";"5";"2";"[3,7]";"1";"0";"1"
"468";"29";"124";"1";"3";"3";"1";"5";"2";"[1,4,6,9]";"1";"0";"1"
"469";"39";"13";"1";"10";"1";"1";"5";"1";"[2,7,9]";"1";"0";"1"
"470";"6";"124";"1";"2";"3";"1";"5";"1";"[1,5,6,7,8,9,10]";"1";"0";"1"
"471";"17";"125";"1";"10";"2";"1";"5";"2";"[2,7,9]";"2";"1";"1"
"472";"6";"125";"1";"2";"3";"1";"5";"1";"[1,5,6,7,8,9,10]";"1";"0";"1"
"473";"17";"126";"1";"10";"2";"1";"5";"2";"[2,7,9]";"2";"1";"1"
"474";"30";"134";"1";"6";"3";"1";"5";"0";"[2,3,5,8]";"1";"0";"1"
"475";"30";"135";"1";"6";"3";"1";"5";"0";"[2,3,5,8]";"1";"0";"1"
"476";"31";"138";"1";"3";"2";"1";"5";"2";"[1,4,6,9]";"1";"0";"1"
"477";"31";"139";"1";"3";"2";"1";"5";"2";"[1,4,6,9]";"1";"0";"1"
"478";"12";"141";"1";"5";"4";"1";"6";"2";"[1,2,6]";"1";"0";"1"
"479";"23";"141";"1";"10";"4";"1";"6";"2";"[2,7,9]";"2";"0";"1"
"480";"28";"2";"1";"3";"1";"1";"6";"1";"[1,4,6,9]";"1";"0";"1"
"481";"36";"2";"1";"5";"1";"1";"6";"1";"[1,2,6]";"1";"0";"1"
"482";"34";"2";"1";"7";"1";"1";"6";"0";"[2,4,9,10]";"1";"0";"1"
"483";"11";"141";"1";"4";"3";"1";"6";"0";"[3,7]";"1";"0";"1"
"484";"10";"142";"1";"5";"2";"1";"6";"0";"[1,2,6]";"1";"0";"1"
"485";"9";"142";"1";"7";"3";"1";"6";"1";"[2,4,9,10]";"1";"0";"1"
"486";"12";"142";"1";"5";"4";"1";"6";"2";"[1,2,6]";"1";"0";"1"
"487";"2";"142";"1";"7";"4";"1";"6";"0";"[2,4,9,10]";"2";"0";"1"
"488";"20";"142";"1";"8";"4";"1";"6";"2";"[1,2,6]";"2";"0";"1"
"489";"23";"142";"1";"10";"4";"1";"6";"2";"[2,7,9]";"2";"0";"1"
"490";"35";"142";"1";"6";"2";"1";"6";"2";"[2,3,5,8]";"1";"0";"1"
"491";"28";"3";"1";"3";"1";"1";"6";"1";"[1,4,6,9]";"1";"0";"1"
"492";"36";"3";"1";"5";"1";"1";"6";"1";"[1,2,6]";"1";"0";"1"
"493";"34";"3";"1";"7";"1";"1";"6";"0";"[2,4,9,10]";"1";"0";"1"
"494";"5";"142";"1";"8";"2";"1";"6";"2";"[1,2,6]";"0";"1";"1"
"495";"11";"142";"1";"4";"3";"1";"6";"0";"[3,7]";"1";"0";"1"
"496";"19";"142";"1";"2";"4";"1";"6";"2";"[1,5,6,7,8,9,10]";"2";"0";"1"
"497";"10";"143";"1";"5";"2";"1";"6";"0";"[1,2,6]";"1";"0";"1"
"498";"3";"143";"1";"4";"4";"1";"6";"1";"[3,7]";"1";"0";"1"
"499";"9";"143";"1";"7";"3";"1";"6";"1";"[2,4,9,10]";"1";"0";"1"
"500";"39";"4";"1";"10";"1";"1";"6";"1";"[2,7,9]";"1";"0";"1"
"501";"2";"143";"1";"7";"4";"1";"6";"0";"[2,4,9,10]";"2";"0";"1"
"502";"8";"143";"1";"4";"2";"1";"6";"2";"[3,7]";"2";"0";"1"
"503";"20";"143";"1";"8";"4";"1";"6";"2";"[1,2,6]";"2";"0";"1"
"504";"35";"143";"1";"6";"2";"1";"6";"2";"[2,3,5,8]";"1";"0";"1"
"505";"19";"143";"1";"2";"4";"1";"6";"2";"[1,5,6,7,8,9,10]";"2";"0";"1"
"506";"22";"5";"1";"9";"1";"1";"6";"1";"[1,2,3,7,10]";"1";"0";"1"
"507";"3";"144";"1";"4";"4";"1";"6";"1";"[3,7]";"1";"0";"1"
"508";"39";"5";"1";"10";"1";"1";"6";"1";"[2,7,9]";"1";"0";"1"
"509";"21";"144";"1";"5";"3";"1";"6";"0";"[1,2,6]";"1";"0";"1"
"510";"7";"144";"1";"9";"3";"1";"6";"0";"[1,2,3,7,10]";"1";"0";"1"
"511";"24";"5";"1";"6";"1";"1";"6";"0";"[2,3,5,8]";"0";"4";"1"
"512";"8";"144";"1";"4";"2";"1";"6";"2";"[3,7]";"2";"0";"1"
"513";"25";"144";"1";"9";"2";"1";"6";"2";"[1,2,3,7,10]";"1";"0";"1"
"514";"4";"144";"1";"1";"4";"1";"6";"0";"[2,3,5,8,9]";"1";"0";"1"
"515";"22";"6";"1";"9";"1";"1";"6";"1";"[1,2,3,7,10]";"1";"0";"1"
"516";"13";"145";"1";"1";"3";"1";"6";"0";"[2,3,5,8,9]";"2";"0";"1"
"517";"18";"145";"1";"1";"2";"1";"6";"1";"[2,3,5,8,9]";"1";"0";"1"
"518";"21";"145";"1";"5";"3";"1";"6";"0";"[1,2,6]";"1";"0";"1"
"519";"7";"145";"1";"9";"3";"1";"6";"0";"[1,2,3,7,10]";"1";"0";"1"
"520";"16";"6";"1";"2";"1";"1";"6";"1";"[1,5,6,7,8,9,10]";"2";"0";"1"
"521";"24";"6";"1";"6";"1";"1";"6";"0";"[2,3,5,8]";"0";"5";"1"
"522";"25";"145";"1";"9";"2";"1";"6";"2";"[1,2,3,7,10]";"1";"0";"1"
"523";"4";"145";"1";"1";"4";"1";"6";"0";"[2,3,5,8,9]";"1";"0";"1"
"524";"13";"146";"1";"1";"3";"1";"6";"0";"[2,3,5,8,9]";"2";"0";"1"
"525";"18";"146";"1";"1";"2";"1";"6";"1";"[2,3,5,8,9]";"1";"0";"1"
"526";"5";"146";"1";"8";"2";"1";"6";"2";"[1,2,6]";"0";"6";"1"
"527";"16";"7";"1";"2";"1";"1";"6";"1";"[1,5,6,7,8,9,10]";"2";"0";"1"
"528";"15";"146";"1";"7";"2";"1";"6";"2";"[2,4,9,10]";"0";"1";"1"
"529";"33";"147";"1";"6";"4";"1";"6";"1";"[2,3,5,8]";"1";"0";"1"
"530";"15";"147";"1";"7";"2";"1";"6";"2";"[2,4,9,10]";"0";"2";"1"
"531";"14";"9";"1";"8";"1";"1";"6";"0";"[1,2,6]";"2";"0";"1"
"532";"37";"9";"1";"4";"1";"1";"6";"2";"[3,7]";"1";"0";"1"
"533";"33";"148";"1";"6";"4";"1";"6";"1";"[2,3,5,8]";"1";"0";"1"
"534";"15";"149";"1";"7";"2";"1";"6";"2";"[2,4,9,10]";"0";"3";"1"
"535";"6";"149";"1";"2";"3";"1";"6";"1";"[1,5,6,7,8,9,10]";"1";"0";"1"
"536";"14";"10";"1";"8";"1";"1";"6";"0";"[1,2,6]";"2";"0";"1"
"537";"37";"10";"1";"4";"1";"1";"6";"2";"[3,7]";"1";"0";"1"
"538";"5";"150";"1";"8";"2";"1";"6";"2";"[1,2,6]";"0";"6";"1"
"539";"6";"150";"1";"2";"3";"1";"6";"1";"[1,5,6,7,8,9,10]";"1";"0";"1"
"540";"32";"150";"1";"10";"3";"1";"6";"1";"[2,7,9]";"1";"0";"1"
"541";"15";"150";"1";"7";"2";"1";"6";"2";"[2,4,9,10]";"0";"6";"1"
"542";"5";"151";"1";"8";"2";"1";"6";"2";"[1,2,6]";"2";"6";"1"
"543";"32";"151";"1";"10";"3";"1";"6";"1";"[2,7,9]";"1";"0";"1"
"544";"5";"152";"1";"8";"2";"1";"6";"2";"[1,2,6]";"2";"6";"1"
"545";"26";"153";"1";"8";"3";"1";"6";"2";"[1,2,6]";"1";"0";"1"
"546";"1";"153";"1";"2";"2";"1";"6";"1";"[1,5,6,7,8,9,10]";"2";"0";"1"
"547";"31";"153";"1";"3";"2";"1";"6";"2";"[1,4,6,9]";"1";"0";"1"
"548";"27";"153";"1";"3";"4";"1";"6";"0";"[1,4,6,9]";"1";"0";"1"
"549";"26";"154";"1";"8";"3";"1";"6";"2";"[1,2,6]";"1";"0";"1"
"550";"1";"154";"1";"2";"2";"1";"6";"1";"[1,5,6,7,8,9,10]";"2";"0";"1"
"551";"31";"154";"1";"3";"2";"1";"6";"2";"[1,4,6,9]";"1";"0";"1"
"552";"27";"154";"1";"3";"4";"1";"6";"0";"[1,4,6,9]";"1";"0";"1"
"553";"24";"16";"1";"6";"1";"1";"6";"0";"[2,3,5,8]";"1";"5";"1"
"554";"15";"156";"1";"7";"2";"1";"6";"2";"[2,4,9,10]";"2";"6";"1"
"555";"24";"17";"1";"6";"1";"1";"6";"0";"[2,3,5,8]";"1";"5";"1"
"556";"17";"157";"1";"10";"2";"1";"6";"2";"[2,7,9]";"1";"0";"1"
"557";"15";"157";"1";"7";"2";"1";"6";"2";"[2,4,9,10]";"2";"6";"1"
"558";"17";"158";"1";"10";"2";"1";"6";"2";"[2,7,9]";"1";"0";"1"
"559";"38";"158";"1";"9";"4";"1";"6";"2";"[1,2,3,7,10]";"1";"0";"1"
"560";"38";"159";"1";"9";"4";"1";"6";"2";"[1,2,3,7,10]";"1";"0";"1"
"561";"30";"161";"1";"6";"3";"1";"6";"0";"[2,3,5,8]";"1";"0";"1"
"562";"29";"162";"1";"3";"3";"1";"6";"2";"[1,4,6,9]";"2";"0";"1"
"563";"30";"162";"1";"6";"3";"1";"6";"0";"[2,3,5,8]";"1";"0";"1"
"564";"29";"163";"1";"3";"3";"1";"6";"2";"[1,4,6,9]";"2";"0";"1"
"565";"40";"26";"1";"1";"1";"1";"6";"0";"[2,3,5,8,9]";"1";"0";"1"
"566";"40";"27";"1";"1";"1";"1";"6";"0";"[2,3,5,8,9]";"1";"0";"1"
"567";"16";"1";"1";"2";"1";"1";"7";"1";"[1,5,6,7,8,9,10]";"1";"0";"1"
"568";"25";"168";"1";"9";"2";"1";"7";"2";"[1,2,3,7,10]";"2";"0";"1"
"569";"16";"2";"1";"2";"1";"1";"7";"1";"[1,5,6,7,8,9,10]";"1";"0";"1"
"570";"36";"2";"1";"5";"1";"1";"7";"1";"[1,2,6]";"1";"0";"1"
"571";"9";"168";"1";"7";"3";"1";"7";"1";"[2,4,9,10]";"1";"0";"1"
"572";"21";"168";"1";"5";"3";"1";"7";"0";"[1,2,6]";"1";"0";"1"
"573";"25";"169";"1";"9";"2";"1";"7";"2";"[1,2,3,7,10]";"2";"0";"1"
"574";"36";"3";"1";"5";"1";"1";"7";"1";"[1,2,6]";"1";"0";"1"
"575";"35";"169";"1";"6";"2";"1";"7";"2";"[2,3,5,8]";"1";"0";"1"
"576";"9";"169";"1";"7";"3";"1";"7";"1";"[2,4,9,10]";"1";"0";"1"
"577";"10";"169";"1";"5";"2";"1";"7";"0";"[1,2,6]";"1";"0";"1"
"578";"21";"169";"1";"5";"3";"1";"7";"0";"[1,2,6]";"1";"0";"1"
"579";"2";"170";"1";"7";"4";"1";"7";"0";"[2,4,9,10]";"1";"0";"1"
"580";"20";"170";"1";"8";"4";"1";"7";"2";"[1,2,6]";"2";"0";"1"
"581";"35";"170";"1";"6";"2";"1";"7";"2";"[2,3,5,8]";"1";"0";"1"
"582";"34";"4";"1";"7";"1";"1";"7";"0";"[2,4,9,10]";"1";"0";"1"
"583";"3";"170";"1";"4";"4";"1";"7";"1";"[3,7]";"1";"0";"1"
"584";"10";"170";"1";"5";"2";"1";"7";"0";"[1,2,6]";"1";"0";"1"
"585";"32";"171";"1";"10";"3";"1";"7";"1";"[2,7,9]";"0";"5";"1"
"586";"39";"5";"1";"10";"1";"1";"7";"1";"[2,7,9]";"1";"0";"1"
"587";"1";"171";"1";"2";"2";"1";"7";"1";"[1,5,6,7,8,9,10]";"2";"0";"1"
"588";"2";"171";"1";"7";"4";"1";"7";"0";"[2,4,9,10]";"1";"0";"1"
"589";"24";"5";"1";"6";"1";"1";"7";"0";"[2,3,5,8]";"2";"0";"1"
"590";"20";"171";"1";"8";"4";"1";"7";"2";"[1,2,6]";"2";"0";"1"
"591";"18";"171";"1";"1";"2";"1";"7";"1";"[2,3,5,8,9]";"1";"0";"1"
"592";"34";"5";"1";"7";"1";"1";"7";"0";"[2,4,9,10]";"1";"0";"1"
"593";"3";"171";"1";"4";"4";"1";"7";"1";"[3,7]";"1";"0";"1"
"594";"32";"171";"1";"10";"3";"1";"7";"1";"[2,7,9]";"0";"4";"1"
"595";"37";"6";"1";"4";"1";"1";"7";"2";"[3,7]";"0";"5";"1"
"596";"39";"6";"1";"10";"1";"1";"7";"1";"[2,7,9]";"1";"0";"1"
"597";"1";"172";"1";"2";"2";"1";"7";"1";"[1,5,6,7,8,9,10]";"2";"0";"1"
"598";"24";"6";"1";"6";"1";"1";"7";"0";"[2,3,5,8]";"2";"0";"1"
"599";"11";"172";"1";"4";"3";"1";"7";"0";"[3,7]";"1";"0";"1"
"600";"4";"172";"1";"1";"4";"1";"7";"0";"[2,3,5,8,9]";"1";"0";"1"
"601";"32";"172";"1";"10";"3";"1";"7";"1";"[2,7,9]";"0";"3";"1"
"602";"18";"172";"1";"1";"2";"1";"7";"1";"[2,3,5,8,9]";"1";"0";"1"
"603";"32";"173";"1";"10";"3";"1";"7";"1";"[2,7,9]";"0";"2";"1"
"604";"14";"7";"1";"8";"1";"1";"7";"0";"[1,2,6]";"1";"0";"1"
"605";"11";"173";"1";"4";"3";"1";"7";"0";"[3,7]";"1";"0";"1"
"606";"4";"173";"1";"1";"4";"1";"7";"0";"[2,3,5,8,9]";"1";"0";"1"
"607";"37";"7";"1";"4";"1";"1";"7";"2";"[3,7]";"0";"3";"1"
"608";"6";"173";"1";"2";"3";"1";"7";"1";"[1,5,6,7,8,9,10]";"2";"0";"1"
"609";"22";"7";"1";"9";"1";"1";"7";"1";"[1,2,3,7,10]";"1";"0";"1"
"610";"13";"173";"1";"1";"3";"1";"7";"0";"[2,3,5,8,9]";"2";"0";"1"
"611";"32";"174";"1";"10";"3";"1";"7";"1";"[2,7,9]";"0";"4";"1"
"612";"14";"8";"1";"8";"1";"1";"7";"0";"[1,2,6]";"1";"0";"1"
"613";"32";"174";"1";"10";"3";"1";"7";"1";"[2,7,9]";"0";"5";"1"
"614";"17";"174";"1";"10";"2";"1";"7";"2";"[2,7,9]";"2";"0";"1"
"615";"6";"174";"1";"2";"3";"1";"7";"1";"[1,5,6,7,8,9,10]";"2";"0";"1"
"616";"22";"8";"1";"9";"1";"1";"7";"1";"[1,2,3,7,10]";"1";"0";"1"
"617";"37";"8";"1";"4";"1";"1";"7";"2";"[3,7]";"0";"1";"1"
"618";"13";"174";"1";"1";"3";"1";"7";"0";"[2,3,5,8,9]";"2";"0";"1"
"619";"32";"175";"1";"10";"3";"1";"7";"1";"[2,7,9]";"0";"6";"1"
"620";"8";"175";"1";"4";"2";"1";"7";"2";"[3,7]";"2";"0";"1"
"621";"17";"175";"1";"10";"2";"1";"7";"2";"[2,7,9]";"2";"0";"1"
"622";"32";"175";"1";"10";"3";"1";"7";"1";"[2,7,9]";"0";"7";"1"
"623";"8";"176";"1";"4";"2";"1";"7";"2";"[3,7]";"2";"0";"1"
"624";"28";"10";"1";"3";"1";"1";"7";"1";"[1,4,6,9]";"1";"0";"1"
"625";"5";"176";"1";"8";"2";"1";"7";"2";"[1,2,6]";"1";"0";"1"
"626";"37";"10";"1";"4";"1";"1";"7";"2";"[3,7]";"0";"4";"1"
"627";"32";"177";"1";"10";"3";"1";"7";"1";"[2,7,9]";"1";"7";"1"
"628";"28";"11";"1";"3";"1";"1";"7";"1";"[1,4,6,9]";"1";"0";"1"
"629";"5";"177";"1";"8";"2";"1";"7";"2";"[1,2,6]";"1";"0";"1"
"630";"26";"178";"1";"8";"3";"1";"7";"2";"[1,2,6]";"2";"0";"1"
"631";"32";"178";"1";"10";"3";"1";"7";"1";"[2,7,9]";"1";"7";"1"
"632";"23";"178";"1";"10";"4";"1";"7";"2";"[2,7,9]";"2";"0";"1"
"633";"33";"178";"1";"6";"4";"1";"7";"1";"[2,3,5,8]";"1";"0";"1"
"634";"37";"12";"1";"4";"1";"1";"7";"2";"[3,7]";"0";"8";"1"
"635";"26";"179";"1";"8";"3";"1";"7";"2";"[1,2,6]";"2";"0";"1"
"636";"23";"179";"1";"10";"4";"1";"7";"2";"[2,7,9]";"2";"0";"1"
"637";"33";"179";"1";"6";"4";"1";"7";"1";"[2,3,5,8]";"1";"0";"1"
"638";"37";"14";"1";"4";"1";"1";"7";"2";"[3,7]";"1";"8";"1"
"639";"27";"181";"1";"3";"4";"1";"7";"0";"[1,4,6,9]";"1";"0";"1"
"640";"37";"15";"1";"4";"1";"1";"7";"2";"[3,7]";"1";"8";"1"
"641";"19";"181";"1";"2";"4";"1";"7";"2";"[1,5,6,7,8,9,10]";"1";"0";"1"
"642";"27";"182";"1";"3";"4";"1";"7";"0";"[1,4,6,9]";"1";"0";"1"
"643";"19";"182";"1";"2";"4";"1";"7";"2";"[1,5,6,7,8,9,10]";"1";"0";"1"
"644";"29";"183";"1";"3";"3";"1";"7";"2";"[1,4,6,9]";"2";"0";"1"
"645";"12";"183";"1";"5";"4";"1";"7";"2";"[1,2,6]";"1";"0";"1"
"646";"29";"184";"1";"3";"3";"1";"7";"2";"[1,4,6,9]";"2";"0";"1"
"647";"12";"184";"1";"5";"4";"1";"7";"2";"[1,2,6]";"1";"0";"1"
"648";"15";"185";"1";"7";"2";"1";"7";"2";"[2,4,9,10]";"2";"0";"1"
"649";"31";"185";"1";"3";"2";"1";"7";"2";"[1,4,6,9]";"1";"0";"1"
"650";"15";"186";"1";"7";"2";"1";"7";"2";"[2,4,9,10]";"2";"0";"1"
"651";"31";"186";"1";"3";"2";"1";"7";"2";"[1,4,6,9]";"1";"0";"1"
"652";"30";"189";"1";"6";"3";"1";"7";"0";"[2,3,5,8]";"1";"0";"1"
"653";"38";"190";"1";"9";"4";"1";"7";"2";"[1,2,3,7,10]";"2";"0";"1"
"654";"18";"190";"1";"1";"2";"1";"7";"1";"[2,3,5,8,9]";"1";"1";"1"
"655";"30";"190";"1";"6";"3";"1";"7";"0";"[2,3,5,8]";"1";"0";"1"
"656";"38";"191";"1";"9";"4";"1";"7";"2";"[1,2,3,7,10]";"2";"0";"1"
"657";"40";"25";"1";"1";"1";"1";"7";"0";"[2,3,5,8,9]";"1";"0";"1"
"658";"7";"191";"1";"9";"3";"1";"7";"0";"[1,2,3,7,10]";"1";"0";"1"
"659";"18";"192";"1";"1";"2";"1";"7";"1";"[2,3,5,8,9]";"1";"2";"1"
"660";"18";"192";"1";"1";"2";"1";"7";"1";"[2,3,5,8,9]";"1";"4";"1"
"661";"40";"26";"1";"1";"1";"1";"7";"0";"[2,3,5,8,9]";"1";"0";"1"
"662";"7";"192";"1";"9";"3";"1";"7";"0";"[1,2,3,7,10]";"1";"0";"1"
"663";"18";"194";"1";"1";"2";"1";"8";"1";"[2,3,5,8,9]";"0";"11";"1"
"664";"12";"194";"1";"5";"4";"1";"8";"2";"[1,2,6]";"1";"0";"1"
"665";"24";"2";"1";"6";"1";"1";"8";"0";"[2,3,5,8]";"1";"0";"1"
"666";"34";"2";"1";"7";"1";"1";"8";"0";"[2,4,9,10]";"1";"0";"1"
"667";"15";"195";"1";"7";"2";"1";"8";"2";"[2,4,9,10]";"2";"0";"1"
"668";"21";"195";"1";"5";"3";"1";"8";"0";"[1,2,6]";"1";"0";"1"
"669";"39";"3";"1";"10";"1";"1";"8";"1";"[2,7,9]";"1";"0";"1"
"670";"4";"195";"1";"1";"4";"1";"8";"0";"[2,3,5,8,9]";"1";"0";"1"
"671";"9";"195";"1";"7";"3";"1";"8";"1";"[2,4,9,10]";"1";"0";"1"
"672";"12";"195";"1";"5";"4";"1";"8";"2";"[1,2,6]";"1";"0";"1"
"673";"24";"3";"1";"6";"1";"1";"8";"0";"[2,3,5,8]";"1";"0";"1"
"674";"34";"3";"1";"7";"1";"1";"8";"0";"[2,4,9,10]";"1";"0";"1"
"675";"15";"196";"1";"7";"2";"1";"8";"2";"[2,4,9,10]";"2";"0";"1"
"676";"35";"196";"1";"6";"2";"1";"8";"2";"[2,3,5,8]";"1";"0";"1"
"677";"21";"196";"1";"5";"3";"1";"8";"0";"[1,2,6]";"1";"0";"1"
"678";"39";"4";"1";"10";"1";"1";"8";"1";"[2,7,9]";"1";"0";"1"
"679";"4";"196";"1";"1";"4";"1";"8";"0";"[2,3,5,8,9]";"1";"0";"1"
"680";"29";"196";"1";"3";"3";"1";"8";"2";"[1,4,6,9]";"2";"0";"1"
"681";"9";"196";"1";"7";"3";"1";"8";"1";"[2,4,9,10]";"1";"0";"1"
"682";"23";"196";"1";"10";"4";"1";"8";"2";"[2,7,9]";"2";"0";"1"
"683";"33";"196";"1";"6";"4";"1";"8";"1";"[2,3,5,8]";"1";"0";"1"
"684";"25";"196";"1";"9";"2";"1";"8";"2";"[1,2,3,7,10]";"2";"0";"1"
"685";"35";"197";"1";"6";"2";"1";"8";"2";"[2,3,5,8]";"1";"0";"1"
"686";"10";"197";"1";"5";"2";"1";"8";"0";"[1,2,6]";"1";"0";"1"
"687";"29";"197";"1";"3";"3";"1";"8";"2";"[1,4,6,9]";"2";"0";"1"
"688";"23";"197";"1";"10";"4";"1";"8";"2";"[2,7,9]";"2";"0";"1"
"689";"1";"197";"1";"2";"2";"1";"8";"1";"[1,5,6,7,8,9,10]";"2";"0";"1"
"690";"2";"197";"1";"7";"4";"1";"8";"0";"[2,4,9,10]";"1";"0";"1"
"691";"20";"197";"1";"8";"4";"1";"8";"2";"[1,2,6]";"1";"0";"1"
"692";"11";"197";"1";"4";"3";"1";"8";"0";"[3,7]";"1";"0";"1"
"693";"33";"197";"1";"6";"4";"1";"8";"1";"[2,3,5,8]";"1";"0";"1"
"694";"25";"197";"1";"9";"2";"1";"8";"2";"[1,2,3,7,10]";"2";"0";"1"
"695";"10";"198";"1";"5";"2";"1";"8";"0";"[1,2,6]";"1";"0";"1"
"696";"28";"6";"1";"3";"1";"1";"8";"1";"[1,4,6,9]";"1";"0";"1"
"697";"1";"198";"1";"2";"2";"1";"8";"1";"[1,5,6,7,8,9,10]";"2";"0";"1"
"698";"2";"198";"1";"7";"4";"1";"8";"0";"[2,4,9,10]";"1";"0";"1"
"699";"19";"198";"1";"2";"4";"1";"8";"2";"[1,5,6,7,8,9,10]";"1";"0";"1"
"700";"20";"198";"1";"8";"4";"1";"8";"2";"[1,2,6]";"1";"0";"1"
"701";"11";"198";"1";"4";"3";"1";"8";"0";"[3,7]";"1";"0";"1"
"702";"36";"7";"1";"5";"1";"1";"8";"1";"[1,2,6]";"1";"0";"1"
"703";"30";"199";"1";"6";"3";"1";"8";"0";"[2,3,5,8]";"2";"0";"1"
"704";"18";"199";"1";"1";"2";"1";"8";"1";"[2,3,5,8,9]";"1";"11";"1"
"705";"28";"7";"1";"3";"1";"1";"8";"1";"[1,4,6,9]";"1";"0";"1"
"706";"19";"199";"1";"2";"4";"1";"8";"2";"[1,5,6,7,8,9,10]";"1";"0";"1"
"707";"5";"199";"1";"8";"2";"1";"8";"2";"[1,2,6]";"1";"0";"1"
"708";"8";"199";"1";"4";"2";"1";"8";"2";"[3,7]";"2";"0";"1"
"709";"7";"199";"1";"9";"3";"1";"8";"0";"[1,2,3,7,10]";"2";"0";"1"
"710";"22";"7";"1";"9";"1";"1";"8";"1";"[1,2,3,7,10]";"1";"0";"1"
"711";"36";"8";"1";"5";"1";"1";"8";"1";"[1,2,6]";"1";"0";"1"
"712";"30";"200";"1";"6";"3";"1";"8";"0";"[2,3,5,8]";"2";"0";"1"
"713";"37";"8";"1";"4";"1";"1";"8";"2";"[3,7]";"1";"0";"1"
"714";"18";"200";"1";"1";"2";"1";"8";"1";"[2,3,5,8,9]";"1";"11";"1"
"715";"26";"200";"1";"8";"3";"1";"8";"2";"[1,2,6]";"2";"0";"1"
"716";"6";"200";"1";"2";"3";"1";"8";"1";"[1,5,6,7,8,9,10]";"1";"0";"1"
"717";"5";"200";"1";"8";"2";"1";"8";"2";"[1,2,6]";"1";"0";"1"
"718";"8";"200";"1";"4";"2";"1";"8";"2";"[3,7]";"2";"0";"1"
"719";"7";"200";"1";"9";"3";"1";"8";"0";"[1,2,3,7,10]";"2";"0";"1"
"720";"22";"8";"1";"9";"1";"1";"8";"1";"[1,2,3,7,10]";"1";"0";"1"
"721";"37";"9";"1";"4";"1";"1";"8";"2";"[3,7]";"1";"0";"1"
"722";"26";"201";"1";"8";"3";"1";"8";"2";"[1,2,6]";"2";"0";"1"
"723";"6";"201";"1";"2";"3";"1";"8";"1";"[1,5,6,7,8,9,10]";"1";"0";"1"
"724";"3";"201";"1";"4";"4";"1";"8";"1";"[3,7]";"1";"0";"1"
"725";"32";"201";"1";"10";"3";"1";"8";"1";"[2,7,9]";"1";"0";"1"
"726";"16";"9";"1";"2";"1";"1";"8";"1";"[1,5,6,7,8,9,10]";"2";"0";"1"
"727";"17";"202";"1";"10";"2";"1";"8";"2";"[2,7,9]";"2";"0";"1"
"728";"14";"10";"1";"8";"1";"1";"8";"0";"[1,2,6]";"1";"0";"1"
"729";"3";"202";"1";"4";"4";"1";"8";"1";"[3,7]";"1";"0";"1"
"730";"32";"202";"1";"10";"3";"1";"8";"1";"[2,7,9]";"1";"0";"1"
"731";"16";"10";"1";"2";"1";"1";"8";"1";"[1,5,6,7,8,9,10]";"2";"0";"1"
"732";"17";"203";"1";"10";"2";"1";"8";"2";"[2,7,9]";"2";"0";"1"
"733";"14";"11";"1";"8";"1";"1";"8";"0";"[1,2,6]";"1";"0";"1"
"734";"38";"205";"1";"9";"4";"1";"8";"2";"[1,2,3,7,10]";"2";"0";"1"
"735";"38";"206";"1";"9";"4";"1";"8";"2";"[1,2,3,7,10]";"2";"0";"1"
"736";"13";"207";"1";"1";"3";"1";"8";"0";"[2,3,5,8,9]";"2";"0";"1"
"737";"40";"16";"1";"1";"1";"1";"8";"0";"[2,3,5,8,9]";"1";"0";"1"
"738";"13";"208";"1";"1";"3";"1";"8";"0";"[2,3,5,8,9]";"2";"0";"1"
"739";"40";"17";"1";"1";"1";"1";"8";"0";"[2,3,5,8,9]";"1";"0";"1"
"740";"31";"212";"1";"3";"2";"1";"8";"2";"[1,4,6,9]";"2";"0";"1"
"741";"31";"213";"1";"3";"2";"1";"8";"2";"[1,4,6,9]";"2";"0";"1"
"742";"27";"217";"1";"3";"4";"1";"8";"0";"[1,4,6,9]";"2";"0";"1"
"743";"27";"218";"1";"3";"4";"1";"8";"0";"[1,4,6,9]";"2";"0";"1"
"744";"12";"219";"1";"5";"4";"1";"9";"2";"[1,2,6]";"1";"0";"1"
"745";"16";"2";"1";"2";"1";"1";"9";"1";"[1,5,6,7,8,9,10]";"1";"0";"1"
"746";"23";"220";"1";"10";"4";"1";"9";"2";"[2,7,9]";"2";"0";"1"
"747";"12";"220";"1";"5";"4";"1";"9";"2";"[1,2,6]";"1";"0";"1"
"748";"16";"3";"1";"2";"1";"1";"9";"1";"[1,5,6,7,8,9,10]";"1";"0";"1"
"749";"1";"221";"1";"2";"2";"1";"9";"1";"[1,5,6,7,8,9,10]";"2";"0";"1"
"750";"23";"221";"1";"10";"4";"1";"9";"2";"[2,7,9]";"2";"0";"1"
"751";"26";"221";"1";"8";"3";"1";"9";"2";"[1,2,6]";"2";"0";"1"
"752";"24";"3";"1";"6";"1";"1";"9";"0";"[2,3,5,8]";"1";"0";"1"
"753";"15";"221";"1";"7";"2";"1";"9";"2";"[2,4,9,10]";"2";"0";"1"
"754";"9";"221";"1";"7";"3";"1";"9";"1";"[2,4,9,10]";"1";"0";"1"
"755";"33";"221";"1";"6";"4";"1";"9";"1";"[2,3,5,8]";"1";"0";"1"
"756";"8";"221";"1";"4";"2";"1";"9";"2";"[3,7]";"2";"0";"1"
"757";"2";"221";"1";"7";"4";"1";"9";"0";"[2,4,9,10]";"1";"0";"1"
"758";"34";"3";"1";"7";"1";"1";"9";"0";"[2,4,9,10]";"1";"0";"1"
"759";"25";"221";"1";"9";"2";"1";"9";"2";"[1,2,3,7,10]";"2";"0";"1"
"760";"1";"222";"1";"2";"2";"1";"9";"1";"[1,5,6,7,8,9,10]";"2";"0";"1"
"761";"26";"222";"1";"8";"3";"1";"9";"2";"[1,2,6]";"2";"0";"1"
"762";"35";"222";"1";"6";"2";"1";"9";"2";"[2,3,5,8]";"1";"0";"1"
"763";"21";"222";"1";"5";"3";"1";"9";"0";"[1,2,6]";"1";"0";"1"
"764";"19";"222";"1";"2";"4";"1";"9";"2";"[1,5,6,7,8,9,10]";"1";"0";"1"
"765";"24";"4";"1";"6";"1";"1";"9";"0";"[2,3,5,8]";"1";"0";"1"
"766";"15";"222";"1";"7";"2";"1";"9";"2";"[2,4,9,10]";"2";"0";"1"
"767";"9";"222";"1";"7";"3";"1";"9";"1";"[2,4,9,10]";"1";"0";"1"
"768";"33";"222";"1";"6";"4";"1";"9";"1";"[2,3,5,8]";"1";"0";"1"
"769";"8";"222";"1";"4";"2";"1";"9";"2";"[3,7]";"2";"0";"1"
"770";"2";"222";"1";"7";"4";"1";"9";"0";"[2,4,9,10]";"1";"0";"1"
"771";"34";"4";"1";"7";"1";"1";"9";"0";"[2,4,9,10]";"1";"0";"1"
"772";"25";"222";"1";"9";"2";"1";"9";"2";"[1,2,3,7,10]";"2";"0";"1"
"773";"35";"223";"1";"6";"2";"1";"9";"2";"[2,3,5,8]";"1";"0";"1"
"774";"21";"223";"1";"5";"3";"1";"9";"0";"[1,2,6]";"1";"0";"1"
"775";"19";"223";"1";"2";"4";"1";"9";"2";"[1,5,6,7,8,9,10]";"1";"0";"1"
"776";"14";"5";"1";"8";"1";"1";"9";"0";"[1,2,6]";"2";"0";"1"
"777";"20";"223";"1";"8";"4";"1";"9";"2";"[1,2,6]";"1";"0";"1"
"778";"22";"5";"1";"9";"1";"1";"9";"1";"[1,2,3,7,10]";"1";"0";"1"
"779";"4";"224";"1";"1";"4";"1";"9";"0";"[2,3,5,8,9]";"1";"0";"1"
"780";"14";"6";"1";"8";"1";"1";"9";"0";"[1,2,6]";"2";"0";"1"
"781";"20";"224";"1";"8";"4";"1";"9";"2";"[1,2,6]";"1";"0";"1"
"782";"28";"6";"1";"3";"1";"1";"9";"1";"[1,4,6,9]";"1";"0";"1"
"783";"11";"224";"1";"4";"3";"1";"9";"0";"[3,7]";"1";"0";"1"
"784";"22";"6";"1";"9";"1";"1";"9";"1";"[1,2,3,7,10]";"1";"0";"1"
"785";"5";"225";"1";"8";"2";"1";"9";"2";"[1,2,6]";"2";"0";"1"
"786";"4";"225";"1";"1";"4";"1";"9";"0";"[2,3,5,8,9]";"1";"0";"1"
"787";"28";"7";"1";"3";"1";"1";"9";"1";"[1,4,6,9]";"1";"0";"1"
"788";"11";"225";"1";"4";"3";"1";"9";"0";"[3,7]";"1";"0";"1"
"789";"5";"226";"1";"8";"2";"1";"9";"2";"[1,2,6]";"2";"0";"1"
"790";"6";"226";"1";"2";"3";"1";"9";"1";"[1,5,6,7,8,9,10]";"1";"0";"1"
"791";"37";"8";"1";"4";"1";"1";"9";"2";"[3,7]";"1";"0";"1"
"792";"31";"226";"1";"3";"2";"1";"9";"2";"[1,4,6,9]";"2";"0";"1"
"793";"6";"227";"1";"2";"3";"1";"9";"1";"[1,5,6,7,8,9,10]";"1";"0";"1"
"794";"3";"227";"1";"4";"4";"1";"9";"1";"[3,7]";"1";"0";"1"
"795";"37";"9";"1";"4";"1";"1";"9";"2";"[3,7]";"1";"0";"1"
"796";"31";"227";"1";"3";"2";"1";"9";"2";"[1,4,6,9]";"2";"0";"1"
"797";"3";"228";"1";"4";"4";"1";"9";"1";"[3,7]";"1";"0";"1"
"798";"36";"10";"1";"5";"1";"1";"9";"1";"[1,2,6]";"1";"0";"1"
"799";"18";"229";"1";"1";"2";"1";"9";"1";"[2,3,5,8,9]";"1";"0";"1"
"800";"36";"11";"1";"5";"1";"1";"9";"1";"[1,2,6]";"1";"0";"1"
"801";"17";"229";"1";"10";"2";"1";"9";"2";"[2,7,9]";"2";"0";"1"
"802";"10";"229";"1";"5";"2";"1";"9";"0";"[1,2,6]";"1";"0";"1"
"803";"39";"12";"1";"10";"1";"1";"9";"1";"[2,7,9]";"1";"0";"1"
"804";"18";"230";"1";"1";"2";"1";"9";"1";"[2,3,5,8,9]";"1";"0";"1"
"805";"32";"230";"1";"10";"3";"1";"9";"1";"[2,7,9]";"1";"0";"1"
"806";"17";"230";"1";"10";"2";"1";"9";"2";"[2,7,9]";"2";"0";"1"
"807";"27";"230";"1";"3";"4";"1";"9";"0";"[1,4,6,9]";"2";"0";"1"
"808";"10";"230";"1";"5";"2";"1";"9";"0";"[1,2,6]";"1";"0";"1"
"809";"39";"13";"1";"10";"1";"1";"9";"1";"[2,7,9]";"1";"0";"1"
"810";"32";"231";"1";"10";"3";"1";"9";"1";"[2,7,9]";"1";"0";"1"
"811";"29";"231";"1";"3";"3";"1";"9";"2";"[1,4,6,9]";"2";"0";"1"
"812";"27";"231";"1";"3";"4";"1";"9";"0";"[1,4,6,9]";"2";"0";"1"
"813";"29";"232";"1";"3";"3";"1";"9";"2";"[1,4,6,9]";"2";"0";"1"
"814";"40";"15";"1";"1";"1";"1";"9";"0";"[2,3,5,8,9]";"1";"0";"1"
"815";"23";"233";"1";"10";"4";"1";"9";"2";"[2,7,9]";"2";"1";"1"
"816";"40";"16";"1";"1";"1";"1";"9";"0";"[2,3,5,8,9]";"1";"0";"1"
"817";"7";"236";"1";"9";"3";"1";"9";"0";"[1,2,3,7,10]";"1";"0";"1"
"818";"23";"236";"1";"10";"4";"1";"9";"2";"[2,7,9]";"2";"8";"1"
"819";"7";"237";"1";"9";"3";"1";"9";"0";"[1,2,3,7,10]";"1";"0";"1"
"820";"23";"239";"1";"10";"4";"1";"9";"2";"[2,7,9]";"2";"9";"1"
"821";"13";"240";"1";"1";"3";"1";"9";"0";"[2,3,5,8,9]";"1";"0";"1"
"822";"13";"241";"1";"1";"3";"1";"9";"0";"[2,3,5,8,9]";"1";"0";"1"
"823";"30";"246";"1";"6";"3";"1";"9";"0";"[2,3,5,8]";"2";"0";"1"
"824";"30";"247";"1";"6";"3";"1";"9";"0";"[2,3,5,8]";"2";"0";"1"
"825";"38";"249";"1";"9";"4";"1";"9";"2";"[1,2,3,7,10]";"0";"0";"1"
"826";"0";"30";"1";"9";"4";"1";"9";"2";"[1,2,3,7,10]";"2";"0";"0"
"827";"12";"250";"1";"5";"4";"1";"10";"2";"[1,2,6]";"1";"0";"1"
"828";"34";"2";"1";"7";"1";"1";"10";"0";"[2,4,9,10]";"1";"0";"1"
"829";"1";"251";"1";"2";"2";"1";"10";"1";"[1,5,6,7,8,9,10]";"2";"0";"1"
"830";"12";"251";"1";"5";"4";"1";"10";"2";"[1,2,6]";"1";"0";"1"
"831";"9";"251";"1";"7";"3";"1";"10";"1";"[2,4,9,10]";"1";"0";"1"
"832";"8";"252";"1";"4";"2";"1";"10";"2";"[3,7]";"2";"0";"1"
"833";"20";"252";"1";"8";"4";"1";"10";"2";"[1,2,6]";"1";"0";"1"
"834";"33";"252";"1";"6";"4";"1";"10";"1";"[2,3,5,8]";"1";"0";"1"
"835";"39";"3";"1";"10";"1";"1";"10";"1";"[2,7,9]";"1";"0";"1"
"836";"11";"252";"1";"4";"3";"1";"10";"0";"[3,7]";"1";"0";"1"
"837";"34";"3";"1";"7";"1";"1";"10";"0";"[2,4,9,10]";"1";"0";"1"
"838";"1";"252";"1";"2";"2";"1";"10";"1";"[1,5,6,7,8,9,10]";"2";"0";"1"
"839";"10";"252";"1";"5";"2";"1";"10";"0";"[1,2,6]";"1";"0";"1"
"840";"9";"252";"1";"7";"3";"1";"10";"1";"[2,4,9,10]";"1";"0";"1"
"841";"19";"252";"1";"2";"4";"1";"10";"2";"[1,5,6,7,8,9,10]";"1";"0";"1"
"842";"4";"252";"1";"1";"4";"1";"10";"0";"[2,3,5,8,9]";"1";"0";"1"
"843";"21";"253";"1";"5";"3";"1";"10";"0";"[1,2,6]";"1";"0";"1"
"844";"8";"253";"1";"4";"2";"1";"10";"2";"[3,7]";"2";"0";"1"
"845";"20";"253";"1";"8";"4";"1";"10";"2";"[1,2,6]";"1";"0";"1"
"846";"33";"253";"1";"6";"4";"1";"10";"1";"[2,3,5,8]";"1";"0";"1"
"847";"39";"4";"1";"10";"1";"1";"10";"1";"[2,7,9]";"1";"0";"1"
"848";"11";"253";"1";"4";"3";"1";"10";"0";"[3,7]";"1";"0";"1"
"849";"38";"253";"1";"9";"4";"1";"10";"2";"[1,2,3,7,10]";"2";"0";"1"
"850";"10";"253";"1";"5";"2";"1";"10";"0";"[1,2,6]";"1";"0";"1"
"851";"5";"253";"1";"8";"2";"1";"10";"2";"[1,2,6]";"2";"0";"1"
"852";"19";"253";"1";"2";"4";"1";"10";"2";"[1,5,6,7,8,9,10]";"1";"0";"1"
"853";"4";"253";"1";"1";"4";"1";"10";"0";"[2,3,5,8,9]";"1";"0";"1"
"854";"15";"254";"1";"7";"2";"1";"10";"2";"[2,4,9,10]";"2";"0";"1"
"855";"21";"254";"1";"5";"3";"1";"10";"0";"[1,2,6]";"1";"0";"1"
"856";"17";"254";"1";"10";"2";"1";"10";"2";"[2,7,9]";"2";"0";"1"
"857";"38";"254";"1";"9";"4";"1";"10";"2";"[1,2,3,7,10]";"2";"0";"1"
"858";"5";"254";"1";"8";"2";"1";"10";"2";"[1,2,6]";"2";"0";"1"
"859";"15";"255";"1";"7";"2";"1";"10";"2";"[2,4,9,10]";"2";"0";"1"
"860";"17";"255";"1";"10";"2";"1";"10";"2";"[2,7,9]";"2";"0";"1"
"861";"14";"6";"1";"8";"1";"1";"10";"0";"[1,2,6]";"2";"0";"1"
"862";"37";"6";"1";"4";"1";"1";"10";"2";"[3,7]";"1";"0";"1"
"863";"16";"6";"1";"2";"1";"1";"10";"1";"[1,5,6,7,8,9,10]";"1";"0";"1"
"864";"25";"255";"1";"9";"2";"1";"10";"2";"[1,2,3,7,10]";"2";"0";"1"
"865";"24";"6";"1";"6";"1";"1";"10";"0";"[2,3,5,8]";"1";"0";"1"
"866";"6";"255";"1";"2";"3";"1";"10";"1";"[1,5,6,7,8,9,10]";"1";"0";"1"
"867";"36";"7";"1";"5";"1";"1";"10";"1";"[1,2,6]";"1";"0";"1"
"868";"14";"7";"1";"8";"1";"1";"10";"0";"[1,2,6]";"2";"0";"1"
"869";"37";"7";"1";"4";"1";"1";"10";"2";"[3,7]";"1";"0";"1"
"870";"16";"7";"1";"2";"1";"1";"10";"1";"[1,5,6,7,8,9,10]";"1";"0";"1"
"871";"25";"256";"1";"9";"2";"1";"10";"2";"[1,2,3,7,10]";"2";"0";"1"
"872";"24";"7";"1";"6";"1";"1";"10";"0";"[2,3,5,8]";"1";"0";"1"
"873";"13";"256";"1";"1";"3";"1";"10";"0";"[2,3,5,8,9]";"1";"0";"1"
"874";"6";"256";"1";"2";"3";"1";"10";"1";"[1,5,6,7,8,9,10]";"1";"0";"1"
"875";"36";"8";"1";"5";"1";"1";"10";"1";"[1,2,6]";"1";"0";"1"
"876";"29";"257";"1";"3";"3";"1";"10";"2";"[1,4,6,9]";"1";"0";"1"
"877";"13";"257";"1";"1";"3";"1";"10";"0";"[2,3,5,8,9]";"1";"0";"1"
"878";"2";"257";"1";"7";"4";"1";"10";"0";"[2,4,9,10]";"2";"0";"1"
"879";"32";"257";"1";"10";"3";"1";"10";"1";"[2,7,9]";"1";"0";"1"
"880";"35";"257";"1";"6";"2";"1";"10";"2";"[2,3,5,8]";"1";"0";"1"
"881";"29";"258";"1";"3";"3";"1";"10";"2";"[1,4,6,9]";"1";"0";"1"
"882";"2";"258";"1";"7";"4";"1";"10";"0";"[2,4,9,10]";"2";"0";"1"
"883";"32";"258";"1";"10";"3";"1";"10";"1";"[2,7,9]";"1";"0";"1"
"884";"35";"258";"1";"6";"2";"1";"10";"2";"[2,3,5,8]";"1";"0";"1"
"885";"7";"259";"1";"9";"3";"1";"10";"0";"[1,2,3,7,10]";"1";"0";"1"
"886";"39";"10";"1";"10";"1";"1";"10";"1";"[2,7,9]";"1";"7";"1"
"887";"28";"10";"1";"3";"1";"1";"10";"1";"[1,4,6,9]";"1";"0";"1"
"888";"3";"259";"1";"4";"4";"1";"10";"1";"[3,7]";"1";"0";"1"
"889";"22";"10";"1";"9";"1";"1";"10";"1";"[1,2,3,7,10]";"1";"0";"1"
"890";"7";"260";"1";"9";"3";"1";"10";"0";"[1,2,3,7,10]";"1";"0";"1"
"891";"28";"11";"1";"3";"1";"1";"10";"1";"[1,4,6,9]";"1";"0";"1"
"892";"3";"260";"1";"4";"4";"1";"10";"1";"[3,7]";"1";"0";"1"
"893";"22";"11";"1";"9";"1";"1";"10";"1";"[1,2,3,7,10]";"1";"0";"1"
"894";"39";"12";"1";"10";"1";"1";"10";"1";"[2,7,9]";"1";"6";"1"
"895";"26";"261";"1";"8";"3";"1";"10";"2";"[1,2,6]";"1";"0";"1"
"896";"23";"262";"1";"10";"4";"1";"10";"2";"[2,7,9]";"2";"0";"1"
"897";"39";"13";"1";"10";"1";"1";"10";"1";"[2,7,9]";"1";"5";"1"
"898";"18";"262";"1";"1";"2";"1";"10";"1";"[2,3,5,8,9]";"2";"0";"1"
"899";"26";"262";"1";"8";"3";"1";"10";"2";"[1,2,6]";"1";"0";"1"
"900";"23";"263";"1";"10";"4";"1";"10";"2";"[2,7,9]";"2";"0";"1"
"901";"39";"14";"1";"10";"1";"1";"10";"1";"[2,7,9]";"1";"4";"1"
"902";"18";"263";"1";"1";"2";"1";"10";"1";"[2,3,5,8,9]";"2";"0";"1"
"903";"39";"15";"1";"10";"1";"1";"10";"1";"[2,7,9]";"1";"3";"1"
"904";"40";"16";"1";"1";"1";"1";"10";"0";"[2,3,5,8,9]";"1";"0";"1"
"905";"27";"265";"1";"3";"4";"1";"10";"0";"[1,4,6,9]";"2";"0";"1"
"906";"39";"16";"1";"10";"1";"1";"10";"1";"[2,7,9]";"1";"2";"1"
"907";"40";"17";"1";"1";"1";"1";"10";"0";"[2,3,5,8,9]";"1";"0";"1"
"908";"30";"266";"1";"6";"3";"1";"10";"0";"[2,3,5,8]";"1";"0";"1"
"909";"27";"266";"1";"3";"4";"1";"10";"0";"[1,4,6,9]";"2";"0";"1"
"910";"39";"18";"1";"10";"1";"1";"10";"1";"[2,7,9]";"1";"1";"1"
"911";"30";"267";"1";"6";"3";"1";"10";"0";"[2,3,5,8]";"1";"0";"1"
"912";"39";"19";"1";"10";"1";"1";"10";"1";"[2,7,9]";"1";"3";"1"
"913";"39";"20";"1";"10";"1";"1";"10";"1";"[2,7,9]";"1";"5";"1"
"914";"39";"21";"1";"10";"1";"1";"10";"1";"[2,7,9]";"1";"6";"1"
"915";"39";"23";"1";"10";"1";"1";"10";"1";"[2,7,9]";"1";"7";"1"
"916";"39";"25";"1";"10";"1";"1";"10";"1";"[2,7,9]";"1";"10";"1"
"917";"31";"277";"1";"3";"2";"1";"10";"2";"[1,4,6,9]";"2";"0";"1"
"918";"21";"277";"1";"5";"3";"1";"10";"0";"[1,2,6]";"1";"3";"1"
"919";"39";"28";"1";"10";"1";"1";"10";"1";"[2,7,9]";"1";"12";"1"
"920";"31";"278";"1";"3";"2";"1";"10";"2";"[1,4,6,9]";"2";"0";"1"
"921";"1";"279";"1";"2";"2";"1";"11";"1";"[1,5,6,7,8,9,10]";"2";"0";"1"
"922";"12";"279";"1";"5";"4";"1";"11";"2";"[1,2,6]";"1";"0";"1"
"923";"39";"1";"1";"10";"1";"1";"11";"1";"[2,7,9]";"1";"0";"1"
"924";"9";"279";"1";"7";"3";"1";"11";"1";"[2,4,9,10]";"1";"0";"1"
"925";"7";"280";"1";"9";"3";"1";"11";"0";"[1,2,3,7,10]";"1";"0";"1"
"926";"3";"280";"1";"4";"4";"1";"11";"1";"[3,7]";"2";"0";"1"
"927";"23";"280";"1";"10";"4";"1";"11";"2";"[2,7,9]";"2";"0";"1"
"928";"34";"2";"1";"7";"1";"1";"11";"0";"[2,4,9,10]";"1";"0";"1"
"929";"28";"2";"1";"3";"1";"1";"11";"1";"[1,4,6,9]";"1";"0";"1"
"930";"5";"280";"1";"8";"2";"1";"11";"2";"[1,2,6]";"2";"0";"1"
"931";"1";"280";"1";"2";"2";"1";"11";"1";"[1,5,6,7,8,9,10]";"2";"0";"1"
"932";"12";"280";"1";"5";"4";"1";"11";"2";"[1,2,6]";"1";"0";"1"
"933";"16";"2";"1";"2";"1";"1";"11";"1";"[1,5,6,7,8,9,10]";"2";"0";"1"
"934";"39";"2";"1";"10";"1";"1";"11";"1";"[2,7,9]";"1";"0";"1"
"935";"11";"280";"1";"4";"3";"1";"11";"0";"[3,7]";"1";"0";"1"
"936";"9";"280";"1";"7";"3";"1";"11";"1";"[2,4,9,10]";"1";"0";"1"
"937";"7";"281";"1";"9";"3";"1";"11";"0";"[1,2,3,7,10]";"1";"0";"1"
"938";"3";"281";"1";"4";"4";"1";"11";"1";"[3,7]";"2";"0";"1"
"939";"15";"281";"1";"7";"2";"1";"11";"2";"[2,4,9,10]";"2";"0";"1"
"940";"23";"281";"1";"10";"4";"1";"11";"2";"[2,7,9]";"2";"0";"1"
"941";"33";"281";"1";"6";"4";"1";"11";"1";"[2,3,5,8]";"1";"0";"1"
"942";"21";"281";"1";"5";"3";"1";"11";"0";"[1,2,6]";"1";"0";"1"
"943";"25";"281";"1";"9";"2";"1";"11";"2";"[1,2,3,7,10]";"1";"0";"1"
"944";"34";"3";"1";"7";"1";"1";"11";"0";"[2,4,9,10]";"1";"0";"1"
"945";"5";"281";"1";"8";"2";"1";"11";"2";"[1,2,6]";"2";"0";"1"
"946";"28";"3";"1";"3";"1";"1";"11";"1";"[1,4,6,9]";"1";"0";"1"
"947";"20";"281";"1";"8";"4";"1";"11";"2";"[1,2,6]";"1";"0";"1"
"948";"29";"281";"1";"3";"3";"1";"11";"2";"[1,4,6,9]";"1";"0";"1"
"949";"35";"281";"1";"6";"2";"1";"11";"2";"[2,3,5,8]";"1";"0";"1"
"950";"36";"3";"1";"5";"1";"1";"11";"1";"[1,2,6]";"1";"0";"1"
"951";"18";"281";"1";"1";"2";"1";"11";"1";"[2,3,5,8,9]";"2";"0";"1"
"952";"32";"281";"1";"10";"3";"1";"11";"1";"[2,7,9]";"1";"0";"1"
"953";"16";"3";"1";"2";"1";"1";"11";"1";"[1,5,6,7,8,9,10]";"2";"0";"1"
"954";"11";"281";"1";"4";"3";"1";"11";"0";"[3,7]";"1";"0";"1"
"955";"37";"4";"1";"4";"1";"1";"11";"2";"[3,7]";"1";"0";"1"
"956";"6";"282";"1";"2";"3";"1";"11";"1";"[1,5,6,7,8,9,10]";"1";"0";"1"
"957";"24";"4";"1";"6";"1";"1";"11";"0";"[2,3,5,8]";"1";"0";"1"
"958";"15";"282";"1";"7";"2";"1";"11";"2";"[2,4,9,10]";"2";"0";"1"
"959";"33";"282";"1";"6";"4";"1";"11";"1";"[2,3,5,8]";"1";"0";"1"
"960";"21";"282";"1";"5";"3";"1";"11";"0";"[1,2,6]";"1";"0";"1"
"961";"25";"282";"1";"9";"2";"1";"11";"2";"[1,2,3,7,10]";"1";"0";"1"
"962";"2";"282";"1";"7";"4";"1";"11";"0";"[2,4,9,10]";"2";"0";"1"
"963";"20";"282";"1";"8";"4";"1";"11";"2";"[1,2,6]";"1";"0";"1"
"964";"29";"282";"1";"3";"3";"1";"11";"2";"[1,4,6,9]";"1";"0";"1"
"965";"35";"282";"1";"6";"2";"1";"11";"2";"[2,3,5,8]";"1";"0";"1"
"966";"36";"4";"1";"5";"1";"1";"11";"1";"[1,2,6]";"1";"0";"1"
"967";"13";"282";"1";"1";"3";"1";"11";"0";"[2,3,5,8,9]";"1";"0";"1"
"968";"18";"282";"1";"1";"2";"1";"11";"1";"[2,3,5,8,9]";"2";"0";"1"
"969";"32";"282";"1";"10";"3";"1";"11";"1";"[2,7,9]";"1";"0";"1"
"970";"8";"282";"1";"4";"2";"1";"11";"2";"[3,7]";"2";"0";"1"
"971";"37";"5";"1";"4";"1";"1";"11";"2";"[3,7]";"1";"0";"1"
"972";"6";"283";"1";"2";"3";"1";"11";"1";"[1,5,6,7,8,9,10]";"1";"0";"1"
"973";"24";"5";"1";"6";"1";"1";"11";"0";"[2,3,5,8]";"1";"0";"1"
"974";"2";"283";"1";"7";"4";"1";"11";"0";"[2,4,9,10]";"2";"0";"1"
"975";"26";"283";"1";"8";"3";"1";"11";"2";"[1,2,6]";"2";"0";"1"
"976";"13";"283";"1";"1";"3";"1";"11";"0";"[2,3,5,8,9]";"1";"0";"1"
"977";"4";"283";"1";"1";"4";"1";"11";"0";"[2,3,5,8,9]";"2";"0";"1"
"978";"8";"283";"1";"4";"2";"1";"11";"2";"[3,7]";"2";"0";"1"
"979";"26";"284";"1";"8";"3";"1";"11";"2";"[1,2,6]";"2";"0";"1"
"980";"4";"284";"1";"1";"4";"1";"11";"0";"[2,3,5,8,9]";"2";"0";"1"
"981";"14";"6";"1";"8";"1";"1";"11";"0";"[1,2,6]";"1";"0";"1"
"982";"19";"284";"1";"2";"4";"1";"11";"2";"[1,5,6,7,8,9,10]";"1";"0";"1"
"983";"14";"7";"1";"8";"1";"1";"11";"0";"[1,2,6]";"1";"0";"1"
"984";"19";"285";"1";"2";"4";"1";"11";"2";"[1,5,6,7,8,9,10]";"1";"0";"1"
"985";"17";"286";"1";"10";"2";"1";"11";"2";"[2,7,9]";"2";"0";"1"
"986";"17";"287";"1";"10";"2";"1";"11";"2";"[2,7,9]";"2";"0";"1"
"987";"22";"10";"1";"9";"1";"1";"11";"1";"[1,2,3,7,10]";"1";"0";"1"
"988";"22";"11";"1";"9";"1";"1";"11";"1";"[1,2,3,7,10]";"1";"0";"1"
"989";"38";"292";"1";"9";"4";"1";"11";"2";"[1,2,3,7,10]";"2";"0";"1"
"990";"38";"293";"1";"9";"4";"1";"11";"2";"[1,2,3,7,10]";"2";"0";"1"
"991";"10";"294";"1";"5";"2";"1";"11";"0";"[1,2,6]";"1";"0";"1"
"992";"10";"295";"1";"5";"2";"1";"11";"0";"[1,2,6]";"1";"0";"1"
"993";"40";"21";"1";"1";"1";"1";"11";"0";"[2,3,5,8,9]";"1";"0";"1"
"994";"30";"299";"1";"6";"3";"1";"11";"0";"[2,3,5,8]";"1";"0";"1"
"995";"40";"22";"1";"1";"1";"1";"11";"0";"[2,3,5,8,9]";"1";"0";"1"
"996";"30";"300";"1";"6";"3";"1";"11";"0";"[2,3,5,8]";"1";"0";"1"
"997";"27";"300";"1";"3";"4";"1";"11";"0";"[1,4,6,9]";"2";"0";"1"
"998";"31";"300";"1";"3";"2";"1";"11";"2";"[1,4,6,9]";"2";"0";"1"
"999";"27";"301";"1";"3";"4";"1";"11";"0";"[1,4,6,9]";"2";"0";"1"
"1000";"31";"301";"1";"3";"2";"1";"11";"2";"[1,4,6,9]";"2";"0";"1"
"1001";"12";"302";"1";"5";"4";"1";"12";"2";"[1,2,6]";"1";"0";"1"
"1002";"16";"1";"1";"2";"1";"1";"12";"1";"[1,5,6,7,8,9,10]";"1";"0";"1"
"1003";"5";"302";"1";"8";"2";"1";"12";"2";"[1,2,6]";"2";"0";"1"
"1004";"1";"302";"1";"2";"2";"1";"12";"1";"[1,5,6,7,8,9,10]";"2";"0";"1"
"1005";"7";"302";"1";"9";"3";"1";"12";"0";"[1,2,3,7,10]";"1";"0";"1"
"1006";"11";"302";"1";"4";"3";"1";"12";"0";"[3,7]";"1";"0";"1"
"1007";"33";"303";"1";"6";"4";"1";"12";"1";"[2,3,5,8]";"1";"0";"1"
"1008";"9";"303";"1";"7";"3";"1";"12";"1";"[2,4,9,10]";"1";"0";"1"
"1009";"38";"303";"1";"9";"4";"1";"12";"2";"[1,2,3,7,10]";"2";"0";"1"
"1010";"23";"303";"1";"10";"4";"1";"12";"2";"[2,7,9]";"2";"0";"1"
"1011";"28";"2";"1";"3";"1";"1";"12";"1";"[1,4,6,9]";"1";"0";"1"
"1012";"12";"303";"1";"5";"4";"1";"12";"2";"[1,2,6]";"1";"0";"1"
"1013";"34";"2";"1";"7";"1";"1";"12";"0";"[2,4,9,10]";"1";"0";"1"
"1014";"16";"2";"1";"2";"1";"1";"12";"1";"[1,5,6,7,8,9,10]";"1";"0";"1"
"1015";"5";"303";"1";"8";"2";"1";"12";"2";"[1,2,6]";"2";"0";"1"
"1016";"1";"303";"1";"2";"2";"1";"12";"1";"[1,5,6,7,8,9,10]";"2";"0";"1"
"1017";"7";"303";"1";"9";"3";"1";"12";"0";"[1,2,3,7,10]";"1";"0";"1"
"1018";"11";"303";"1";"4";"3";"1";"12";"0";"[3,7]";"1";"0";"1"
"1019";"33";"304";"1";"6";"4";"1";"12";"1";"[2,3,5,8]";"1";"0";"1"
"1020";"9";"304";"1";"7";"3";"1";"12";"1";"[2,4,9,10]";"1";"0";"1"
"1021";"38";"304";"1";"9";"4";"1";"12";"2";"[1,2,3,7,10]";"2";"0";"1"
"1022";"25";"304";"1";"9";"2";"1";"12";"2";"[1,2,3,7,10]";"2";"0";"1"
"1023";"35";"304";"1";"6";"2";"1";"12";"2";"[2,3,5,8]";"1";"0";"1"
"1024";"29";"304";"1";"3";"3";"1";"12";"2";"[1,4,6,9]";"1";"0";"1"
"1025";"23";"304";"1";"10";"4";"1";"12";"2";"[2,7,9]";"2";"0";"1"
"1026";"28";"3";"1";"3";"1";"1";"12";"1";"[1,4,6,9]";"1";"0";"1"
"1027";"8";"304";"1";"4";"2";"1";"12";"2";"[3,7]";"2";"0";"1"
"1028";"34";"3";"1";"7";"1";"1";"12";"0";"[2,4,9,10]";"1";"0";"1"
"1029";"19";"305";"1";"2";"4";"1";"12";"2";"[1,5,6,7,8,9,10]";"2";"0";"1"
"1030";"32";"305";"1";"10";"3";"1";"12";"1";"[2,7,9]";"1";"0";"1"
"1031";"25";"305";"1";"9";"2";"1";"12";"2";"[1,2,3,7,10]";"2";"0";"1"
"1032";"35";"305";"1";"6";"2";"1";"12";"2";"[2,3,5,8]";"1";"0";"1"
"1033";"29";"305";"1";"3";"3";"1";"12";"2";"[1,4,6,9]";"1";"0";"1"
"1034";"8";"305";"1";"4";"2";"1";"12";"2";"[3,7]";"2";"0";"1"
"1035";"36";"4";"1";"5";"1";"1";"12";"1";"[1,2,6]";"1";"0";"1"
"1036";"13";"305";"1";"1";"3";"1";"12";"0";"[2,3,5,8,9]";"1";"0";"1"
"1037";"26";"305";"1";"8";"3";"1";"12";"2";"[1,2,6]";"1";"0";"1"
"1038";"19";"306";"1";"2";"4";"1";"12";"2";"[1,5,6,7,8,9,10]";"2";"0";"1"
"1039";"32";"306";"1";"10";"3";"1";"12";"1";"[2,7,9]";"1";"0";"1"
"1040";"36";"5";"1";"5";"1";"1";"12";"1";"[1,2,6]";"1";"0";"1"
"1041";"18";"306";"1";"1";"2";"1";"12";"1";"[2,3,5,8,9]";"2";"0";"1"
"1042";"13";"306";"1";"1";"3";"1";"12";"0";"[2,3,5,8,9]";"1";"0";"1"
"1043";"26";"306";"1";"8";"3";"1";"12";"2";"[1,2,6]";"1";"0";"1"
"1044";"10";"307";"1";"5";"2";"1";"12";"0";"[1,2,6]";"1";"0";"1"
"1045";"4";"307";"1";"1";"4";"1";"12";"0";"[2,3,5,8,9]";"2";"0";"1"
"1046";"6";"307";"1";"2";"3";"1";"12";"1";"[1,5,6,7,8,9,10]";"1";"0";"1"
"1047";"18";"307";"1";"1";"2";"1";"12";"1";"[2,3,5,8,9]";"2";"0";"1"
"1048";"37";"6";"1";"4";"1";"1";"12";"2";"[3,7]";"1";"0";"1"
"1049";"39";"7";"1";"10";"1";"1";"12";"1";"[2,7,9]";"1";"0";"1"
"1050";"10";"308";"1";"5";"2";"1";"12";"0";"[1,2,6]";"1";"0";"1"
"1051";"4";"308";"1";"1";"4";"1";"12";"0";"[2,3,5,8,9]";"2";"0";"1"
"1052";"6";"308";"1";"2";"3";"1";"12";"1";"[1,5,6,7,8,9,10]";"1";"0";"1"
"1053";"21";"308";"1";"5";"3";"1";"12";"0";"[1,2,6]";"1";"0";"1"
"1054";"37";"7";"1";"4";"1";"1";"12";"2";"[3,7]";"1";"0";"1"
"1055";"2";"308";"1";"7";"4";"1";"12";"0";"[2,4,9,10]";"2";"0";"1"
"1056";"39";"8";"1";"10";"1";"1";"12";"1";"[2,7,9]";"1";"0";"1"
"1057";"20";"309";"1";"8";"4";"1";"12";"2";"[1,2,6]";"2";"0";"1"
"1058";"21";"309";"1";"5";"3";"1";"12";"0";"[1,2,6]";"1";"0";"1"
"1059";"22";"8";"1";"9";"1";"1";"12";"1";"[1,2,3,7,10]";"1";"0";"1"
"1060";"14";"8";"1";"8";"1";"1";"12";"0";"[1,2,6]";"2";"0";"1"
"1061";"2";"309";"1";"7";"4";"1";"12";"0";"[2,4,9,10]";"2";"0";"1"
"1062";"30";"310";"1";"6";"3";"1";"12";"0";"[2,3,5,8]";"1";"0";"1"
"1063";"24";"9";"1";"6";"1";"1";"12";"0";"[2,3,5,8]";"2";"0";"1"
"1064";"20";"310";"1";"8";"4";"1";"12";"2";"[1,2,6]";"2";"0";"1"
"1065";"26";"310";"1";"8";"3";"1";"12";"2";"[1,2,6]";"1";"10";"1"
"1066";"22";"9";"1";"9";"1";"1";"12";"1";"[1,2,3,7,10]";"1";"0";"1"
"1067";"14";"9";"1";"8";"1";"1";"12";"0";"[1,2,6]";"2";"0";"1"
"1068";"30";"311";"1";"6";"3";"1";"12";"0";"[2,3,5,8]";"1";"0";"1"
"1069";"24";"10";"1";"6";"1";"1";"12";"0";"[2,3,5,8]";"2";"0";"1"
"1070";"26";"312";"1";"8";"3";"1";"12";"2";"[1,2,6]";"1";"9";"1"
"1071";"17";"312";"1";"10";"2";"1";"12";"2";"[2,7,9]";"2";"0";"1"
"1072";"17";"313";"1";"10";"2";"1";"12";"2";"[2,7,9]";"2";"0";"1"
"1073";"40";"13";"1";"1";"1";"1";"12";"0";"[2,3,5,8,9]";"2";"0";"1"
"1074";"26";"315";"1";"8";"3";"1";"12";"2";"[1,2,6]";"1";"1";"1"
"1075";"40";"14";"1";"1";"1";"1";"12";"0";"[2,3,5,8,9]";"2";"0";"1"
"1076";"3";"317";"1";"4";"4";"1";"12";"1";"[3,7]";"1";"0";"1"
"1077";"26";"318";"1";"8";"3";"1";"12";"2";"[1,2,6]";"1";"12";"1"
"1078";"3";"318";"1";"4";"4";"1";"12";"1";"[3,7]";"1";"0";"1"
"1079";"15";"319";"1";"7";"2";"1";"12";"2";"[2,4,9,10]";"2";"0";"1"
"1080";"27";"320";"1";"3";"4";"1";"12";"0";"[1,4,6,9]";"2";"0";"1"
"1081";"15";"320";"1";"7";"2";"1";"12";"2";"[2,4,9,10]";"2";"0";"1"
"1082";"27";"321";"1";"3";"4";"1";"12";"0";"[1,4,6,9]";"2";"0";"1"
"1083";"26";"323";"1";"8";"3";"1";"12";"2";"[1,2,6]";"1";"1";"1"
"1084";"26";"325";"1";"8";"3";"1";"12";"2";"[1,2,6]";"1";"12";"1"
"1085";"31";"328";"1";"3";"2";"1";"12";"2";"[1,4,6,9]";"1";"0";"1"
"1086";"31";"329";"1";"3";"2";"1";"12";"2";"[1,4,6,9]";"1";"0";"1"
"1087";"28";"0";"1";"1";"1";"2";"12";"1";"[2,3,5,8,9]";"2";"0";"1"
"1088";"20";"0";"1";"5";"4";"2";"12";"0";"[1,2,6]";"1";"0";"1"
"1089";"12";"0";"1";"4";"4";"2";"12";"1";"[3,7]";"1";"0";"1"
"1090";"22";"0";"1";"3";"1";"2";"12";"2";"[1,4,6,9]";"1";"0";"1"
"1091";"34";"0";"1";"10";"1";"2";"12";"0";"[2,7,9]";"1";"0";"1"
"1092";"16";"0";"1";"5";"1";"2";"12";"0";"[1,2,6]";"1";"0";"1"
"1093";"33";"0";"1";"7";"4";"2";"12";"0";"[2,4,9,10]";"2";"0";"1"
"1094";"2";"0";"1";"1";"4";"2";"12";"0";"[2,3,5,8,9]";"2";"0";"1"
"1095";"35";"0";"1";"7";"2";"2";"12";"1";"[2,4,9,10]";"2";"0";"1"
"1096";"39";"0";"1";"4";"1";"2";"12";"2";"[3,7]";"1";"0";"1"
"1097";"3";"0";"1";"2";"4";"2";"12";"1";"[1,5,6,7,8,9,10]";"2";"0";"1"
"1098";"1";"0";"1";"10";"2";"2";"12";"1";"[2,7,9]";"2";"0";"1"
"1099";"4";"0";"1";"6";"4";"2";"12";"2";"[2,3,5,8]";"1";"0";"1"
"1100";"40";"0";"1";"9";"1";"2";"12";"2";"[1,2,3,7,10]";"1";"0";"1"
"1101";"23";"0";"1";"9";"4";"2";"12";"2";"[1,2,3,7,10]";"2";"0";"1"
"1102";"10";"0";"1";"9";"2";"2";"12";"1";"[1,2,3,7,10]";"2";"0";"1"
"1103";"26";"0";"1";"5";"3";"2";"12";"1";"[1,2,6]";"1";"0";"1"
"1104";"17";"0";"1";"5";"2";"2";"12";"0";"[1,2,6]";"1";"0";"1"
"1105";"15";"0";"1";"6";"2";"2";"12";"2";"[2,3,5,8]";"1";"0";"1"
"1106";"5";"0";"1";"3";"2";"2";"12";"1";"[1,4,6,9]";"1";"0";"1"
"1107";"25";"0";"1";"1";"2";"2";"12";"1";"[2,3,5,8,9]";"2";"0";"1"
"1108";"19";"0";"1";"10";"4";"2";"12";"2";"[2,7,9]";"2";"0";"1"
"1109";"14";"0";"1";"8";"1";"2";"12";"2";"[1,2,6]";"2";"0";"1"
"1110";"32";"0";"1";"6";"3";"2";"12";"0";"[2,3,5,8]";"1";"0";"1"
"1111";"7";"0";"1";"10";"3";"2";"12";"1";"[2,7,9]";"1";"0";"1"
"1112";"21";"0";"1";"4";"3";"2";"12";"1";"[3,7]";"1";"0";"1"
"1113";"8";"0";"1";"4";"2";"2";"12";"0";"[3,7]";"2";"0";"1"
"1114";"31";"0";"1";"8";"2";"2";"12";"2";"[1,2,6]";"2";"0";"1"
"1115";"24";"0";"1";"7";"1";"2";"12";"1";"[2,4,9,10]";"1";"0";"1"
"1116";"37";"0";"1";"6";"1";"2";"12";"2";"[2,3,5,8]";"2";"0";"1"
"1117";"36";"0";"1";"2";"1";"2";"12";"1";"[1,5,6,7,8,9,10]";"1";"0";"1"
"1118";"13";"0";"1";"3";"3";"2";"12";"1";"[1,4,6,9]";"1";"0";"1"
"1119";"6";"0";"1";"1";"3";"2";"12";"0";"[2,3,5,8,9]";"1";"0";"1"
"1120";"18";"0";"1";"2";"2";"2";"12";"0";"[1,5,6,7,8,9,10]";"2";"0";"1"
"1121";"11";"0";"1";"7";"3";"2";"12";"2";"[2,4,9,10]";"1";"0";"1"
"1122";"27";"0";"1";"3";"4";"2";"12";"0";"[1,4,6,9]";"2";"0";"1"
"1123";"9";"0";"1";"8";"3";"2";"12";"0";"[1,2,6]";"1";"12";"1"
"1124";"38";"0";"1";"8";"4";"2";"12";"1";"[1,2,6]";"2";"0";"1"
"1125";"29";"0";"1";"9";"3";"2";"12";"1";"[1,2,3,7,10]";"1";"0";"1"
"1126";"30";"0";"1";"2";"3";"2";"12";"1";"[1,5,6,7,8,9,10]";"1";"0";"1"
"1127";"11";"2";"1";"7";"3";"2";"1";"2";"[2,4,9,10]";"2";"0";"1"
"1128";"1";"3";"1";"10";"2";"2";"1";"1";"[2,7,9]";"1";"0";"1"
"1129";"28";"3";"1";"1";"1";"2";"1";"1";"[2,3,5,8,9]";"1";"0";"1"
"1130";"3";"3";"1";"2";"4";"2";"1";"1";"[1,5,6,7,8,9,10]";"1";"0";"1"
"1131";"11";"3";"1";"7";"3";"2";"1";"2";"[2,4,9,10]";"2";"0";"1"
"1132";"9";"4";"1";"8";"3";"2";"1";"0";"[1,2,6]";"1";"0";"1"
"1133";"2";"4";"1";"1";"4";"2";"1";"0";"[2,3,5,8,9]";"2";"0";"1"
"1134";"33";"4";"1";"7";"4";"2";"1";"0";"[2,4,9,10]";"1";"0";"1"
"1135";"5";"4";"1";"3";"2";"2";"1";"1";"[1,4,6,9]";"1";"0";"1"
"1136";"35";"4";"1";"7";"2";"2";"1";"1";"[2,4,9,10]";"1";"0";"1"
"1137";"26";"4";"1";"5";"3";"2";"1";"1";"[1,2,6]";"1";"0";"1"
"1138";"1";"4";"1";"10";"2";"2";"1";"1";"[2,7,9]";"1";"0";"1"
"1139";"24";"4";"1";"7";"1";"2";"1";"1";"[2,4,9,10]";"1";"0";"1"
"1140";"28";"4";"1";"1";"1";"2";"1";"1";"[2,3,5,8,9]";"1";"0";"1"
"1141";"3";"4";"1";"2";"4";"2";"1";"1";"[1,5,6,7,8,9,10]";"1";"0";"1"
"1142";"22";"4";"1";"3";"1";"2";"1";"2";"[1,4,6,9]";"2";"0";"1"
"1143";"20";"5";"1";"5";"4";"2";"1";"0";"[1,2,6]";"2";"0";"1"
"1144";"9";"5";"1";"8";"3";"2";"1";"0";"[1,2,6]";"1";"0";"1"
"1145";"2";"5";"1";"1";"4";"2";"1";"0";"[2,3,5,8,9]";"2";"0";"1"
"1146";"33";"5";"1";"7";"4";"2";"1";"0";"[2,4,9,10]";"1";"0";"1"
"1147";"19";"5";"1";"10";"4";"2";"1";"2";"[2,7,9]";"2";"0";"1"
"1148";"7";"5";"1";"10";"3";"2";"1";"1";"[2,7,9]";"1";"0";"1"
"1149";"5";"5";"1";"3";"2";"2";"1";"1";"[1,4,6,9]";"1";"0";"1"
"1150";"35";"5";"1";"7";"2";"2";"1";"1";"[2,4,9,10]";"1";"0";"1"
"1151";"26";"5";"1";"5";"3";"2";"1";"1";"[1,2,6]";"1";"0";"1"
"1152";"24";"5";"1";"7";"1";"2";"1";"1";"[2,4,9,10]";"1";"0";"1"
"1153";"8";"5";"1";"4";"2";"2";"1";"0";"[3,7]";"1";"0";"1"
"1154";"22";"5";"1";"3";"1";"2";"1";"2";"[1,4,6,9]";"2";"0";"1"
"1155";"20";"6";"1";"5";"4";"2";"1";"0";"[1,2,6]";"2";"0";"1"
"1156";"25";"6";"1";"1";"2";"2";"1";"1";"[2,3,5,8,9]";"2";"0";"1"
"1157";"19";"6";"1";"10";"4";"2";"1";"2";"[2,7,9]";"2";"0";"1"
"1158";"7";"6";"1";"10";"3";"2";"1";"1";"[2,7,9]";"1";"0";"1"
"1159";"21";"6";"1";"4";"3";"2";"1";"1";"[3,7]";"1";"0";"1"
"1160";"16";"6";"1";"5";"1";"2";"1";"0";"[1,2,6]";"1";"0";"1"
"1161";"8";"6";"1";"4";"2";"2";"1";"0";"[3,7]";"1";"0";"1"
"1162";"10";"6";"1";"9";"2";"2";"1";"1";"[1,2,3,7,10]";"1";"0";"1"
"1163";"39";"6";"1";"4";"1";"2";"1";"2";"[3,7]";"2";"0";"1"
"1164";"40";"6";"1";"9";"1";"2";"1";"2";"[1,2,3,7,10]";"2";"0";"1"
"1165";"25";"7";"1";"1";"2";"2";"1";"1";"[2,3,5,8,9]";"2";"0";"1"
"1166";"21";"7";"1";"4";"3";"2";"1";"1";"[3,7]";"1";"0";"1"
"1167";"12";"7";"1";"4";"4";"2";"1";"1";"[3,7]";"1";"0";"1"
"1168";"16";"7";"1";"5";"1";"2";"1";"0";"[1,2,6]";"1";"0";"1"
"1169";"23";"7";"1";"9";"4";"2";"1";"2";"[1,2,3,7,10]";"2";"0";"1"
"1170";"10";"7";"1";"9";"2";"2";"1";"1";"[1,2,3,7,10]";"1";"0";"1"
"1171";"39";"7";"1";"4";"1";"2";"1";"2";"[3,7]";"2";"0";"1"
"1172";"40";"7";"1";"9";"1";"2";"1";"2";"[1,2,3,7,10]";"2";"0";"1"
"1173";"12";"8";"1";"4";"4";"2";"1";"1";"[3,7]";"1";"0";"1"
"1174";"15";"8";"1";"6";"2";"2";"1";"2";"[2,3,5,8]";"2";"0";"1"
"1175";"23";"8";"1";"9";"4";"2";"1";"2";"[1,2,3,7,10]";"2";"0";"1"
"1176";"30";"8";"1";"2";"3";"2";"1";"1";"[1,5,6,7,8,9,10]";"2";"0";"1"
"1177";"32";"8";"1";"6";"3";"2";"1";"0";"[2,3,5,8]";"2";"0";"1"
"1178";"37";"9";"1";"6";"1";"2";"1";"2";"[2,3,5,8]";"2";"0";"1"
"1179";"15";"9";"1";"6";"2";"2";"1";"2";"[2,3,5,8]";"2";"0";"1"
"1180";"30";"9";"1";"2";"3";"2";"1";"1";"[1,5,6,7,8,9,10]";"2";"0";"1"
"1181";"32";"9";"1";"6";"3";"2";"1";"0";"[2,3,5,8]";"2";"0";"1"
"1182";"37";"10";"1";"6";"1";"2";"1";"2";"[2,3,5,8]";"2";"0";"1"
"1183";"27";"10";"1";"3";"4";"2";"1";"0";"[1,4,6,9]";"2";"0";"1"
"1184";"14";"10";"1";"8";"1";"2";"1";"2";"[1,2,6]";"2";"0";"1"
"1185";"17";"10";"1";"5";"2";"2";"1";"0";"[1,2,6]";"1";"0";"1"
"1186";"27";"11";"1";"3";"4";"2";"1";"0";"[1,4,6,9]";"2";"0";"1"
"1187";"14";"11";"1";"8";"1";"2";"1";"2";"[1,2,6]";"2";"0";"1"
"1188";"17";"11";"1";"5";"2";"2";"1";"0";"[1,2,6]";"1";"0";"1"
"1189";"31";"12";"1";"8";"2";"2";"1";"2";"[1,2,6]";"2";"0";"1"
"1190";"31";"13";"1";"8";"2";"2";"1";"2";"[1,2,6]";"2";"0";"1"
"1191";"29";"13";"1";"9";"3";"2";"1";"1";"[1,2,3,7,10]";"1";"0";"1"
"1192";"29";"14";"1";"9";"3";"2";"1";"1";"[1,2,3,7,10]";"1";"0";"1"
"1193";"18";"14";"1";"2";"2";"2";"1";"0";"[1,5,6,7,8,9,10]";"1";"0";"1"
"1194";"6";"15";"1";"1";"3";"2";"1";"0";"[2,3,5,8,9]";"2";"0";"1"
"1195";"4";"15";"1";"6";"4";"2";"1";"2";"[2,3,5,8]";"1";"0";"1"
"1196";"18";"15";"1";"2";"2";"2";"1";"0";"[1,5,6,7,8,9,10]";"1";"0";"1"
"1197";"13";"16";"1";"3";"3";"2";"1";"1";"[1,4,6,9]";"1";"0";"1"
"1198";"6";"16";"1";"1";"3";"2";"1";"0";"[2,3,5,8,9]";"2";"0";"1"
"1199";"4";"16";"1";"6";"4";"2";"1";"2";"[2,3,5,8]";"1";"0";"1"
"1200";"13";"17";"1";"3";"3";"2";"1";"1";"[1,4,6,9]";"1";"0";"1"
"1201";"36";"20";"1";"2";"1";"2";"1";"1";"[1,5,6,7,8,9,10]";"1";"0";"1"
"1202";"36";"21";"1";"2";"1";"2";"1";"1";"[1,5,6,7,8,9,10]";"1";"0";"1"
"1203";"34";"28";"1";"10";"1";"2";"1";"0";"[2,7,9]";"1";"0";"1"
"1204";"38";"29";"1";"8";"4";"2";"1";"1";"[1,2,6]";"1";"0";"1"
"1205";"34";"29";"1";"10";"1";"2";"1";"0";"[2,7,9]";"1";"0";"1"
"1206";"38";"30";"1";"8";"4";"2";"1";"1";"[1,2,6]";"1";"0";"1"
"1207";"28";"2";"1";"1";"1";"2";"2";"1";"[2,3,5,8,9]";"1";"0";"1"
"1208";"28";"3";"1";"1";"1";"2";"2";"1";"[2,3,5,8,9]";"1";"0";"1"
"1209";"21";"33";"1";"4";"3";"2";"2";"1";"[3,7]";"1";"0";"1"
"1210";"12";"33";"1";"4";"4";"2";"2";"1";"[3,7]";"1";"0";"1"
"1211";"13";"33";"1";"3";"3";"2";"2";"1";"[1,4,6,9]";"1";"0";"1"
"1212";"1";"34";"1";"10";"2";"2";"2";"1";"[2,7,9]";"1";"0";"1"
"1213";"21";"34";"1";"4";"3";"2";"2";"1";"[3,7]";"1";"0";"1"
"1214";"4";"34";"1";"6";"4";"2";"2";"2";"[2,3,5,8]";"1";"0";"1"
"1215";"12";"34";"1";"4";"4";"2";"2";"1";"[3,7]";"1";"0";"1"
"1216";"35";"34";"1";"7";"2";"2";"2";"1";"[2,4,9,10]";"1";"0";"1"
"1217";"8";"34";"1";"4";"2";"2";"2";"0";"[3,7]";"1";"0";"1"
"1218";"10";"34";"1";"9";"2";"2";"2";"1";"[1,2,3,7,10]";"1";"0";"1"
"1219";"13";"34";"1";"3";"3";"2";"2";"1";"[1,4,6,9]";"1";"0";"1"
"1220";"7";"34";"1";"10";"3";"2";"2";"1";"[2,7,9]";"1";"0";"1"
"1221";"16";"4";"1";"5";"1";"2";"2";"0";"[1,2,6]";"1";"0";"1"
"1222";"1";"35";"1";"10";"2";"2";"2";"1";"[2,7,9]";"1";"0";"1"
"1223";"5";"35";"1";"3";"2";"2";"2";"1";"[1,4,6,9]";"1";"0";"1"
"1224";"4";"35";"1";"6";"4";"2";"2";"2";"[2,3,5,8]";"1";"0";"1"
"1225";"35";"35";"1";"7";"2";"2";"2";"1";"[2,4,9,10]";"1";"0";"1"
"1226";"3";"35";"1";"2";"4";"2";"2";"1";"[1,5,6,7,8,9,10]";"2";"0";"1"
"1227";"8";"35";"1";"4";"2";"2";"2";"0";"[3,7]";"1";"0";"1"
"1228";"10";"35";"1";"9";"2";"2";"2";"1";"[1,2,3,7,10]";"1";"0";"1"
"1229";"25";"35";"1";"1";"2";"2";"2";"1";"[2,3,5,8,9]";"1";"0";"1"
"1230";"7";"35";"1";"10";"3";"2";"2";"1";"[2,7,9]";"1";"0";"1"
"1231";"16";"5";"1";"5";"1";"2";"2";"0";"[1,2,6]";"1";"0";"1"
"1232";"5";"36";"1";"3";"2";"2";"2";"1";"[1,4,6,9]";"1";"0";"1"
"1233";"32";"36";"1";"6";"3";"2";"2";"0";"[2,3,5,8]";"1";"0";"1"
"1234";"38";"36";"1";"8";"4";"2";"2";"1";"[1,2,6]";"1";"0";"1"
"1235";"2";"36";"1";"1";"4";"2";"2";"0";"[2,3,5,8,9]";"2";"0";"1"
"1236";"3";"36";"1";"2";"4";"2";"2";"1";"[1,5,6,7,8,9,10]";"2";"0";"1"
"1237";"25";"36";"1";"1";"2";"2";"2";"1";"[2,3,5,8,9]";"1";"0";"1"
"1238";"32";"37";"1";"6";"3";"2";"2";"0";"[2,3,5,8]";"1";"0";"1"
"1239";"38";"37";"1";"8";"4";"2";"2";"1";"[1,2,6]";"1";"0";"1"
"1240";"19";"37";"1";"10";"4";"2";"2";"2";"[2,7,9]";"2";"0";"1"
"1241";"2";"37";"1";"1";"4";"2";"2";"0";"[2,3,5,8,9]";"2";"0";"1"
"1242";"39";"7";"1";"4";"1";"2";"2";"2";"[3,7]";"2";"0";"1"
"1243";"19";"38";"1";"10";"4";"2";"2";"2";"[2,7,9]";"2";"0";"1"
"1244";"26";"38";"1";"5";"3";"2";"2";"1";"[1,2,6]";"2";"0";"1"
"1245";"39";"8";"1";"4";"1";"2";"2";"2";"[3,7]";"2";"0";"1"
"1246";"23";"38";"1";"9";"4";"2";"2";"2";"[1,2,3,7,10]";"2";"0";"1"
"1247";"29";"38";"1";"9";"3";"2";"2";"1";"[1,2,3,7,10]";"1";"0";"1"
"1248";"33";"39";"1";"7";"4";"2";"2";"0";"[2,4,9,10]";"1";"0";"1"
"1249";"26";"39";"1";"5";"3";"2";"2";"1";"[1,2,6]";"2";"0";"1"
"1250";"23";"39";"1";"9";"4";"2";"2";"2";"[1,2,3,7,10]";"2";"0";"1"
"1251";"15";"39";"1";"6";"2";"2";"2";"2";"[2,3,5,8]";"1";"0";"1"
"1252";"29";"39";"1";"9";"3";"2";"2";"1";"[1,2,3,7,10]";"1";"0";"1"
"1253";"33";"40";"1";"7";"4";"2";"2";"0";"[2,4,9,10]";"1";"0";"1"
"1254";"37";"10";"1";"6";"1";"2";"2";"2";"[2,3,5,8]";"2";"0";"1"
"1255";"15";"40";"1";"6";"2";"2";"2";"2";"[2,3,5,8]";"1";"0";"1"
"1256";"11";"40";"1";"7";"3";"2";"2";"2";"[2,4,9,10]";"2";"0";"1"
"1257";"37";"11";"1";"6";"1";"2";"2";"2";"[2,3,5,8]";"2";"0";"1"
"1258";"14";"11";"1";"8";"1";"2";"2";"2";"[1,2,6]";"1";"0";"1"
"1259";"11";"41";"1";"7";"3";"2";"2";"2";"[2,4,9,10]";"2";"0";"1"
"1260";"9";"41";"1";"8";"3";"2";"2";"0";"[1,2,6]";"2";"0";"1"
"1261";"14";"12";"1";"8";"1";"2";"2";"2";"[1,2,6]";"1";"0";"1"
"1262";"6";"42";"1";"1";"3";"2";"2";"0";"[2,3,5,8,9]";"2";"0";"1"
"1263";"9";"42";"1";"8";"3";"2";"2";"0";"[1,2,6]";"2";"0";"1"
"1264";"24";"12";"1";"7";"1";"2";"2";"1";"[2,4,9,10]";"1";"0";"1"
"1265";"20";"43";"1";"5";"4";"2";"2";"0";"[1,2,6]";"1";"0";"1"
"1266";"6";"43";"1";"1";"3";"2";"2";"0";"[2,3,5,8,9]";"2";"0";"1"
"1267";"24";"13";"1";"7";"1";"2";"2";"1";"[2,4,9,10]";"1";"0";"1"
"1268";"22";"14";"1";"3";"1";"2";"2";"2";"[1,4,6,9]";"2";"0";"1"
"1269";"20";"44";"1";"5";"4";"2";"2";"0";"[1,2,6]";"1";"0";"1"
"1270";"22";"15";"1";"3";"1";"2";"2";"2";"[1,4,6,9]";"2";"0";"1"
"1271";"17";"47";"1";"5";"2";"2";"2";"0";"[1,2,6]";"1";"0";"1"
"1272";"18";"47";"1";"2";"2";"2";"2";"0";"[1,5,6,7,8,9,10]";"1";"0";"1"
"1273";"17";"48";"1";"5";"2";"2";"2";"0";"[1,2,6]";"1";"0";"1"
"1274";"18";"48";"1";"2";"2";"2";"2";"0";"[1,5,6,7,8,9,10]";"1";"0";"1"
"1275";"40";"19";"1";"9";"1";"2";"2";"2";"[1,2,3,7,10]";"2";"0";"1"
"1276";"27";"49";"1";"3";"4";"2";"2";"0";"[1,4,6,9]";"2";"0";"1"
"1277";"40";"20";"1";"9";"1";"2";"2";"2";"[1,2,3,7,10]";"2";"0";"1"
"1278";"27";"50";"1";"3";"4";"2";"2";"0";"[1,4,6,9]";"2";"0";"1"
"1279";"31";"51";"1";"8";"2";"2";"2";"2";"[1,2,6]";"2";"0";"1"
"1280";"31";"52";"1";"8";"2";"2";"2";"2";"[1,2,6]";"2";"0";"1"
"1281";"34";"25";"1";"10";"1";"2";"2";"0";"[2,7,9]";"1";"0";"1"
"1282";"34";"26";"1";"10";"1";"2";"2";"0";"[2,7,9]";"1";"0";"1"
"1283";"36";"27";"1";"2";"1";"2";"2";"1";"[1,5,6,7,8,9,10]";"1";"0";"1"
"1284";"36";"28";"1";"2";"1";"2";"2";"1";"[1,5,6,7,8,9,10]";"1";"0";"1"
"1285";"30";"60";"1";"2";"3";"2";"2";"1";"[1,5,6,7,8,9,10]";"0";"0";"1"
"1286";"0";"30";"1";"2";"3";"2";"2";"1";"[1,5,6,7,8,9,10]";"2";"0";"0"
"1287";"32";"62";"1";"6";"3";"2";"3";"0";"[2,3,5,8]";"2";"0";"1"
"1288";"1";"62";"1";"10";"2";"2";"3";"1";"[2,7,9]";"1";"0";"1"
"1289";"21";"62";"1";"4";"3";"2";"3";"1";"[3,7]";"1";"0";"1"
"1290";"5";"62";"1";"3";"2";"2";"3";"1";"[1,4,6,9]";"1";"0";"1"
"1291";"35";"63";"1";"7";"2";"2";"3";"1";"[2,4,9,10]";"1";"0";"1"
"1292";"25";"63";"1";"1";"2";"2";"3";"1";"[2,3,5,8,9]";"1";"0";"1"
"1293";"19";"63";"1";"10";"4";"2";"3";"2";"[2,7,9]";"2";"0";"1"
"1294";"20";"63";"1";"5";"4";"2";"3";"0";"[1,2,6]";"2";"0";"1"
"1295";"32";"63";"1";"6";"3";"2";"3";"0";"[2,3,5,8]";"2";"0";"1"
"1296";"1";"63";"1";"10";"2";"2";"3";"1";"[2,7,9]";"1";"0";"1"
"1297";"21";"63";"1";"4";"3";"2";"3";"1";"[3,7]";"1";"0";"1"
"1298";"28";"3";"1";"1";"1";"2";"3";"1";"[2,3,5,8,9]";"1";"0";"1"
"1299";"5";"63";"1";"3";"2";"2";"3";"1";"[1,4,6,9]";"1";"0";"1"
"1300";"35";"64";"1";"7";"2";"2";"3";"1";"[2,4,9,10]";"1";"0";"1"
"1301";"10";"64";"1";"9";"2";"2";"3";"1";"[1,2,3,7,10]";"1";"0";"1"
"1302";"25";"64";"1";"1";"2";"2";"3";"1";"[2,3,5,8,9]";"1";"0";"1"
"1303";"34";"4";"1";"10";"1";"2";"3";"0";"[2,7,9]";"1";"0";"1"
"1304";"27";"64";"1";"3";"4";"2";"3";"0";"[1,4,6,9]";"1";"0";"1"
"1305";"19";"64";"1";"10";"4";"2";"3";"2";"[2,7,9]";"2";"0";"1"
"1306";"20";"64";"1";"5";"4";"2";"3";"0";"[1,2,6]";"2";"0";"1"
"1307";"23";"64";"1";"9";"4";"2";"3";"2";"[1,2,3,7,10]";"2";"0";"1"
"1308";"16";"4";"1";"5";"1";"2";"3";"0";"[1,2,6]";"2";"0";"1"
"1309";"28";"4";"1";"1";"1";"2";"3";"1";"[2,3,5,8,9]";"1";"0";"1"
"1310";"26";"64";"1";"5";"3";"2";"3";"1";"[1,2,6]";"2";"0";"1"
"1311";"10";"65";"1";"9";"2";"2";"3";"1";"[1,2,3,7,10]";"1";"0";"1"
"1312";"12";"65";"1";"4";"4";"2";"3";"1";"[3,7]";"1";"0";"1"
"1313";"34";"5";"1";"10";"1";"2";"3";"0";"[2,7,9]";"1";"0";"1"
"1314";"27";"65";"1";"3";"4";"2";"3";"0";"[1,4,6,9]";"1";"0";"1"
"1315";"23";"65";"1";"9";"4";"2";"3";"2";"[1,2,3,7,10]";"2";"0";"1"
"1316";"2";"65";"1";"1";"4";"2";"3";"0";"[2,3,5,8,9]";"2";"0";"1"
"1317";"16";"5";"1";"5";"1";"2";"3";"0";"[1,2,6]";"2";"0";"1"
"1318";"26";"65";"1";"5";"3";"2";"3";"1";"[1,2,6]";"2";"0";"1"
"1319";"8";"66";"1";"4";"2";"2";"3";"0";"[3,7]";"2";"0";"1"
"1320";"13";"66";"1";"3";"3";"2";"3";"1";"[1,4,6,9]";"1";"0";"1"
"1321";"12";"66";"1";"4";"4";"2";"3";"1";"[3,7]";"1";"0";"1"
"1322";"11";"66";"1";"7";"3";"2";"3";"2";"[2,4,9,10]";"2";"0";"1"
"1323";"2";"66";"1";"1";"4";"2";"3";"0";"[2,3,5,8,9]";"2";"0";"1"
"1324";"30";"67";"1";"2";"3";"2";"3";"1";"[1,5,6,7,8,9,10]";"1";"0";"1"
"1325";"33";"67";"1";"7";"4";"2";"3";"0";"[2,4,9,10]";"2";"0";"1"
"1326";"8";"67";"1";"4";"2";"2";"3";"0";"[3,7]";"2";"0";"1"
"1327";"13";"67";"1";"3";"3";"2";"3";"1";"[1,4,6,9]";"1";"0";"1"
"1328";"18";"67";"1";"2";"2";"2";"3";"0";"[1,5,6,7,8,9,10]";"1";"0";"1"
"1329";"11";"67";"1";"7";"3";"2";"3";"2";"[2,4,9,10]";"2";"0";"1"
"1330";"36";"7";"1";"2";"1";"2";"3";"1";"[1,5,6,7,8,9,10]";"1";"0";"1"
"1331";"7";"67";"1";"10";"3";"2";"3";"1";"[2,7,9]";"2";"0";"1"
"1332";"30";"68";"1";"2";"3";"2";"3";"1";"[1,5,6,7,8,9,10]";"1";"0";"1"
"1333";"33";"68";"1";"7";"4";"2";"3";"0";"[2,4,9,10]";"2";"0";"1"
"1334";"18";"68";"1";"2";"2";"2";"3";"0";"[1,5,6,7,8,9,10]";"1";"0";"1"
"1335";"36";"8";"1";"2";"1";"2";"3";"1";"[1,5,6,7,8,9,10]";"1";"0";"1"
"1336";"24";"8";"1";"7";"1";"2";"3";"1";"[2,4,9,10]";"1";"0";"1"
"1337";"7";"68";"1";"10";"3";"2";"3";"1";"[2,7,9]";"2";"0";"1"
"1338";"4";"68";"1";"6";"4";"2";"3";"2";"[2,3,5,8]";"1";"0";"1"
"1339";"24";"9";"1";"7";"1";"2";"3";"1";"[2,4,9,10]";"1";"0";"1"
"1340";"4";"69";"1";"6";"4";"2";"3";"2";"[2,3,5,8]";"1";"0";"1"
"1341";"6";"69";"1";"1";"3";"2";"3";"0";"[2,3,5,8,9]";"1";"0";"1"
"1342";"38";"70";"1";"8";"4";"2";"3";"1";"[1,2,6]";"2";"0";"1"
"1343";"39";"10";"1";"4";"1";"2";"3";"2";"[3,7]";"2";"0";"1"
"1344";"14";"10";"1";"8";"1";"2";"3";"2";"[1,2,6]";"2";"0";"1"
"1345";"6";"71";"1";"1";"3";"2";"3";"0";"[2,3,5,8,9]";"1";"0";"1"
"1346";"38";"71";"1";"8";"4";"2";"3";"1";"[1,2,6]";"2";"0";"1"
"1347";"39";"11";"1";"4";"1";"2";"3";"2";"[3,7]";"2";"0";"1"
"1348";"14";"11";"1";"8";"1";"2";"3";"2";"[1,2,6]";"2";"0";"1"
"1349";"3";"73";"1";"2";"4";"2";"3";"1";"[1,5,6,7,8,9,10]";"1";"0";"1"
"1350";"40";"13";"1";"9";"1";"2";"3";"2";"[1,2,3,7,10]";"2";"0";"1"
"1351";"22";"13";"1";"3";"1";"2";"3";"2";"[1,4,6,9]";"2";"0";"1"
"1352";"3";"74";"1";"2";"4";"2";"3";"1";"[1,5,6,7,8,9,10]";"1";"0";"1"
"1353";"40";"14";"1";"9";"1";"2";"3";"2";"[1,2,3,7,10]";"2";"0";"1"
"1354";"22";"14";"1";"3";"1";"2";"3";"2";"[1,4,6,9]";"2";"0";"1"
"1355";"15";"77";"1";"6";"2";"2";"3";"2";"[2,3,5,8]";"1";"0";"1"
"1356";"9";"77";"1";"8";"3";"2";"3";"0";"[1,2,6]";"2";"0";"1"
"1357";"15";"78";"1";"6";"2";"2";"3";"2";"[2,3,5,8]";"1";"0";"1"
"1358";"9";"78";"1";"8";"3";"2";"3";"0";"[1,2,6]";"2";"0";"1"
"1359";"37";"20";"1";"6";"1";"2";"3";"2";"[2,3,5,8]";"1";"0";"1"
"1360";"37";"21";"1";"6";"1";"2";"3";"2";"[2,3,5,8]";"1";"0";"1"
"1361";"29";"81";"1";"9";"3";"2";"3";"1";"[1,2,3,7,10]";"1";"0";"1"
"1362";"29";"82";"1";"9";"3";"2";"3";"1";"[1,2,3,7,10]";"1";"0";"1"
"1363";"31";"83";"1";"8";"2";"2";"3";"2";"[1,2,6]";"2";"0";"1"
"1364";"31";"84";"1";"8";"2";"2";"3";"2";"[1,2,6]";"2";"0";"1"
"1365";"17";"85";"1";"5";"2";"2";"3";"0";"[1,2,6]";"1";"0";"1"
"1366";"17";"86";"1";"5";"2";"2";"3";"0";"[1,2,6]";"1";"0";"1"
"1367";"16";"1";"1";"5";"1";"2";"4";"0";"[1,2,6]";"1";"0";"1"
"1368";"1";"88";"1";"10";"2";"2";"4";"1";"[2,7,9]";"1";"0";"1"
"1369";"16";"2";"1";"5";"1";"2";"4";"0";"[1,2,6]";"1";"0";"1"
"1370";"3";"88";"1";"2";"4";"2";"4";"1";"[1,5,6,7,8,9,10]";"2";"0";"1"
"1371";"5";"88";"1";"3";"2";"2";"4";"1";"[1,4,6,9]";"1";"0";"1"
"1372";"10";"88";"1";"9";"2";"2";"4";"1";"[1,2,3,7,10]";"1";"0";"1"
"1373";"14";"3";"1";"8";"1";"2";"4";"2";"[1,2,6]";"2";"0";"1"
"1374";"4";"89";"1";"6";"4";"2";"4";"2";"[2,3,5,8]";"2";"0";"1"
"1375";"28";"3";"1";"1";"1";"2";"4";"1";"[2,3,5,8,9]";"1";"0";"1"
"1376";"1";"89";"1";"10";"2";"2";"4";"1";"[2,7,9]";"1";"0";"1"
"1377";"19";"89";"1";"10";"4";"2";"4";"2";"[2,7,9]";"2";"0";"1"
"1378";"24";"3";"1";"7";"1";"2";"4";"1";"[2,4,9,10]";"1";"0";"1"
"1379";"3";"89";"1";"2";"4";"2";"4";"1";"[1,5,6,7,8,9,10]";"2";"0";"1"
"1380";"5";"89";"1";"3";"2";"2";"4";"1";"[1,4,6,9]";"1";"0";"1"
"1381";"36";"3";"1";"2";"1";"2";"4";"1";"[1,5,6,7,8,9,10]";"2";"0";"1"
"1382";"12";"89";"1";"4";"4";"2";"4";"1";"[3,7]";"1";"0";"1"
"1383";"10";"89";"1";"9";"2";"2";"4";"1";"[1,2,3,7,10]";"1";"0";"1"
"1384";"14";"4";"1";"8";"1";"2";"4";"2";"[1,2,6]";"2";"0";"1"
"1385";"29";"90";"1";"9";"3";"2";"4";"1";"[1,2,3,7,10]";"1";"0";"1"
"1386";"4";"90";"1";"6";"4";"2";"4";"2";"[2,3,5,8]";"2";"0";"1"
"1387";"28";"4";"1";"1";"1";"2";"4";"1";"[2,3,5,8,9]";"1";"0";"1"
"1388";"34";"4";"1";"10";"1";"2";"4";"0";"[2,7,9]";"1";"0";"1"
"1389";"19";"90";"1";"10";"4";"2";"4";"2";"[2,7,9]";"2";"0";"1"
"1390";"24";"4";"1";"7";"1";"2";"4";"1";"[2,4,9,10]";"1";"0";"1"
"1391";"36";"4";"1";"2";"1";"2";"4";"1";"[1,5,6,7,8,9,10]";"2";"0";"1"
"1392";"25";"90";"1";"1";"2";"2";"4";"1";"[2,3,5,8,9]";"2";"0";"1"
"1393";"12";"90";"1";"4";"4";"2";"4";"1";"[3,7]";"1";"0";"1"
"1394";"29";"91";"1";"9";"3";"2";"4";"1";"[1,2,3,7,10]";"1";"0";"1"
"1395";"32";"91";"1";"6";"3";"2";"4";"0";"[2,3,5,8]";"1";"0";"1"
"1396";"34";"5";"1";"10";"1";"2";"4";"0";"[2,7,9]";"1";"0";"1"
"1397";"20";"91";"1";"5";"4";"2";"4";"0";"[1,2,6]";"2";"0";"1"
"1398";"11";"91";"1";"7";"3";"2";"4";"2";"[2,4,9,10]";"2";"0";"1"
"1399";"25";"91";"1";"1";"2";"2";"4";"1";"[2,3,5,8,9]";"2";"0";"1"
"1400";"32";"92";"1";"6";"3";"2";"4";"0";"[2,3,5,8]";"1";"0";"1"
"1401";"13";"92";"1";"3";"3";"2";"4";"1";"[1,4,6,9]";"1";"0";"1"
"1402";"39";"6";"1";"4";"1";"2";"4";"2";"[3,7]";"2";"0";"1"
"1403";"40";"6";"1";"9";"1";"2";"4";"2";"[1,2,3,7,10]";"2";"0";"1"
"1404";"20";"92";"1";"5";"4";"2";"4";"0";"[1,2,6]";"2";"0";"1"
"1405";"35";"92";"1";"7";"2";"2";"4";"1";"[2,4,9,10]";"1";"0";"1"
"1406";"11";"92";"1";"7";"3";"2";"4";"2";"[2,4,9,10]";"2";"0";"1"
"1407";"22";"6";"1";"3";"1";"2";"4";"2";"[1,4,6,9]";"2";"0";"1"
"1408";"13";"93";"1";"3";"3";"2";"4";"1";"[1,4,6,9]";"1";"0";"1"
"1409";"39";"7";"1";"4";"1";"2";"4";"2";"[3,7]";"2";"0";"1"
"1410";"40";"7";"1";"9";"1";"2";"4";"2";"[1,2,3,7,10]";"2";"0";"1"
"1411";"8";"93";"1";"4";"2";"2";"4";"0";"[3,7]";"0";"2";"1"
"1412";"35";"93";"1";"7";"2";"2";"4";"1";"[2,4,9,10]";"1";"0";"1"
"1413";"22";"7";"1";"3";"1";"2";"4";"2";"[1,4,6,9]";"2";"0";"1"
"1414";"21";"93";"1";"4";"3";"2";"4";"1";"[3,7]";"1";"0";"1"
"1415";"8";"94";"1";"4";"2";"2";"4";"0";"[3,7]";"0";"3";"1"
"1416";"21";"95";"1";"4";"3";"2";"4";"1";"[3,7]";"1";"0";"1"
"1417";"6";"95";"1";"1";"3";"2";"4";"0";"[2,3,5,8,9]";"1";"0";"1"
"1418";"2";"96";"1";"1";"4";"2";"4";"0";"[2,3,5,8,9]";"2";"0";"1"
"1419";"6";"96";"1";"1";"3";"2";"4";"0";"[2,3,5,8,9]";"1";"0";"1"
"1420";"2";"97";"1";"1";"4";"2";"4";"0";"[2,3,5,8,9]";"2";"0";"1"
"1421";"27";"98";"1";"3";"4";"2";"4";"0";"[1,4,6,9]";"1";"0";"1"
"1422";"9";"98";"1";"8";"3";"2";"4";"0";"[1,2,6]";"1";"0";"1"
"1423";"8";"98";"1";"4";"2";"2";"4";"0";"[3,7]";"2";"3";"1"
"1424";"37";"12";"1";"6";"1";"2";"4";"2";"[2,3,5,8]";"2";"0";"1"
"1425";"27";"99";"1";"3";"4";"2";"4";"0";"[1,4,6,9]";"1";"0";"1"
"1426";"7";"99";"1";"10";"3";"2";"4";"1";"[2,7,9]";"1";"0";"1"
"1427";"9";"99";"1";"8";"3";"2";"4";"0";"[1,2,6]";"1";"0";"1"
"1428";"8";"99";"1";"4";"2";"2";"4";"0";"[3,7]";"2";"3";"1"
"1429";"37";"13";"1";"6";"1";"2";"4";"2";"[2,3,5,8]";"2";"0";"1"
"1430";"7";"100";"1";"10";"3";"2";"4";"1";"[2,7,9]";"1";"0";"1"
"1431";"30";"102";"1";"2";"3";"2";"4";"1";"[1,5,6,7,8,9,10]";"2";"0";"1"
"1432";"18";"102";"1";"2";"2";"2";"4";"0";"[1,5,6,7,8,9,10]";"1";"0";"1"
"1433";"30";"103";"1";"2";"3";"2";"4";"1";"[1,5,6,7,8,9,10]";"2";"0";"1"
"1434";"18";"103";"1";"2";"2";"2";"4";"0";"[1,5,6,7,8,9,10]";"1";"0";"1"
"1435";"26";"104";"1";"5";"3";"2";"4";"1";"[1,2,6]";"2";"0";"1"
"1436";"26";"105";"1";"5";"3";"2";"4";"1";"[1,2,6]";"2";"0";"1"
"1437";"17";"106";"1";"5";"2";"2";"4";"0";"[1,2,6]";"1";"0";"1"
"1438";"23";"106";"1";"9";"4";"2";"4";"2";"[1,2,3,7,10]";"1";"0";"1"
"1439";"33";"106";"1";"7";"4";"2";"4";"0";"[2,4,9,10]";"1";"0";"1"
"1440";"17";"107";"1";"5";"2";"2";"4";"0";"[1,2,6]";"1";"0";"1"
"1441";"31";"107";"1";"8";"2";"2";"4";"2";"[1,2,6]";"2";"0";"1"
"1442";"23";"107";"1";"9";"4";"2";"4";"2";"[1,2,3,7,10]";"1";"0";"1"
"1443";"33";"107";"1";"7";"4";"2";"4";"0";"[2,4,9,10]";"1";"0";"1"
"1444";"31";"108";"1";"8";"2";"2";"4";"2";"[1,2,6]";"2";"0";"1"
"1445";"15";"109";"1";"6";"2";"2";"4";"2";"[2,3,5,8]";"1";"0";"1"
"1446";"15";"110";"1";"6";"2";"2";"4";"2";"[2,3,5,8]";"1";"0";"1"
"1447";"38";"116";"1";"8";"4";"2";"4";"1";"[1,2,6]";"0";"0";"1"
"1448";"0";"30";"1";"8";"4";"2";"4";"1";"[1,2,6]";"2";"0";"0"
"1449";"22";"0";"1";"3";"1";"2";"5";"2";"[1,4,6,9]";"0";"4";"1"
"1450";"11";"117";"1";"7";"3";"2";"5";"2";"[2,4,9,10]";"2";"0";"1"
"1451";"22";"2";"1";"3";"1";"2";"5";"2";"[1,4,6,9]";"0";"1";"1"
"1452";"20";"118";"1";"5";"4";"2";"5";"0";"[1,2,6]";"2";"0";"1"
"1453";"3";"118";"1";"2";"4";"2";"5";"1";"[1,5,6,7,8,9,10]";"2";"0";"1"
"1454";"28";"2";"1";"1";"1";"2";"5";"1";"[2,3,5,8,9]";"1";"0";"1"
"1455";"22";"2";"1";"3";"1";"2";"5";"2";"[1,4,6,9]";"0";"4";"1"
"1456";"40";"2";"1";"9";"1";"2";"5";"2";"[1,2,3,7,10]";"2";"0";"1"
"1457";"13";"118";"1";"3";"3";"2";"5";"1";"[1,4,6,9]";"2";"0";"1"
"1458";"12";"118";"1";"4";"4";"2";"5";"1";"[3,7]";"1";"0";"1"
"1459";"11";"118";"1";"7";"3";"2";"5";"2";"[2,4,9,10]";"2";"0";"1"
"1460";"5";"119";"1";"3";"2";"2";"5";"1";"[1,4,6,9]";"1";"0";"1"
"1461";"22";"3";"1";"3";"1";"2";"5";"2";"[1,4,6,9]";"0";"5";"1"
"1462";"8";"119";"1";"4";"2";"2";"5";"0";"[3,7]";"1";"0";"1"
"1463";"20";"119";"1";"5";"4";"2";"5";"0";"[1,2,6]";"2";"0";"1"
"1464";"25";"119";"1";"1";"2";"2";"5";"1";"[2,3,5,8,9]";"1";"0";"1"
"1465";"35";"119";"1";"7";"2";"2";"5";"1";"[2,4,9,10]";"1";"0";"1"
"1466";"3";"119";"1";"2";"4";"2";"5";"1";"[1,5,6,7,8,9,10]";"2";"0";"1"
"1467";"28";"3";"1";"1";"1";"2";"5";"1";"[2,3,5,8,9]";"1";"0";"1"
"1468";"40";"3";"1";"9";"1";"2";"5";"2";"[1,2,3,7,10]";"2";"0";"1"
"1469";"13";"119";"1";"3";"3";"2";"5";"1";"[1,4,6,9]";"2";"0";"1"
"1470";"16";"3";"1";"5";"1";"2";"5";"0";"[1,2,6]";"2";"0";"1"
"1471";"12";"119";"1";"4";"4";"2";"5";"1";"[3,7]";"1";"0";"1"
"1472";"5";"120";"1";"3";"2";"2";"5";"1";"[1,4,6,9]";"1";"0";"1"
"1473";"15";"120";"1";"6";"2";"2";"5";"2";"[2,3,5,8]";"0";"1";"1"
"1474";"8";"120";"1";"4";"2";"2";"5";"0";"[3,7]";"1";"0";"1"
"1475";"22";"4";"1";"3";"1";"2";"5";"2";"[1,4,6,9]";"0";"7";"1"
"1476";"25";"120";"1";"1";"2";"2";"5";"1";"[2,3,5,8,9]";"1";"0";"1"
"1477";"35";"120";"1";"7";"2";"2";"5";"1";"[2,4,9,10]";"1";"0";"1"
"1478";"21";"120";"1";"4";"3";"2";"5";"1";"[3,7]";"1";"0";"1"
"1479";"29";"120";"1";"9";"3";"2";"5";"1";"[1,2,3,7,10]";"1";"0";"1"
"1480";"10";"120";"1";"9";"2";"2";"5";"1";"[1,2,3,7,10]";"1";"0";"1"
"1481";"33";"120";"1";"7";"4";"2";"5";"0";"[2,4,9,10]";"1";"0";"1"
"1482";"18";"120";"1";"2";"2";"2";"5";"0";"[1,5,6,7,8,9,10]";"2";"0";"1"
"1483";"4";"120";"1";"6";"4";"2";"5";"2";"[2,3,5,8]";"2";"0";"1"
"1484";"1";"120";"1";"10";"2";"2";"5";"1";"[2,7,9]";"1";"0";"1"
"1485";"16";"4";"1";"5";"1";"2";"5";"0";"[1,2,6]";"2";"0";"1"
"1486";"29";"121";"1";"9";"3";"2";"5";"1";"[1,2,3,7,10]";"1";"0";"1"
"1487";"21";"121";"1";"4";"3";"2";"5";"1";"[3,7]";"1";"0";"1"
"1488";"10";"121";"1";"9";"2";"2";"5";"1";"[1,2,3,7,10]";"1";"0";"1"
"1489";"33";"121";"1";"7";"4";"2";"5";"0";"[2,4,9,10]";"1";"0";"1"
"1490";"18";"121";"1";"2";"2";"2";"5";"0";"[1,5,6,7,8,9,10]";"2";"0";"1"
"1491";"37";"5";"1";"6";"1";"2";"5";"2";"[2,3,5,8]";"2";"0";"1"
"1492";"15";"121";"1";"6";"2";"2";"5";"2";"[2,3,5,8]";"0";"2";"1"
"1493";"14";"5";"1";"8";"1";"2";"5";"2";"[1,2,6]";"2";"0";"1"
"1494";"4";"121";"1";"6";"4";"2";"5";"2";"[2,3,5,8]";"2";"0";"1"
"1495";"1";"121";"1";"10";"2";"2";"5";"1";"[2,7,9]";"1";"0";"1"
"1496";"32";"121";"1";"6";"3";"2";"5";"0";"[2,3,5,8]";"2";"0";"1"
"1497";"6";"122";"1";"1";"3";"2";"5";"0";"[2,3,5,8,9]";"2";"0";"1"
"1498";"22";"6";"1";"3";"1";"2";"5";"2";"[1,4,6,9]";"2";"7";"1"
"1499";"37";"6";"1";"6";"1";"2";"5";"2";"[2,3,5,8]";"2";"0";"1"
"1500";"14";"6";"1";"8";"1";"2";"5";"2";"[1,2,6]";"2";"0";"1"
"1501";"15";"122";"1";"6";"2";"2";"5";"2";"[2,3,5,8]";"0";"3";"1"
"1502";"32";"122";"1";"6";"3";"2";"5";"0";"[2,3,5,8]";"2";"0";"1"
"1503";"19";"122";"1";"10";"4";"2";"5";"2";"[2,7,9]";"2";"0";"1"
"1504";"6";"123";"1";"1";"3";"2";"5";"0";"[2,3,5,8,9]";"2";"0";"1"
"1505";"22";"7";"1";"3";"1";"2";"5";"2";"[1,4,6,9]";"2";"7";"1"
"1506";"15";"123";"1";"6";"2";"2";"5";"2";"[2,3,5,8]";"0";"4";"1"
"1507";"26";"123";"1";"5";"3";"2";"5";"1";"[1,2,6]";"2";"0";"1"
"1508";"19";"123";"1";"10";"4";"2";"5";"2";"[2,7,9]";"2";"0";"1"
"1509";"9";"124";"1";"8";"3";"2";"5";"0";"[1,2,6]";"1";"0";"1"
"1510";"23";"124";"1";"9";"4";"2";"5";"2";"[1,2,3,7,10]";"2";"0";"1"
"1511";"15";"124";"1";"6";"2";"2";"5";"2";"[2,3,5,8]";"0";"6";"1"
"1512";"26";"124";"1";"5";"3";"2";"5";"1";"[1,2,6]";"2";"0";"1"
"1513";"9";"125";"1";"8";"3";"2";"5";"0";"[1,2,6]";"1";"0";"1"
"1514";"23";"125";"1";"9";"4";"2";"5";"2";"[1,2,3,7,10]";"2";"0";"1"
"1515";"2";"127";"1";"1";"4";"2";"5";"0";"[2,3,5,8,9]";"2";"0";"1"
"1516";"21";"128";"1";"4";"3";"2";"5";"1";"[3,7]";"1";"1";"1"
"1517";"34";"12";"1";"10";"1";"2";"5";"0";"[2,7,9]";"1";"0";"1"
"1518";"2";"128";"1";"1";"4";"2";"5";"0";"[2,3,5,8,9]";"2";"0";"1"
"1519";"15";"129";"1";"6";"2";"2";"5";"2";"[2,3,5,8]";"1";"6";"1"
