"id";"id_subj";"time";"session";"id_grp";"grp";"round";"period";"sig";"links";"choice";"hist";"active"
"1";"37";"0";"1";"36";"1";"1";"1";"1";"[21,38,39]";"0";"0";"1"
"2";"27";"0";"1";"20";"1";"1";"1";"2";"[8,27,38]";"0";"0";"1"
"3";"39";"0";"1";"13";"1";"1";"1";"2";"[1,3,9,21,23,37]";"0";"0";"1"
"4";"2";"0";"1";"15";"1";"1";"1";"2";"[6,21,24,29,30,31,32,34]";"0";"0";"1"
"5";"40";"0";"1";"8";"1";"1";"1";"2";"[6,20]";"0";"0";"1"
"6";"38";"0";"1";"11";"1";"1";"1";"1";"[16,18]";"0";"0";"1"
"7";"7";"0";"1";"37";"1";"1";"1";"1";"[9,10,13,29,30]";"0";"0";"1"
"8";"17";"0";"1";"35";"1";"1";"1";"1";"[14,26]";"0";"0";"1"
"9";"35";"0";"1";"29";"1";"1";"1";"1";"[9,10,15,24,32,34,37]";"0";"0";"1"
"10";"13";"0";"1";"27";"1";"1";"1";"1";"[16,18,20,25]";"0";"0";"1"
"11";"24";"0";"1";"5";"1";"1";"1";"1";"[12,22,32]";"0";"0";"1"
"12";"14";"0";"1";"30";"1";"1";"1";"2";"[6,15,19,24,31,34,37]";"0";"0";"1"
"13";"1";"0";"1";"2";"1";"1";"1";"1";"[4,38]";"0";"0";"1"
"14";"8";"0";"1";"18";"1";"1";"1";"1";"[3,11,16,27]";"0";"0";"1"
"15";"31";"0";"1";"22";"1";"1";"1";"2";"[5,12,32,34]";"0";"0";"1"
"16";"20";"0";"1";"3";"1";"1";"1";"2";"[1,9,10,13,16,18]";"0";"0";"1"
"17";"30";"0";"1";"38";"1";"1";"1";"1";"[2,4,20,36,39,40]";"0";"0";"1"
"18";"5";"0";"1";"25";"1";"1";"1";"1";"[27]";"0";"0";"1"
"19";"4";"0";"1";"9";"1";"1";"1";"1";"[1,3,10,13,29,37]";"0";"0";"1"
"20";"22";"0";"1";"26";"1";"1";"1";"1";"[14,35]";"0";"0";"1"
"21";"6";"0";"1";"16";"1";"1";"1";"1";"[3,11,18,27]";"0";"0";"1"
"22";"29";"0";"1";"31";"1";"1";"1";"2";"[15,19,24,30,34]";"0";"0";"1"
"23";"18";"0";"1";"12";"1";"1";"1";"1";"[5,22]";"0";"0";"1"
"24";"25";"0";"1";"24";"1";"1";"1";"1";"[6,15,29,30,31,32,34]";"0";"0";"1"
"25";"16";"0";"1";"6";"1";"1";"1";"1";"[8,15,24,30,34]";"0";"0";"1"
"26";"9";"0";"1";"7";"1";"1";"1";"1";"[28,40]";"0";"0";"1"
"27";"28";"0";"1";"32";"1";"1";"1";"1";"[5,15,19,22,24,29,34]";"0";"0";"1"
"28";"33";"0";"1";"39";"1";"1";"1";"2";"[21,36,38]";"0";"0";"1"
"29";"15";"0";"1";"1";"1";"1";"1";"1";"[3,9,13,23]";"0";"0";"1"
"30";"36";"0";"1";"14";"1";"1";"1";"1";"[26,35,40]";"0";"0";"1"
"31";"23";"0";"1";"17";"1";"1";"1";"1";"[19]";"0";"0";"1"
"32";"34";"0";"1";"21";"1";"1";"1";"1";"[13,15,23,36,39]";"0";"0";"1"
"33";"3";"0";"1";"34";"1";"1";"1";"1";"[6,15,22,24,29,30,31,32]";"0";"0";"1"
"34";"32";"0";"1";"23";"1";"1";"1";"1";"[1,13,21]";"0";"0";"1"
"35";"21";"0";"1";"33";"1";"1";"1";"1";"[4,28]";"0";"0";"1"
"36";"11";"0";"1";"4";"1";"1";"1";"2";"[2,33,38]";"0";"0";"1"
"37";"26";"0";"1";"19";"1";"1";"1";"2";"[17,30,31,32]";"0";"0";"1"
"38";"10";"0";"1";"40";"1";"1";"1";"2";"[7,14,38]";"0";"0";"1"
"39";"12";"0";"1";"28";"1";"1";"1";"1";"[7,33]";"0";"0";"1"
"40";"19";"0";"1";"10";"1";"1";"1";"1";"[3,9,29,37]";"0";"0";"1"
"41";"9";"5";"1";"7";"1";"1";"1";"1";"[28,40]";"1";"0";"1"
"42";"8";"5";"1";"18";"1";"1";"1";"1";"[3,11,16,27]";"1";"0";"1"
"43";"38";"5";"1";"11";"1";"1";"1";"1";"[16,18]";"2";"0";"1"
"44";"9";"6";"1";"7";"1";"1";"1";"1";"[28,40]";"1";"0";"1"
"45";"4";"6";"1";"9";"1";"1";"1";"1";"[1,3,10,13,29,37]";"1";"0";"1"
"46";"8";"6";"1";"18";"1";"1";"1";"1";"[3,11,16,27]";"1";"0";"1"
"47";"38";"6";"1";"11";"1";"1";"1";"1";"[16,18]";"2";"0";"1"
"48";"6";"7";"1";"16";"1";"1";"1";"1";"[3,11,18,27]";"1";"0";"1"
"49";"12";"7";"1";"28";"1";"1";"1";"1";"[7,33]";"1";"0";"1"
"50";"4";"7";"1";"9";"1";"1";"1";"1";"[1,3,10,13,29,37]";"1";"0";"1"
"51";"27";"7";"1";"20";"1";"1";"1";"2";"[8,27,38]";"2";"0";"1"
"52";"5";"7";"1";"25";"1";"1";"1";"1";"[27]";"1";"0";"1"
"53";"2";"7";"1";"15";"1";"1";"1";"2";"[6,21,24,29,30,31,32,34]";"2";"0";"1"
"54";"25";"7";"1";"24";"1";"1";"1";"1";"[6,15,29,30,31,32,34]";"1";"0";"1"
"55";"34";"7";"1";"21";"1";"1";"1";"1";"[13,15,23,36,39]";"1";"0";"1"
"56";"6";"8";"1";"16";"1";"1";"1";"1";"[3,11,18,27]";"1";"0";"1"
"57";"12";"8";"1";"28";"1";"1";"1";"1";"[7,33]";"1";"0";"1"
"58";"27";"8";"1";"20";"1";"1";"1";"2";"[8,27,38]";"2";"0";"1"
"59";"5";"8";"1";"25";"1";"1";"1";"1";"[27]";"1";"0";"1"
"60";"17";"8";"1";"35";"1";"1";"1";"1";"[14,26]";"1";"0";"1"
"61";"1";"8";"1";"2";"1";"1";"1";"1";"[4,38]";"1";"0";"1"
"62";"2";"8";"1";"15";"1";"1";"1";"2";"[6,21,24,29,30,31,32,34]";"2";"0";"1"
"63";"24";"8";"1";"5";"1";"1";"1";"1";"[12,22,32]";"1";"0";"1"
"64";"31";"8";"1";"22";"1";"1";"1";"2";"[5,12,32,34]";"2";"0";"1"
"65";"25";"8";"1";"24";"1";"1";"1";"1";"[6,15,29,30,31,32,34]";"1";"0";"1"
"66";"39";"8";"1";"13";"1";"1";"1";"2";"[1,3,9,21,23,37]";"2";"0";"1"
"67";"34";"8";"1";"21";"1";"1";"1";"1";"[13,15,23,36,39]";"1";"0";"1"
"68";"22";"8";"1";"26";"1";"1";"1";"1";"[14,35]";"2";"0";"1"
"69";"35";"9";"1";"29";"1";"1";"1";"1";"[9,10,15,24,32,34,37]";"1";"0";"1"
"70";"32";"9";"1";"23";"1";"1";"1";"1";"[1,13,21]";"1";"0";"1"
"71";"29";"9";"1";"31";"1";"1";"1";"2";"[15,19,24,30,34]";"2";"0";"1"
"72";"17";"9";"1";"35";"1";"1";"1";"1";"[14,26]";"1";"0";"1"
"73";"19";"9";"1";"10";"1";"1";"1";"1";"[3,9,29,37]";"1";"0";"1"
"74";"1";"9";"1";"2";"1";"1";"1";"1";"[4,38]";"1";"0";"1"
"75";"16";"9";"1";"6";"1";"1";"1";"1";"[8,15,24,30,34]";"1";"0";"1"
"76";"26";"9";"1";"19";"1";"1";"1";"2";"[17,30,31,32]";"1";"0";"1"
"77";"24";"9";"1";"5";"1";"1";"1";"1";"[12,22,32]";"1";"0";"1"
"78";"10";"9";"1";"40";"1";"1";"1";"2";"[7,14,38]";"2";"0";"1"
"79";"31";"9";"1";"22";"1";"1";"1";"2";"[5,12,32,34]";"2";"0";"1"
"80";"39";"9";"1";"13";"1";"1";"1";"2";"[1,3,9,21,23,37]";"2";"0";"1"
"81";"22";"9";"1";"26";"1";"1";"1";"1";"[14,35]";"2";"0";"1"
"82";"35";"10";"1";"29";"1";"1";"1";"1";"[9,10,15,24,32,34,37]";"1";"0";"1"
"83";"32";"10";"1";"23";"1";"1";"1";"1";"[1,13,21]";"1";"0";"1"
"84";"29";"10";"1";"31";"1";"1";"1";"2";"[15,19,24,30,34]";"2";"0";"1"
"85";"19";"10";"1";"10";"1";"1";"1";"1";"[3,9,29,37]";"1";"0";"1"
"86";"16";"10";"1";"6";"1";"1";"1";"1";"[8,15,24,30,34]";"1";"0";"1"
"87";"26";"10";"1";"19";"1";"1";"1";"2";"[17,30,31,32]";"1";"0";"1"
"88";"20";"10";"1";"3";"1";"1";"1";"2";"[1,9,10,13,16,18]";"2";"0";"1"
"89";"10";"10";"1";"40";"1";"1";"1";"2";"[7,14,38]";"2";"0";"1"
"90";"21";"11";"1";"33";"1";"1";"1";"1";"[4,28]";"1";"0";"1"
"91";"14";"11";"1";"30";"1";"1";"1";"2";"[6,15,19,24,31,34,37]";"1";"0";"1"
"92";"20";"11";"1";"3";"1";"1";"1";"2";"[1,9,10,13,16,18]";"2";"0";"1"
"93";"30";"12";"1";"38";"1";"1";"1";"1";"[2,4,20,36,39,40]";"1";"0";"1"
"94";"21";"12";"1";"33";"1";"1";"1";"1";"[4,28]";"1";"0";"1"
"95";"36";"12";"1";"14";"1";"1";"1";"1";"[26,35,40]";"1";"0";"1"
"96";"14";"12";"1";"30";"1";"1";"1";"2";"[6,15,19,24,31,34,37]";"1";"0";"1"
"97";"30";"13";"1";"38";"1";"1";"1";"1";"[2,4,20,36,39,40]";"1";"0";"1"
"98";"36";"13";"1";"14";"1";"1";"1";"1";"[26,35,40]";"1";"0";"1"
"99";"18";"13";"1";"12";"1";"1";"1";"1";"[5,22]";"1";"0";"1"
"100";"18";"14";"1";"12";"1";"1";"1";"1";"[5,22]";"1";"0";"1"
"101";"40";"15";"1";"8";"1";"1";"1";"2";"[6,20]";"2";"0";"1"
"102";"40";"16";"1";"8";"1";"1";"1";"2";"[6,20]";"2";"0";"1"
"103";"13";"16";"1";"27";"1";"1";"1";"1";"[16,18,20,25]";"1";"0";"1"
"104";"7";"16";"1";"37";"1";"1";"1";"1";"[9,10,13,29,30]";"1";"0";"1"
"105";"33";"16";"1";"39";"1";"1";"1";"2";"[21,36,38]";"2";"0";"1"
"106";"13";"17";"1";"27";"1";"1";"1";"1";"[16,18,20,25]";"1";"0";"1"
"107";"7";"17";"1";"37";"1";"1";"1";"1";"[9,10,13,29,30]";"1";"0";"1"
"108";"33";"17";"1";"39";"1";"1";"1";"2";"[21,36,38]";"2";"0";"1"
"109";"3";"19";"1";"34";"1";"1";"1";"1";"[6,15,22,24,29,30,31,32]";"2";"0";"1"
"110";"23";"19";"1";"17";"1";"1";"1";"1";"[19]";"1";"0";"1"
"111";"3";"20";"1";"34";"1";"1";"1";"1";"[6,15,22,24,29,30,31,32]";"2";"0";"1"
"112";"23";"20";"1";"17";"1";"1";"1";"1";"[19]";"1";"0";"1"
"113";"15";"20";"1";"1";"1";"1";"1";"1";"[3,9,13,23]";"1";"0";"1"
"114";"11";"21";"1";"4";"1";"1";"1";"2";"[2,33,38]";"1";"0";"1"
"115";"15";"21";"1";"1";"1";"1";"1";"1";"[3,9,13,23]";"1";"0";"1"
"116";"11";"22";"1";"4";"1";"1";"1";"2";"[2,33,38]";"1";"0";"1"
"117";"28";"25";"1";"32";"1";"1";"1";"1";"[5,15,19,22,24,29,34]";"1";"0";"1"
"118";"28";"26";"1";"32";"1";"1";"1";"1";"[5,15,19,22,24,29,34]";"1";"0";"1"
"119";"37";"27";"1";"36";"1";"1";"1";"1";"[21,38,39]";"1";"0";"1"
"120";"37";"28";"1";"36";"1";"1";"1";"1";"[21,38,39]";"1";"0";"1"
"121";"17";"3";"1";"35";"1";"1";"2";"1";"[14,26]";"1";"0";"1"
"122";"17";"4";"1";"35";"1";"1";"2";"1";"[14,26]";"1";"0";"1"
"123";"39";"4";"1";"13";"1";"1";"2";"2";"[1,3,9,21,23,37]";"1";"0";"1"
"124";"25";"5";"1";"24";"1";"1";"2";"1";"[6,15,29,30,31,32,34]";"1";"0";"1"
"125";"39";"5";"1";"13";"1";"1";"2";"2";"[1,3,9,21,23,37]";"1";"0";"1"
"126";"4";"6";"1";"9";"1";"1";"2";"1";"[1,3,10,13,29,37]";"1";"0";"1"
"127";"25";"6";"1";"24";"1";"1";"2";"1";"[6,15,29,30,31,32,34]";"1";"0";"1"
"128";"38";"7";"1";"11";"1";"1";"2";"1";"[16,18]";"2";"0";"1"
"129";"22";"7";"1";"26";"1";"1";"2";"1";"[14,35]";"1";"0";"1"
"130";"15";"7";"1";"1";"1";"1";"2";"1";"[3,9,13,23]";"1";"0";"1"
"131";"34";"7";"1";"21";"1";"1";"2";"1";"[13,15,23,36,39]";"0";"2";"1"
"132";"18";"7";"1";"12";"1";"1";"2";"1";"[5,22]";"1";"0";"1"
"133";"29";"7";"1";"31";"1";"1";"2";"2";"[15,19,24,30,34]";"2";"0";"1"
"134";"7";"7";"1";"37";"1";"1";"2";"1";"[9,10,13,29,30]";"1";"0";"1"
"135";"23";"7";"1";"17";"1";"1";"2";"1";"[19]";"0";"2";"1"
"136";"4";"7";"1";"9";"1";"1";"2";"1";"[1,3,10,13,29,37]";"1";"0";"1"
"137";"21";"7";"1";"33";"1";"1";"2";"1";"[4,28]";"1";"0";"1"
"138";"12";"7";"1";"28";"1";"1";"2";"1";"[7,33]";"1";"0";"1"
"139";"27";"7";"1";"20";"1";"1";"2";"2";"[8,27,38]";"2";"0";"1"
"140";"38";"8";"1";"11";"1";"1";"2";"1";"[16,18]";"2";"0";"1"
"141";"22";"8";"1";"26";"1";"1";"2";"1";"[14,35]";"1";"0";"1"
"142";"15";"8";"1";"1";"1";"1";"2";"1";"[3,9,13,23]";"1";"0";"1"
"143";"18";"8";"1";"12";"1";"1";"2";"1";"[5,22]";"1";"0";"1"
"144";"32";"8";"1";"23";"1";"1";"2";"1";"[1,13,21]";"1";"0";"1"
"145";"7";"8";"1";"37";"1";"1";"2";"1";"[9,10,13,29,30]";"1";"0";"1"
"146";"29";"8";"1";"31";"1";"1";"2";"2";"[15,19,24,30,34]";"2";"0";"1"
"147";"35";"8";"1";"29";"1";"1";"2";"1";"[9,10,15,24,32,34,37]";"1";"0";"1"
"148";"1";"8";"1";"2";"1";"1";"2";"1";"[4,38]";"1";"0";"1"
"149";"21";"8";"1";"33";"1";"1";"2";"1";"[4,28]";"1";"0";"1"
"150";"12";"8";"1";"28";"1";"1";"2";"1";"[7,33]";"1";"0";"1"
"151";"36";"8";"1";"14";"1";"1";"2";"1";"[26,35,40]";"0";"2";"1"
"152";"5";"8";"1";"25";"1";"1";"2";"1";"[27]";"1";"0";"1"
"153";"26";"8";"1";"19";"1";"1";"2";"2";"[17,30,31,32]";"1";"0";"1"
"154";"27";"8";"1";"20";"1";"1";"2";"2";"[8,27,38]";"2";"0";"1"
"155";"2";"9";"1";"15";"1";"1";"2";"2";"[6,21,24,29,30,31,32,34]";"1";"0";"1"
"156";"24";"9";"1";"5";"1";"1";"2";"1";"[12,22,32]";"1";"0";"1"
"157";"14";"9";"1";"30";"1";"1";"2";"2";"[6,15,19,24,31,34,37]";"1";"0";"1"
"158";"32";"9";"1";"23";"1";"1";"2";"1";"[1,13,21]";"1";"0";"1"
"159";"35";"9";"1";"29";"1";"1";"2";"1";"[9,10,15,24,32,34,37]";"1";"0";"1"
"160";"31";"9";"1";"22";"1";"1";"2";"2";"[5,12,32,34]";"1";"0";"1"
"161";"1";"9";"1";"2";"1";"1";"2";"1";"[4,38]";"1";"0";"1"
"162";"5";"9";"1";"25";"1";"1";"2";"1";"[27]";"1";"0";"1"
"163";"8";"9";"1";"18";"1";"1";"2";"1";"[3,11,16,27]";"1";"0";"1"
"164";"26";"9";"1";"19";"1";"1";"2";"2";"[17,30,31,32]";"1";"0";"1"
"165";"2";"10";"1";"15";"1";"1";"2";"2";"[6,21,24,29,30,31,32,34]";"1";"0";"1"
"166";"24";"10";"1";"5";"1";"1";"2";"1";"[12,22,32]";"1";"0";"1"
"167";"40";"10";"1";"8";"1";"1";"2";"2";"[6,20]";"2";"0";"1"
"168";"14";"10";"1";"30";"1";"1";"2";"2";"[6,15,19,24,31,34,37]";"1";"0";"1"
"169";"31";"10";"1";"22";"1";"1";"2";"2";"[5,12,32,34]";"1";"0";"1"
"170";"19";"10";"1";"10";"1";"1";"2";"1";"[3,9,29,37]";"1";"0";"1"
"171";"8";"11";"1";"18";"1";"1";"2";"1";"[3,11,16,27]";"1";"0";"1"
"172";"40";"11";"1";"8";"1";"1";"2";"2";"[6,20]";"2";"0";"1"
"173";"6";"11";"1";"16";"1";"1";"2";"1";"[3,11,18,27]";"1";"0";"1"
"174";"19";"11";"1";"10";"1";"1";"2";"1";"[3,9,29,37]";"1";"0";"1"
"175";"34";"11";"1";"21";"1";"1";"2";"1";"[13,15,23,36,39]";"1";"2";"1"
"176";"9";"12";"1";"7";"1";"1";"2";"1";"[28,40]";"2";"0";"1"
"177";"25";"12";"1";"24";"1";"1";"2";"1";"[6,15,29,30,31,32,34]";"1";"3";"1"
"178";"30";"12";"1";"38";"1";"1";"2";"1";"[2,4,20,36,39,40]";"1";"0";"1"
"179";"6";"12";"1";"16";"1";"1";"2";"1";"[3,11,18,27]";"1";"0";"1"
"180";"34";"12";"1";"21";"1";"1";"2";"1";"[13,15,23,36,39]";"1";"2";"1"
"181";"9";"13";"1";"7";"1";"1";"2";"1";"[28,40]";"2";"0";"1"
"182";"30";"13";"1";"38";"1";"1";"2";"1";"[2,4,20,36,39,40]";"1";"0";"1"
"183";"10";"14";"1";"40";"1";"1";"2";"2";"[7,14,38]";"1";"0";"1"
"184";"10";"15";"1";"40";"1";"1";"2";"2";"[7,14,38]";"1";"0";"1"
"185";"16";"15";"1";"6";"1";"1";"2";"1";"[8,15,24,30,34]";"1";"0";"1"
"186";"3";"15";"1";"34";"1";"1";"2";"1";"[6,15,22,24,29,30,31,32]";"1";"0";"1"
"187";"36";"15";"1";"14";"1";"1";"2";"1";"[26,35,40]";"1";"2";"1"
"188";"33";"16";"1";"39";"1";"1";"2";"2";"[21,36,38]";"2";"0";"1"
"189";"16";"16";"1";"6";"1";"1";"2";"1";"[8,15,24,30,34]";"1";"0";"1"
"190";"3";"16";"1";"34";"1";"1";"2";"1";"[6,15,22,24,29,30,31,32]";"1";"0";"1"
"191";"36";"16";"1";"14";"1";"1";"2";"1";"[26,35,40]";"1";"2";"1"
"192";"33";"17";"1";"39";"1";"1";"2";"2";"[21,36,38]";"2";"0";"1"
"193";"13";"17";"1";"27";"1";"1";"2";"1";"[16,18,20,25]";"2";"0";"1"
"194";"20";"18";"1";"3";"1";"1";"2";"2";"[1,9,10,13,16,18]";"1";"0";"1"
"195";"37";"18";"1";"36";"1";"1";"2";"1";"[21,38,39]";"1";"0";"1"
"196";"13";"18";"1";"27";"1";"1";"2";"1";"[16,18,20,25]";"2";"0";"1"
"197";"20";"19";"1";"3";"1";"1";"2";"2";"[1,9,10,13,16,18]";"1";"0";"1"
"198";"37";"19";"1";"36";"1";"1";"2";"1";"[21,38,39]";"1";"0";"1"
"199";"23";"19";"1";"17";"1";"1";"2";"1";"[19]";"1";"2";"1"
"200";"23";"20";"1";"17";"1";"1";"2";"1";"[19]";"1";"2";"1"
"201";"11";"23";"1";"4";"1";"1";"2";"2";"[2,33,38]";"1";"0";"1"
"202";"28";"23";"1";"32";"1";"1";"2";"1";"[5,15,19,22,24,29,34]";"1";"0";"1"
"203";"11";"24";"1";"4";"1";"1";"2";"2";"[2,33,38]";"1";"0";"1"
"204";"28";"24";"1";"32";"1";"1";"2";"1";"[5,15,19,22,24,29,34]";"1";"0";"1"
"205";"17";"1";"1";"35";"1";"1";"3";"1";"[14,26]";"1";"0";"1"
"206";"17";"2";"1";"35";"1";"1";"3";"1";"[14,26]";"1";"0";"1"
"207";"22";"3";"1";"26";"1";"1";"3";"1";"[14,35]";"1";"0";"1"
"208";"15";"3";"1";"1";"1";"1";"3";"1";"[3,9,13,23]";"1";"0";"1"
"209";"18";"3";"1";"12";"1";"1";"3";"1";"[5,22]";"1";"0";"1"
"210";"4";"3";"1";"9";"1";"1";"3";"1";"[1,3,10,13,29,37]";"1";"0";"1"
"211";"25";"3";"1";"24";"1";"1";"3";"1";"[6,15,29,30,31,32,34]";"1";"0";"1"
"212";"7";"3";"1";"37";"1";"1";"3";"1";"[9,10,13,29,30]";"1";"0";"1"
"213";"27";"3";"1";"20";"1";"1";"3";"2";"[8,27,38]";"2";"0";"1"
"214";"22";"4";"1";"26";"1";"1";"3";"1";"[14,35]";"1";"0";"1"
"215";"15";"4";"1";"1";"1";"1";"3";"1";"[3,9,13,23]";"1";"0";"1"
"216";"38";"4";"1";"11";"1";"1";"3";"1";"[16,18]";"2";"0";"1"
"217";"18";"4";"1";"12";"1";"1";"3";"1";"[5,22]";"1";"0";"1"
"218";"4";"4";"1";"9";"1";"1";"3";"1";"[1,3,10,13,29,37]";"1";"0";"1"
"219";"30";"4";"1";"38";"1";"1";"3";"1";"[2,4,20,36,39,40]";"1";"0";"1"
"220";"29";"4";"1";"31";"1";"1";"3";"2";"[15,19,24,30,34]";"1";"0";"1"
"221";"25";"4";"1";"24";"1";"1";"3";"1";"[6,15,29,30,31,32,34]";"1";"0";"1"
"222";"14";"4";"1";"30";"1";"1";"3";"2";"[6,15,19,24,31,34,37]";"1";"0";"1"
"223";"7";"4";"1";"37";"1";"1";"3";"1";"[9,10,13,29,30]";"1";"0";"1"
"224";"27";"4";"1";"20";"1";"1";"3";"2";"[8,27,38]";"2";"0";"1"
"225";"35";"5";"1";"29";"1";"1";"3";"1";"[9,10,15,24,32,34,37]";"2";"0";"1"
"226";"38";"5";"1";"11";"1";"1";"3";"1";"[16,18]";"2";"0";"1"
"227";"31";"5";"1";"22";"1";"1";"3";"2";"[5,12,32,34]";"1";"0";"1"
"228";"30";"5";"1";"38";"1";"1";"3";"1";"[2,4,20,36,39,40]";"1";"0";"1"
"229";"11";"5";"1";"4";"1";"1";"3";"2";"[2,33,38]";"2";"0";"1"
"230";"29";"5";"1";"31";"1";"1";"3";"2";"[15,19,24,30,34]";"1";"0";"1"
"231";"14";"5";"1";"30";"1";"1";"3";"2";"[6,15,19,24,31,34,37]";"1";"0";"1"
"232";"20";"5";"1";"3";"1";"1";"3";"2";"[1,9,10,13,16,18]";"1";"0";"1"
"233";"6";"6";"1";"16";"1";"1";"3";"1";"[3,11,18,27]";"1";"0";"1"
"234";"35";"6";"1";"29";"1";"1";"3";"1";"[9,10,15,24,32,34,37]";"2";"0";"1"
"235";"32";"6";"1";"23";"1";"1";"3";"1";"[1,13,21]";"1";"0";"1"
"236";"24";"6";"1";"5";"1";"1";"3";"1";"[12,22,32]";"1";"0";"1"
"237";"31";"6";"1";"22";"1";"1";"3";"2";"[5,12,32,34]";"1";"0";"1"
"238";"9";"6";"1";"7";"1";"1";"3";"1";"[28,40]";"0";"1";"1"
"239";"11";"6";"1";"4";"1";"1";"3";"2";"[2,33,38]";"2";"0";"1"
"240";"26";"6";"1";"19";"1";"1";"3";"2";"[17,30,31,32]";"1";"0";"1"
"241";"20";"7";"1";"3";"1";"1";"3";"2";"[1,9,10,13,16,18]";"1";"0";"1"
"242";"5";"7";"1";"25";"1";"1";"3";"1";"[27]";"1";"0";"1"
"243";"1";"7";"1";"2";"1";"1";"3";"1";"[4,38]";"0";"1";"1"
"244";"6";"7";"1";"16";"1";"1";"3";"1";"[3,11,18,27]";"1";"0";"1"
"245";"2";"7";"1";"15";"1";"1";"3";"2";"[6,21,24,29,30,31,32,34]";"1";"0";"1"
"246";"32";"7";"1";"23";"1";"1";"3";"1";"[1,13,21]";"1";"0";"1"
"247";"24";"7";"1";"5";"1";"1";"3";"1";"[12,22,32]";"1";"0";"1"
"248";"19";"7";"1";"10";"1";"1";"3";"1";"[3,9,29,37]";"1";"0";"1"
"249";"23";"7";"1";"17";"1";"1";"3";"1";"[19]";"1";"0";"1"
"250";"26";"7";"1";"19";"1";"1";"3";"2";"[17,30,31,32]";"1";"0";"1"
"251";"5";"8";"1";"25";"1";"1";"3";"1";"[27]";"1";"0";"1"
"252";"2";"8";"1";"15";"1";"1";"3";"2";"[6,21,24,29,30,31,32,34]";"1";"0";"1"
"253";"19";"8";"1";"10";"1";"1";"3";"1";"[3,9,29,37]";"1";"0";"1"
"254";"16";"8";"1";"6";"1";"1";"3";"1";"[8,15,24,30,34]";"1";"0";"1"
"255";"23";"8";"1";"17";"1";"1";"3";"1";"[19]";"1";"0";"1"
"256";"9";"8";"1";"7";"1";"1";"3";"1";"[28,40]";"0";"2";"1"
"257";"39";"9";"1";"13";"1";"1";"3";"2";"[1,3,9,21,23,37]";"1";"0";"1"
"258";"34";"9";"1";"21";"1";"1";"3";"1";"[13,15,23,36,39]";"1";"0";"1"
"259";"16";"9";"1";"6";"1";"1";"3";"1";"[8,15,24,30,34]";"1";"0";"1"
"260";"9";"9";"1";"7";"1";"1";"3";"1";"[28,40]";"1";"2";"1"
"261";"39";"10";"1";"13";"1";"1";"3";"2";"[1,3,9,21,23,37]";"1";"0";"1"
"262";"1";"10";"1";"2";"1";"1";"3";"1";"[4,38]";"0";"2";"1"
"263";"8";"10";"1";"18";"1";"1";"3";"1";"[3,11,16,27]";"1";"0";"1"
"264";"36";"10";"1";"14";"1";"1";"3";"1";"[26,35,40]";"2";"0";"1"
"265";"34";"10";"1";"21";"1";"1";"3";"1";"[13,15,23,36,39]";"1";"0";"1"
"266";"40";"10";"1";"8";"1";"1";"3";"2";"[6,20]";"2";"0";"1"
"267";"9";"10";"1";"7";"1";"1";"3";"1";"[28,40]";"1";"2";"1"
"268";"13";"11";"1";"27";"1";"1";"3";"1";"[16,18,20,25]";"2";"0";"1"
"269";"8";"11";"1";"18";"1";"1";"3";"1";"[3,11,16,27]";"1";"0";"1"
"270";"36";"11";"1";"14";"1";"1";"3";"1";"[26,35,40]";"2";"0";"1"
"271";"40";"11";"1";"8";"1";"1";"3";"2";"[6,20]";"2";"0";"1"
"272";"13";"12";"1";"27";"1";"1";"3";"1";"[16,18,20,25]";"2";"0";"1"
"273";"1";"12";"1";"2";"1";"1";"3";"1";"[4,38]";"1";"2";"1"
"274";"1";"13";"1";"2";"1";"1";"3";"1";"[4,38]";"1";"2";"1"
"275";"37";"14";"1";"36";"1";"1";"3";"1";"[21,38,39]";"1";"0";"1"
"276";"21";"15";"1";"33";"1";"1";"3";"1";"[4,28]";"1";"0";"1"
"277";"37";"15";"1";"36";"1";"1";"3";"1";"[21,38,39]";"1";"0";"1"
"278";"25";"16";"1";"24";"1";"1";"3";"1";"[6,15,29,30,31,32,34]";"1";"1";"1"
"279";"28";"16";"1";"32";"1";"1";"3";"1";"[5,15,19,22,24,29,34]";"1";"0";"1"
"280";"21";"16";"1";"33";"1";"1";"3";"1";"[4,28]";"1";"0";"1"
"281";"28";"17";"1";"32";"1";"1";"3";"1";"[5,15,19,22,24,29,34]";"1";"0";"1"
"282";"3";"17";"1";"34";"1";"1";"3";"1";"[6,15,22,24,29,30,31,32]";"1";"0";"1"
"283";"25";"17";"1";"24";"1";"1";"3";"1";"[6,15,29,30,31,32,34]";"1";"3";"1"
"284";"33";"18";"1";"39";"1";"1";"3";"2";"[21,36,38]";"2";"0";"1"
"285";"3";"18";"1";"34";"1";"1";"3";"1";"[6,15,22,24,29,30,31,32]";"1";"0";"1"
"286";"6";"19";"1";"16";"1";"1";"3";"1";"[3,11,18,27]";"1";"1";"1"
"287";"33";"19";"1";"39";"1";"1";"3";"2";"[21,36,38]";"2";"0";"1"
"288";"10";"20";"1";"40";"1";"1";"3";"2";"[7,14,38]";"1";"0";"1"
"289";"6";"20";"1";"16";"1";"1";"3";"1";"[3,11,18,27]";"1";"2";"1"
"290";"10";"21";"1";"40";"1";"1";"3";"2";"[7,14,38]";"1";"0";"1"
"291";"6";"21";"1";"16";"1";"1";"3";"1";"[3,11,18,27]";"1";"1";"1"
"292";"6";"22";"1";"16";"1";"1";"3";"1";"[3,11,18,27]";"1";"2";"1"
"293";"6";"23";"1";"16";"1";"1";"3";"1";"[3,11,18,27]";"1";"1";"1"
"294";"12";"24";"1";"28";"1";"1";"3";"1";"[7,33]";"1";"0";"1"
"295";"18";"24";"1";"12";"1";"1";"3";"1";"[5,22]";"1";"1";"1"
"296";"6";"24";"1";"16";"1";"1";"3";"1";"[3,11,18,27]";"1";"2";"1"
"297";"12";"25";"1";"28";"1";"1";"3";"1";"[7,33]";"1";"0";"1"
"298";"38";"2";"1";"11";"1";"1";"4";"1";"[16,18]";"1";"0";"1"
"299";"18";"3";"1";"12";"1";"1";"4";"1";"[5,22]";"0";"2";"1"
"300";"38";"3";"1";"11";"1";"1";"4";"1";"[16,18]";"1";"0";"1"
"301";"7";"4";"1";"37";"1";"1";"4";"1";"[9,10,13,29,30]";"1";"0";"1"
"302";"14";"4";"1";"30";"1";"1";"4";"2";"[6,15,19,24,31,34,37]";"1";"0";"1"
"303";"35";"5";"1";"29";"1";"1";"4";"1";"[9,10,15,24,32,34,37]";"1";"0";"1"
"304";"22";"5";"1";"26";"1";"1";"4";"1";"[14,35]";"1";"0";"1"
"305";"25";"5";"1";"24";"1";"1";"4";"1";"[6,15,29,30,31,32,34]";"1";"0";"1"
"306";"7";"5";"1";"37";"1";"1";"4";"1";"[9,10,13,29,30]";"1";"0";"1"
"307";"14";"5";"1";"30";"1";"1";"4";"2";"[6,15,19,24,31,34,37]";"1";"0";"1"
"308";"10";"5";"1";"40";"1";"1";"4";"2";"[7,14,38]";"0";"2";"1"
"309";"20";"6";"1";"3";"1";"1";"4";"2";"[1,9,10,13,16,18]";"1";"0";"1"
"310";"18";"6";"1";"12";"1";"1";"4";"1";"[5,22]";"0";"1";"1"
"311";"35";"6";"1";"29";"1";"1";"4";"1";"[9,10,15,24,32,34,37]";"1";"0";"1"
"312";"22";"6";"1";"26";"1";"1";"4";"1";"[14,35]";"1";"0";"1"
"313";"25";"6";"1";"24";"1";"1";"4";"1";"[6,15,29,30,31,32,34]";"1";"0";"1"
"314";"27";"6";"1";"20";"1";"1";"4";"2";"[8,27,38]";"2";"0";"1"
"315";"6";"6";"1";"16";"1";"1";"4";"1";"[3,11,18,27]";"1";"0";"1"
"316";"16";"6";"1";"6";"1";"1";"4";"1";"[8,15,24,30,34]";"0";"2";"1"
"317";"4";"6";"1";"9";"1";"1";"4";"1";"[1,3,10,13,29,37]";"1";"0";"1"
"318";"20";"7";"1";"3";"1";"1";"4";"2";"[1,9,10,13,16,18]";"1";"0";"1"
"319";"9";"7";"1";"7";"1";"1";"4";"1";"[28,40]";"1";"0";"1"
"320";"27";"7";"1";"20";"1";"1";"4";"2";"[8,27,38]";"2";"0";"1"
"321";"6";"7";"1";"16";"1";"1";"4";"1";"[3,11,18,27]";"1";"0";"1"
"322";"17";"7";"1";"35";"1";"1";"4";"1";"[14,26]";"1";"0";"1"
"323";"10";"7";"1";"40";"1";"1";"4";"2";"[7,14,38]";"0";"3";"1"
"324";"4";"7";"1";"9";"1";"1";"4";"1";"[1,3,10,13,29,37]";"1";"0";"1"
"325";"2";"7";"1";"15";"1";"1";"4";"2";"[6,21,24,29,30,31,32,34]";"1";"0";"1"
"326";"39";"7";"1";"13";"1";"1";"4";"2";"[1,3,9,21,23,37]";"2";"0";"1"
"327";"29";"8";"1";"31";"1";"1";"4";"2";"[15,19,24,30,34]";"1";"0";"1"
"328";"18";"8";"1";"12";"1";"1";"4";"1";"[5,22]";"0";"2";"1"
"329";"9";"8";"1";"7";"1";"1";"4";"1";"[28,40]";"1";"0";"1"
"330";"16";"8";"1";"6";"1";"1";"4";"1";"[8,15,24,30,34]";"0";"1";"1"
"331";"6";"8";"1";"16";"1";"1";"4";"1";"[3,11,18,27]";"1";"4";"1"
"332";"17";"8";"1";"35";"1";"1";"4";"1";"[14,26]";"1";"0";"1"
"333";"12";"8";"1";"28";"1";"1";"4";"1";"[7,33]";"1";"0";"1"
"334";"15";"8";"1";"1";"1";"1";"4";"1";"[3,9,13,23]";"1";"0";"1"
"335";"34";"8";"1";"21";"1";"1";"4";"1";"[13,15,23,36,39]";"1";"0";"1"
"336";"2";"8";"1";"15";"1";"1";"4";"2";"[6,21,24,29,30,31,32,34]";"1";"0";"1"
"337";"11";"8";"1";"4";"1";"1";"4";"2";"[2,33,38]";"1";"0";"1"
"338";"39";"8";"1";"13";"1";"1";"4";"2";"[1,3,9,21,23,37]";"2";"0";"1"
"339";"29";"9";"1";"31";"1";"1";"4";"2";"[15,19,24,30,34]";"1";"0";"1"
"340";"32";"9";"1";"23";"1";"1";"4";"1";"[1,13,21]";"1";"0";"1"
"341";"6";"9";"1";"16";"1";"1";"4";"1";"[3,11,18,27]";"1";"4";"1"
"342";"40";"9";"1";"8";"1";"1";"4";"2";"[6,20]";"2";"0";"1"
"343";"12";"9";"1";"28";"1";"1";"4";"1";"[7,33]";"1";"0";"1"
"344";"15";"9";"1";"1";"1";"1";"4";"1";"[3,9,13,23]";"1";"0";"1"
"345";"34";"9";"1";"21";"1";"1";"4";"1";"[13,15,23,36,39]";"1";"0";"1"
"346";"18";"9";"1";"12";"1";"1";"4";"1";"[5,22]";"1";"2";"1"
"347";"13";"9";"1";"27";"1";"1";"4";"1";"[16,18,20,25]";"1";"0";"1"
"348";"16";"9";"1";"6";"1";"1";"4";"1";"[8,15,24,30,34]";"0";"2";"1"
"349";"11";"9";"1";"4";"1";"1";"4";"2";"[2,33,38]";"1";"0";"1"
"350";"26";"10";"1";"19";"1";"1";"4";"2";"[17,30,31,32]";"2";"0";"1"
"351";"19";"10";"1";"10";"1";"1";"4";"1";"[3,9,29,37]";"1";"0";"1"
"352";"31";"10";"1";"22";"1";"1";"4";"2";"[5,12,32,34]";"1";"0";"1"
"353";"32";"10";"1";"23";"1";"1";"4";"1";"[1,13,21]";"1";"0";"1"
"354";"40";"10";"1";"8";"1";"1";"4";"2";"[6,20]";"2";"0";"1"
"355";"1";"10";"1";"2";"1";"1";"4";"1";"[4,38]";"1";"0";"1"
"356";"15";"10";"1";"1";"1";"1";"4";"1";"[3,9,13,23]";"1";"2";"1"
"357";"18";"10";"1";"12";"1";"1";"4";"1";"[5,22]";"1";"2";"1"
"358";"13";"10";"1";"27";"1";"1";"4";"1";"[16,18,20,25]";"1";"0";"1"
"359";"26";"11";"1";"19";"1";"1";"4";"2";"[17,30,31,32]";"2";"0";"1"
"360";"19";"11";"1";"10";"1";"1";"4";"1";"[3,9,29,37]";"1";"0";"1"
"361";"31";"11";"1";"22";"1";"1";"4";"2";"[5,12,32,34]";"1";"0";"1"
"362";"16";"11";"1";"6";"1";"1";"4";"1";"[8,15,24,30,34]";"0";"3";"1"
"363";"30";"11";"1";"38";"1";"1";"4";"1";"[2,4,20,36,39,40]";"1";"0";"1"
"364";"1";"11";"1";"2";"1";"1";"4";"1";"[4,38]";"1";"0";"1"
"365";"15";"11";"1";"1";"1";"1";"4";"1";"[3,9,13,23]";"1";"1";"1"
"366";"16";"12";"1";"6";"1";"1";"4";"1";"[8,15,24,30,34]";"0";"4";"1"
"367";"6";"12";"1";"16";"1";"1";"4";"1";"[3,11,18,27]";"1";"2";"1"
"368";"15";"12";"1";"1";"1";"1";"4";"1";"[3,9,13,23]";"1";"2";"1"
"369";"30";"12";"1";"38";"1";"1";"4";"1";"[2,4,20,36,39,40]";"1";"0";"1"
"370";"6";"12";"1";"16";"1";"1";"4";"1";"[3,11,18,27]";"1";"3";"1"
"371";"16";"12";"1";"6";"1";"1";"4";"1";"[8,15,24,30,34]";"0";"6";"1"
"372";"15";"13";"1";"1";"1";"1";"4";"1";"[3,9,13,23]";"1";"3";"1"
"373";"8";"13";"1";"18";"1";"1";"4";"1";"[3,11,16,27]";"1";"0";"1"
"374";"36";"13";"1";"14";"1";"1";"4";"1";"[26,35,40]";"2";"0";"1"
"375";"24";"14";"1";"5";"1";"1";"4";"1";"[12,22,32]";"1";"0";"1"
"376";"10";"14";"1";"40";"1";"1";"4";"2";"[7,14,38]";"1";"3";"1"
"377";"8";"14";"1";"18";"1";"1";"4";"1";"[3,11,16,27]";"1";"0";"1"
"378";"5";"14";"1";"25";"1";"1";"4";"1";"[27]";"1";"0";"1"
"379";"15";"14";"1";"1";"1";"1";"4";"1";"[3,9,13,23]";"1";"4";"1"
"380";"36";"14";"1";"14";"1";"1";"4";"1";"[26,35,40]";"2";"0";"1"
"381";"23";"14";"1";"17";"1";"1";"4";"1";"[19]";"1";"0";"1"
"382";"16";"14";"1";"6";"1";"1";"4";"1";"[8,15,24,30,34]";"1";"6";"1"
"383";"21";"15";"1";"33";"1";"1";"4";"1";"[4,28]";"1";"0";"1"
"384";"24";"15";"1";"5";"1";"1";"4";"1";"[12,22,32]";"1";"0";"1"
"385";"10";"15";"1";"40";"1";"1";"4";"2";"[7,14,38]";"1";"3";"1"
"386";"5";"15";"1";"25";"1";"1";"4";"1";"[27]";"1";"0";"1"
"387";"3";"15";"1";"34";"1";"1";"4";"1";"[6,15,22,24,29,30,31,32]";"1";"0";"1"
"388";"23";"15";"1";"17";"1";"1";"4";"1";"[19]";"1";"0";"1"
"389";"28";"15";"1";"32";"1";"1";"4";"1";"[5,15,19,22,24,29,34]";"1";"0";"1"
"390";"16";"15";"1";"6";"1";"1";"4";"1";"[8,15,24,30,34]";"1";"6";"1"
"391";"6";"16";"1";"16";"1";"1";"4";"1";"[3,11,18,27]";"1";"4";"1"
"392";"21";"16";"1";"33";"1";"1";"4";"1";"[4,28]";"1";"0";"1"
"393";"3";"16";"1";"34";"1";"1";"4";"1";"[6,15,22,24,29,30,31,32]";"1";"0";"1"
"394";"28";"16";"1";"32";"1";"1";"4";"1";"[5,15,19,22,24,29,34]";"1";"0";"1"
"395";"25";"18";"1";"24";"1";"1";"4";"1";"[6,15,29,30,31,32,34]";"1";"1";"1"
"396";"33";"18";"1";"39";"1";"1";"4";"2";"[21,36,38]";"2";"0";"1"
"397";"37";"19";"1";"36";"1";"1";"4";"1";"[21,38,39]";"1";"0";"1"
"398";"33";"19";"1";"39";"1";"1";"4";"2";"[21,36,38]";"2";"0";"1"
"399";"37";"20";"1";"36";"1";"1";"4";"1";"[21,38,39]";"1";"0";"1"
"400";"25";"0";"1";"24";"1";"1";"5";"1";"[6,15,29,30,31,32,34]";"0";"2";"1"
"401";"17";"1";"1";"35";"1";"1";"5";"1";"[14,26]";"1";"0";"1"
"402";"25";"2";"1";"24";"1";"1";"5";"1";"[6,15,29,30,31,32,34]";"0";"4";"1"
"403";"30";"2";"1";"38";"1";"1";"5";"1";"[2,4,20,36,39,40]";"1";"0";"1"
"404";"22";"2";"1";"26";"1";"1";"5";"1";"[14,35]";"1";"0";"1"
"405";"38";"2";"1";"11";"1";"1";"5";"1";"[16,18]";"2";"0";"1"
"406";"17";"2";"1";"35";"1";"1";"5";"1";"[14,26]";"1";"0";"1"
"407";"35";"3";"1";"29";"1";"1";"5";"1";"[9,10,15,24,32,34,37]";"1";"0";"1"
"408";"15";"3";"1";"1";"1";"1";"5";"1";"[3,9,13,23]";"1";"0";"1"
"409";"7";"3";"1";"37";"1";"1";"5";"1";"[9,10,13,29,30]";"1";"0";"1"
"410";"30";"3";"1";"38";"1";"1";"5";"1";"[2,4,20,36,39,40]";"1";"0";"1"
"411";"5";"3";"1";"25";"1";"1";"5";"1";"[27]";"1";"0";"1"
"412";"22";"3";"1";"26";"1";"1";"5";"1";"[14,35]";"1";"0";"1"
"413";"10";"3";"1";"40";"1";"1";"5";"2";"[7,14,38]";"0";"3";"1"
"414";"25";"3";"1";"24";"1";"1";"5";"1";"[6,15,29,30,31,32,34]";"1";"4";"1"
"415";"38";"3";"1";"11";"1";"1";"5";"1";"[16,18]";"2";"0";"1"
"416";"35";"4";"1";"29";"1";"1";"5";"1";"[9,10,15,24,32,34,37]";"1";"0";"1"
"417";"2";"4";"1";"15";"1";"1";"5";"2";"[6,21,24,29,30,31,32,34]";"1";"0";"1"
"418";"15";"4";"1";"1";"1";"1";"5";"1";"[3,9,13,23]";"1";"0";"1"
"419";"7";"4";"1";"37";"1";"1";"5";"1";"[9,10,13,29,30]";"1";"0";"1"
"420";"5";"4";"1";"25";"1";"1";"5";"1";"[27]";"1";"0";"1"
"421";"13";"4";"1";"27";"1";"1";"5";"1";"[16,18,20,25]";"1";"0";"1"
"422";"25";"4";"1";"24";"1";"1";"5";"1";"[6,15,29,30,31,32,34]";"1";"4";"1"
"423";"10";"4";"1";"40";"1";"1";"5";"2";"[7,14,38]";"0";"4";"1"
"424";"16";"5";"1";"6";"1";"1";"5";"1";"[8,15,24,30,34]";"1";"0";"1"
"425";"18";"5";"1";"12";"1";"1";"5";"1";"[5,22]";"1";"0";"1"
"426";"9";"5";"1";"7";"1";"1";"5";"1";"[28,40]";"2";"0";"1"
"427";"2";"5";"1";"15";"1";"1";"5";"2";"[6,21,24,29,30,31,32,34]";"1";"0";"1"
"428";"6";"5";"1";"16";"1";"1";"5";"1";"[3,11,18,27]";"1";"0";"1"
"429";"1";"5";"1";"2";"1";"1";"5";"1";"[4,38]";"0";"3";"1"
"430";"13";"5";"1";"27";"1";"1";"5";"1";"[16,18,20,25]";"1";"0";"1"
"431";"19";"5";"1";"10";"1";"1";"5";"1";"[3,9,29,37]";"1";"0";"1"
"432";"16";"6";"1";"6";"1";"1";"5";"1";"[8,15,24,30,34]";"1";"0";"1"
"433";"18";"6";"1";"12";"1";"1";"5";"1";"[5,22]";"1";"0";"1"
"434";"9";"6";"1";"7";"1";"1";"5";"1";"[28,40]";"2";"0";"1"
"435";"6";"6";"1";"16";"1";"1";"5";"1";"[3,11,18,27]";"1";"0";"1"
"436";"31";"6";"1";"22";"1";"1";"5";"2";"[5,12,32,34]";"1";"0";"1"
"437";"40";"6";"1";"8";"1";"1";"5";"2";"[6,20]";"2";"0";"1"
"438";"33";"6";"1";"39";"1";"1";"5";"2";"[21,36,38]";"2";"0";"1"
"439";"24";"6";"1";"5";"1";"1";"5";"1";"[12,22,32]";"1";"0";"1"
"440";"19";"6";"1";"10";"1";"1";"5";"1";"[3,9,29,37]";"1";"0";"1"
"441";"11";"6";"1";"4";"1";"1";"5";"2";"[2,33,38]";"1";"0";"1"
"442";"10";"7";"1";"40";"1";"1";"5";"2";"[7,14,38]";"1";"4";"1"
"443";"31";"7";"1";"22";"1";"1";"5";"2";"[5,12,32,34]";"1";"0";"1"
"444";"40";"7";"1";"8";"1";"1";"5";"2";"[6,20]";"2";"0";"1"
"445";"4";"7";"1";"9";"1";"1";"5";"1";"[1,3,10,13,29,37]";"0";"3";"1"
"446";"33";"7";"1";"39";"1";"1";"5";"2";"[21,36,38]";"2";"0";"1"
"447";"29";"7";"1";"31";"1";"1";"5";"2";"[15,19,24,30,34]";"2";"0";"1"
"448";"24";"7";"1";"5";"1";"1";"5";"1";"[12,22,32]";"1";"0";"1"
"449";"11";"7";"1";"4";"1";"1";"5";"2";"[2,33,38]";"1";"0";"1"
"450";"21";"8";"1";"33";"1";"1";"5";"1";"[4,28]";"1";"0";"1"
"451";"10";"8";"1";"40";"1";"1";"5";"2";"[7,14,38]";"1";"4";"1"
"452";"1";"8";"1";"2";"1";"1";"5";"1";"[4,38]";"0";"4";"1"
"453";"39";"8";"1";"13";"1";"1";"5";"2";"[1,3,9,21,23,37]";"2";"0";"1"
"454";"3";"8";"1";"34";"1";"1";"5";"1";"[6,15,22,24,29,30,31,32]";"0";"5";"1"
"455";"4";"8";"1";"9";"1";"1";"5";"1";"[1,3,10,13,29,37]";"0";"1";"1"
"456";"29";"8";"1";"31";"1";"1";"5";"2";"[15,19,24,30,34]";"2";"0";"1"
"457";"8";"8";"1";"18";"1";"1";"5";"1";"[3,11,16,27]";"1";"0";"1"
"458";"27";"8";"1";"20";"1";"1";"5";"2";"[8,27,38]";"2";"0";"1"
"459";"36";"8";"1";"14";"1";"1";"5";"1";"[26,35,40]";"2";"0";"1"
"460";"21";"9";"1";"33";"1";"1";"5";"1";"[4,28]";"1";"0";"1"
"461";"12";"9";"1";"28";"1";"1";"5";"1";"[7,33]";"1";"0";"1"
"462";"39";"9";"1";"13";"1";"1";"5";"2";"[1,3,9,21,23,37]";"2";"0";"1"
"463";"34";"9";"1";"21";"1";"1";"5";"1";"[13,15,23,36,39]";"1";"0";"1"
"464";"8";"9";"1";"18";"1";"1";"5";"1";"[3,11,16,27]";"1";"0";"1"
"465";"1";"9";"1";"2";"1";"1";"5";"1";"[4,38]";"1";"4";"1"
"466";"4";"9";"1";"9";"1";"1";"5";"1";"[1,3,10,13,29,37]";"0";"2";"1"
"467";"27";"9";"1";"20";"1";"1";"5";"2";"[8,27,38]";"2";"0";"1"
"468";"36";"9";"1";"14";"1";"1";"5";"1";"[26,35,40]";"2";"0";"1"
"469";"3";"10";"1";"34";"1";"1";"5";"1";"[6,15,22,24,29,30,31,32]";"1";"5";"1"
"470";"12";"10";"1";"28";"1";"1";"5";"1";"[7,33]";"1";"0";"1"
"471";"37";"10";"1";"36";"1";"1";"5";"1";"[21,38,39]";"0";"1";"1"
"472";"34";"10";"1";"21";"1";"1";"5";"1";"[13,15,23,36,39]";"1";"0";"1"
"473";"1";"10";"1";"2";"1";"1";"5";"1";"[4,38]";"1";"4";"1"
"474";"4";"10";"1";"9";"1";"1";"5";"1";"[1,3,10,13,29,37]";"0";"4";"1"
"475";"3";"11";"1";"34";"1";"1";"5";"1";"[6,15,22,24,29,30,31,32]";"1";"5";"1"
"476";"14";"11";"1";"30";"1";"1";"5";"2";"[6,15,19,24,31,34,37]";"1";"0";"1"
"477";"14";"12";"1";"30";"1";"1";"5";"2";"[6,15,19,24,31,34,37]";"1";"0";"1"
"478";"4";"12";"1";"9";"1";"1";"5";"1";"[1,3,10,13,29,37]";"1";"4";"1"
"479";"37";"13";"1";"36";"1";"1";"5";"1";"[21,38,39]";"0";"6";"1"
"480";"4";"13";"1";"9";"1";"1";"5";"1";"[1,3,10,13,29,37]";"1";"4";"1"
"481";"37";"15";"1";"36";"1";"1";"5";"1";"[21,38,39]";"0";"5";"1"
"482";"32";"17";"1";"23";"1";"1";"5";"1";"[1,13,21]";"2";"0";"1"
"483";"32";"18";"1";"23";"1";"1";"5";"1";"[1,13,21]";"2";"0";"1"
"484";"23";"18";"1";"17";"1";"1";"5";"1";"[19]";"2";"0";"1"
"485";"28";"19";"1";"32";"1";"1";"5";"1";"[5,15,19,22,24,29,34]";"1";"0";"1"
"486";"23";"19";"1";"17";"1";"1";"5";"1";"[19]";"2";"0";"1"
"487";"20";"20";"1";"3";"1";"1";"5";"2";"[1,9,10,13,16,18]";"1";"0";"1"
"488";"28";"20";"1";"32";"1";"1";"5";"1";"[5,15,19,22,24,29,34]";"1";"0";"1"
"489";"37";"20";"1";"36";"1";"1";"5";"1";"[21,38,39]";"1";"5";"1"
"490";"20";"21";"1";"3";"1";"1";"5";"2";"[1,9,10,13,16,18]";"1";"0";"1"
"491";"37";"21";"1";"36";"1";"1";"5";"1";"[21,38,39]";"1";"5";"1"
"492";"16";"24";"1";"6";"1";"1";"5";"1";"[8,15,24,30,34]";"1";"1";"1"
"493";"26";"25";"1";"19";"1";"1";"5";"2";"[17,30,31,32]";"1";"0";"1"
"494";"16";"26";"1";"6";"1";"1";"5";"1";"[8,15,24,30,34]";"1";"2";"1"
"495";"26";"26";"1";"19";"1";"1";"5";"2";"[17,30,31,32]";"1";"0";"1"
"496";"17";"1";"1";"35";"1";"1";"6";"1";"[14,26]";"1";"0";"1"
"497";"29";"2";"1";"31";"1";"1";"6";"2";"[15,19,24,30,34]";"2";"0";"1"
"498";"5";"2";"1";"25";"1";"1";"6";"1";"[27]";"1";"0";"1"
"499";"18";"2";"1";"12";"1";"1";"6";"1";"[5,22]";"0";"4";"1"
"500";"13";"2";"1";"27";"1";"1";"6";"1";"[16,18,20,25]";"1";"0";"1"
"501";"16";"2";"1";"6";"1";"1";"6";"1";"[8,15,24,30,34]";"0";"1";"1"
"502";"17";"2";"1";"35";"1";"1";"6";"1";"[14,26]";"1";"0";"1"
"503";"27";"3";"1";"20";"1";"1";"6";"2";"[8,27,38]";"2";"0";"1"
"504";"9";"3";"1";"7";"1";"1";"6";"1";"[28,40]";"1";"0";"1"
"505";"29";"3";"1";"31";"1";"1";"6";"2";"[15,19,24,30,34]";"2";"0";"1"
"506";"22";"3";"1";"26";"1";"1";"6";"1";"[14,35]";"1";"0";"1"
"507";"7";"3";"1";"37";"1";"1";"6";"1";"[9,10,13,29,30]";"1";"0";"1"
"508";"5";"3";"1";"25";"1";"1";"6";"1";"[27]";"1";"0";"1"
"509";"13";"3";"1";"27";"1";"1";"6";"1";"[16,18,20,25]";"1";"0";"1"
"510";"4";"4";"1";"9";"1";"1";"6";"1";"[1,3,10,13,29,37]";"1";"0";"1"
"511";"18";"4";"1";"12";"1";"1";"6";"1";"[5,22]";"0";"5";"1"
"512";"27";"4";"1";"20";"1";"1";"6";"2";"[8,27,38]";"2";"0";"1"
"513";"25";"4";"1";"24";"1";"1";"6";"1";"[6,15,29,30,31,32,34]";"1";"0";"1"
"514";"9";"4";"1";"7";"1";"1";"6";"1";"[28,40]";"1";"0";"1"
"515";"31";"4";"1";"22";"1";"1";"6";"2";"[5,12,32,34]";"1";"0";"1"
"516";"22";"4";"1";"26";"1";"1";"6";"1";"[14,35]";"1";"0";"1"
"517";"38";"4";"1";"11";"1";"1";"6";"1";"[16,18]";"1";"0";"1"
"518";"7";"4";"1";"37";"1";"1";"6";"1";"[9,10,13,29,30]";"1";"0";"1"
"519";"35";"4";"1";"29";"1";"1";"6";"1";"[9,10,15,24,32,34,37]";"1";"0";"1"
"520";"4";"5";"1";"9";"1";"1";"6";"1";"[1,3,10,13,29,37]";"1";"0";"1"
"521";"15";"5";"1";"1";"1";"1";"6";"1";"[3,9,13,23]";"0";"4";"1"
"522";"25";"5";"1";"24";"1";"1";"6";"1";"[6,15,29,30,31,32,34]";"1";"0";"1"
"523";"31";"5";"1";"22";"1";"1";"6";"2";"[5,12,32,34]";"1";"0";"1"
"524";"18";"5";"1";"12";"1";"1";"6";"1";"[5,22]";"1";"5";"1"
"525";"38";"5";"1";"11";"1";"1";"6";"1";"[16,18]";"1";"0";"1"
"526";"11";"5";"1";"4";"1";"1";"6";"2";"[2,33,38]";"1";"0";"1"
"527";"10";"5";"1";"40";"1";"1";"6";"2";"[7,14,38]";"0";"4";"1"
"528";"35";"5";"1";"29";"1";"1";"6";"1";"[9,10,15,24,32,34,37]";"1";"0";"1"
"529";"12";"6";"1";"28";"1";"1";"6";"1";"[7,33]";"1";"0";"1"
"530";"30";"6";"1";"38";"1";"1";"6";"1";"[2,4,20,36,39,40]";"1";"0";"1"
"531";"18";"6";"1";"12";"1";"1";"6";"1";"[5,22]";"1";"5";"1"
"532";"15";"6";"1";"1";"1";"1";"6";"1";"[3,9,13,23]";"0";"3";"1"
"533";"39";"6";"1";"13";"1";"1";"6";"2";"[1,3,9,21,23,37]";"2";"0";"1"
"534";"37";"6";"1";"36";"1";"1";"6";"1";"[21,38,39]";"1";"0";"1"
"535";"11";"6";"1";"4";"1";"1";"6";"2";"[2,33,38]";"1";"0";"1"
"536";"16";"6";"1";"6";"1";"1";"6";"1";"[8,15,24,30,34]";"0";"9";"1"
"537";"8";"7";"1";"18";"1";"1";"6";"1";"[3,11,16,27]";"1";"0";"1"
"538";"10";"7";"1";"40";"1";"1";"6";"2";"[7,14,38]";"0";"5";"1"
"539";"12";"7";"1";"28";"1";"1";"6";"1";"[7,33]";"1";"0";"1"
"540";"30";"7";"1";"38";"1";"1";"6";"1";"[2,4,20,36,39,40]";"1";"0";"1"
"541";"39";"7";"1";"13";"1";"1";"6";"2";"[1,3,9,21,23,37]";"2";"0";"1"
"542";"37";"7";"1";"36";"1";"1";"6";"1";"[21,38,39]";"1";"0";"1"
"543";"15";"7";"1";"1";"1";"1";"6";"1";"[3,9,13,23]";"0";"5";"1"
"544";"3";"7";"1";"34";"1";"1";"6";"1";"[6,15,22,24,29,30,31,32]";"1";"0";"1"
"545";"19";"7";"1";"10";"1";"1";"6";"1";"[3,9,29,37]";"1";"0";"1"
"546";"8";"8";"1";"18";"1";"1";"6";"1";"[3,11,16,27]";"1";"0";"1"
"547";"40";"8";"1";"8";"1";"1";"6";"2";"[6,20]";"2";"0";"1"
"548";"10";"8";"1";"40";"1";"1";"6";"2";"[7,14,38]";"2";"5";"1"
"549";"26";"8";"1";"19";"1";"1";"6";"2";"[17,30,31,32]";"2";"0";"1"
"550";"15";"8";"1";"1";"1";"1";"6";"1";"[3,9,13,23]";"1";"5";"1"
"551";"1";"8";"1";"2";"1";"1";"6";"1";"[4,38]";"0";"4";"1"
"552";"3";"8";"1";"34";"1";"1";"6";"1";"[6,15,22,24,29,30,31,32]";"1";"0";"1"
"553";"23";"8";"1";"17";"1";"1";"6";"1";"[19]";"1";"0";"1"
"554";"19";"8";"1";"10";"1";"1";"6";"1";"[3,9,29,37]";"1";"0";"1"
"555";"40";"9";"1";"8";"1";"1";"6";"2";"[6,20]";"2";"0";"1"
"556";"10";"9";"1";"40";"1";"1";"6";"2";"[7,14,38]";"2";"5";"1"
"557";"26";"9";"1";"19";"1";"1";"6";"2";"[17,30,31,32]";"2";"0";"1"
"558";"36";"9";"1";"14";"1";"1";"6";"1";"[26,35,40]";"2";"0";"1"
"559";"32";"9";"1";"23";"1";"1";"6";"1";"[1,13,21]";"1";"0";"1"
"560";"15";"9";"1";"1";"1";"1";"6";"1";"[3,9,13,23]";"1";"5";"1"
"561";"16";"9";"1";"6";"1";"1";"6";"1";"[8,15,24,30,34]";"1";"9";"1"
"562";"23";"9";"1";"17";"1";"1";"6";"1";"[19]";"1";"0";"1"
"563";"21";"9";"1";"33";"1";"1";"6";"1";"[4,28]";"1";"0";"1"
"564";"36";"10";"1";"14";"1";"1";"6";"1";"[26,35,40]";"2";"0";"1"
"565";"32";"10";"1";"23";"1";"1";"6";"1";"[1,13,21]";"1";"0";"1"
"566";"16";"10";"1";"6";"1";"1";"6";"1";"[8,15,24,30,34]";"1";"9";"1"
"567";"21";"10";"1";"33";"1";"1";"6";"1";"[4,28]";"1";"0";"1"
"568";"24";"11";"1";"5";"1";"1";"6";"1";"[12,22,32]";"1";"0";"1"
"569";"1";"11";"1";"2";"1";"1";"6";"1";"[4,38]";"0";"7";"1"
"570";"33";"11";"1";"39";"1";"1";"6";"2";"[21,36,38]";"2";"0";"1"
"571";"24";"12";"1";"5";"1";"1";"6";"1";"[12,22,32]";"1";"0";"1"
"572";"28";"12";"1";"32";"1";"1";"6";"1";"[5,15,19,22,24,29,34]";"1";"0";"1"
"573";"6";"12";"1";"16";"1";"1";"6";"1";"[3,11,18,27]";"1";"0";"1"
"574";"33";"12";"1";"39";"1";"1";"6";"2";"[21,36,38]";"2";"0";"1"
"575";"28";"13";"1";"32";"1";"1";"6";"1";"[5,15,19,22,24,29,34]";"1";"0";"1"
"576";"6";"13";"1";"16";"1";"1";"6";"1";"[3,11,18,27]";"1";"0";"1"
"577";"14";"14";"1";"30";"1";"1";"6";"2";"[6,15,19,24,31,34,37]";"1";"0";"1"
"578";"14";"15";"1";"30";"1";"1";"6";"2";"[6,15,19,24,31,34,37]";"1";"0";"1"
"579";"2";"15";"1";"15";"1";"1";"6";"2";"[6,21,24,29,30,31,32,34]";"1";"0";"1"
"580";"1";"15";"1";"2";"1";"1";"6";"1";"[4,38]";"1";"7";"1"
"581";"2";"16";"1";"15";"1";"1";"6";"2";"[6,21,24,29,30,31,32,34]";"1";"0";"1"
"582";"1";"16";"1";"2";"1";"1";"6";"1";"[4,38]";"1";"7";"1"
"583";"20";"16";"1";"3";"1";"1";"6";"2";"[1,9,10,13,16,18]";"1";"0";"1"
"584";"20";"17";"1";"3";"1";"1";"6";"2";"[1,9,10,13,16,18]";"1";"0";"1"
"585";"34";"18";"1";"21";"1";"1";"6";"1";"[13,15,23,36,39]";"1";"0";"1"
"586";"34";"19";"1";"21";"1";"1";"6";"1";"[13,15,23,36,39]";"1";"0";"1"
"587";"27";"1";"1";"20";"1";"1";"7";"2";"[8,27,38]";"1";"0";"1"
"588";"17";"2";"1";"35";"1";"1";"7";"1";"[14,26]";"1";"0";"1"
"589";"39";"2";"1";"13";"1";"1";"7";"2";"[1,3,9,21,23,37]";"1";"0";"1"
"590";"27";"2";"1";"20";"1";"1";"7";"2";"[8,27,38]";"1";"0";"1"
"591";"35";"2";"1";"29";"1";"1";"7";"1";"[9,10,15,24,32,34,37]";"1";"0";"1"
"592";"5";"2";"1";"25";"1";"1";"7";"1";"[27]";"1";"0";"1"
"593";"13";"3";"1";"27";"1";"1";"7";"1";"[16,18,20,25]";"1";"0";"1"
"594";"18";"3";"1";"12";"1";"1";"7";"1";"[5,22]";"0";"5";"1"
"595";"17";"3";"1";"35";"1";"1";"7";"1";"[14,26]";"1";"0";"1"
"596";"38";"3";"1";"11";"1";"1";"7";"1";"[16,18]";"1";"0";"1"
"597";"8";"3";"1";"18";"1";"1";"7";"1";"[3,11,16,27]";"1";"0";"1"
"598";"39";"3";"1";"13";"1";"1";"7";"2";"[1,3,9,21,23,37]";"1";"0";"1"
"599";"25";"3";"1";"24";"1";"1";"7";"1";"[6,15,29,30,31,32,34]";"1";"0";"1"
"600";"35";"3";"1";"29";"1";"1";"7";"1";"[9,10,15,24,32,34,37]";"1";"0";"1"
"601";"5";"4";"1";"25";"1";"1";"7";"1";"[27]";"1";"0";"1"
"602";"22";"4";"1";"26";"1";"1";"7";"1";"[14,35]";"1";"0";"1"
"603";"13";"4";"1";"27";"1";"1";"7";"1";"[16,18,20,25]";"1";"0";"1"
"604";"4";"4";"1";"9";"1";"1";"7";"1";"[1,3,10,13,29,37]";"1";"0";"1"
"605";"19";"4";"1";"10";"1";"1";"7";"1";"[3,9,29,37]";"1";"0";"1"
"606";"38";"4";"1";"11";"1";"1";"7";"1";"[16,18]";"1";"0";"1"
"607";"8";"4";"1";"18";"1";"1";"7";"1";"[3,11,16,27]";"1";"0";"1"
"608";"25";"4";"1";"24";"1";"1";"7";"1";"[6,15,29,30,31,32,34]";"1";"0";"1"
"609";"18";"4";"1";"12";"1";"1";"7";"1";"[5,22]";"0";"6";"1"
"610";"1";"4";"1";"2";"1";"1";"7";"1";"[4,38]";"1";"0";"1"
"611";"22";"5";"1";"26";"1";"1";"7";"1";"[14,35]";"1";"0";"1"
"612";"23";"5";"1";"17";"1";"1";"7";"1";"[19]";"1";"0";"1"
"613";"40";"5";"1";"8";"1";"1";"7";"2";"[6,20]";"0";"5";"1"
"614";"4";"5";"1";"9";"1";"1";"7";"1";"[1,3,10,13,29,37]";"1";"0";"1"
"615";"19";"5";"1";"10";"1";"1";"7";"1";"[3,9,29,37]";"1";"0";"1"
"616";"1";"5";"1";"2";"1";"1";"7";"1";"[4,38]";"1";"0";"1"
"617";"9";"6";"1";"7";"1";"1";"7";"1";"[28,40]";"1";"0";"1"
"618";"23";"6";"1";"17";"1";"1";"7";"1";"[19]";"1";"0";"1"
"619";"37";"6";"1";"36";"1";"1";"7";"1";"[21,38,39]";"1";"0";"1"
"620";"40";"6";"1";"8";"1";"1";"7";"2";"[6,20]";"0";"4";"1"
"621";"14";"6";"1";"30";"1";"1";"7";"2";"[6,15,19,24,31,34,37]";"1";"0";"1"
"622";"30";"6";"1";"38";"1";"1";"7";"1";"[2,4,20,36,39,40]";"1";"0";"1"
"623";"7";"6";"1";"37";"1";"1";"7";"1";"[9,10,13,29,30]";"1";"0";"1"
"624";"34";"7";"1";"21";"1";"1";"7";"1";"[13,15,23,36,39]";"1";"0";"1"
"625";"9";"7";"1";"7";"1";"1";"7";"1";"[28,40]";"1";"0";"1"
"626";"37";"7";"1";"36";"1";"1";"7";"1";"[21,38,39]";"1";"0";"1"
"627";"29";"7";"1";"31";"1";"1";"7";"2";"[15,19,24,30,34]";"2";"0";"1"
"628";"14";"7";"1";"30";"1";"1";"7";"2";"[6,15,19,24,31,34,37]";"1";"0";"1"
"629";"11";"7";"1";"4";"1";"1";"7";"2";"[2,33,38]";"1";"0";"1"
"630";"10";"7";"1";"40";"1";"1";"7";"2";"[7,14,38]";"0";"5";"1"
"631";"40";"7";"1";"8";"1";"1";"7";"2";"[6,20]";"0";"3";"1"
"632";"30";"7";"1";"38";"1";"1";"7";"1";"[2,4,20,36,39,40]";"1";"0";"1"
"633";"18";"7";"1";"12";"1";"1";"7";"1";"[5,22]";"1";"6";"1"
"634";"7";"7";"1";"37";"1";"1";"7";"1";"[9,10,13,29,30]";"1";"0";"1"
"635";"34";"8";"1";"21";"1";"1";"7";"1";"[13,15,23,36,39]";"1";"0";"1"
"636";"29";"8";"1";"31";"1";"1";"7";"2";"[15,19,24,30,34]";"2";"0";"1"
"637";"11";"8";"1";"4";"1";"1";"7";"2";"[2,33,38]";"1";"0";"1"
"638";"18";"8";"1";"12";"1";"1";"7";"1";"[5,22]";"1";"6";"1"
"639";"6";"9";"1";"16";"1";"1";"7";"1";"[3,11,18,27]";"0";"5";"1"
"640";"40";"9";"1";"8";"1";"1";"7";"2";"[6,20]";"0";"8";"1"
"641";"6";"9";"1";"16";"1";"1";"7";"1";"[3,11,18,27]";"0";"4";"1"
"642";"3";"9";"1";"34";"1";"1";"7";"1";"[6,15,22,24,29,30,31,32]";"1";"0";"1"
"643";"6";"9";"1";"16";"1";"1";"7";"1";"[3,11,18,27]";"0";"3";"1"
"644";"6";"10";"1";"16";"1";"1";"7";"1";"[3,11,18,27]";"0";"2";"1"
"645";"10";"10";"1";"40";"1";"1";"7";"2";"[7,14,38]";"0";"6";"1"
"646";"6";"10";"1";"16";"1";"1";"7";"1";"[3,11,18,27]";"0";"1";"1"
"647";"28";"10";"1";"32";"1";"1";"7";"1";"[5,15,19,22,24,29,34]";"1";"0";"1"
"648";"3";"10";"1";"34";"1";"1";"7";"1";"[6,15,22,24,29,30,31,32]";"1";"0";"1"
"649";"31";"11";"1";"22";"1";"1";"7";"2";"[5,12,32,34]";"1";"0";"1"
"650";"15";"11";"1";"1";"1";"1";"7";"1";"[3,9,13,23]";"1";"0";"1"
"651";"40";"11";"1";"8";"1";"1";"7";"2";"[6,20]";"2";"8";"1"
"652";"6";"11";"1";"16";"1";"1";"7";"1";"[3,11,18,27]";"0";"8";"1"
"653";"28";"11";"1";"32";"1";"1";"7";"1";"[5,15,19,22,24,29,34]";"1";"0";"1"
"654";"21";"11";"1";"33";"1";"1";"7";"1";"[4,28]";"1";"0";"1"
"655";"31";"12";"1";"22";"1";"1";"7";"2";"[5,12,32,34]";"1";"0";"1"
"656";"15";"12";"1";"1";"1";"1";"7";"1";"[3,9,13,23]";"1";"0";"1"
"657";"40";"12";"1";"8";"1";"1";"7";"2";"[6,20]";"2";"8";"1"
"658";"6";"12";"1";"16";"1";"1";"7";"1";"[3,11,18,27]";"0";"7";"1"
"659";"21";"12";"1";"33";"1";"1";"7";"1";"[4,28]";"1";"0";"1"
"660";"26";"13";"1";"19";"1";"1";"7";"2";"[17,30,31,32]";"1";"0";"1"
"661";"26";"14";"1";"19";"1";"1";"7";"2";"[17,30,31,32]";"1";"0";"1"
"662";"2";"15";"1";"15";"1";"1";"7";"2";"[6,21,24,29,30,31,32,34]";"1";"0";"1"
"663";"16";"15";"1";"6";"1";"1";"7";"1";"[8,15,24,30,34]";"1";"0";"1"
"664";"33";"15";"1";"39";"1";"1";"7";"2";"[21,36,38]";"2";"0";"1"
"665";"10";"15";"1";"40";"1";"1";"7";"2";"[7,14,38]";"2";"6";"1"
"666";"2";"16";"1";"15";"1";"1";"7";"2";"[6,21,24,29,30,31,32,34]";"1";"0";"1"
"667";"16";"16";"1";"6";"1";"1";"7";"1";"[8,15,24,30,34]";"1";"0";"1"
"668";"33";"16";"1";"39";"1";"1";"7";"2";"[21,36,38]";"2";"0";"1"
"669";"10";"16";"1";"40";"1";"1";"7";"2";"[7,14,38]";"2";"6";"1"
"670";"20";"17";"1";"3";"1";"1";"7";"2";"[1,9,10,13,16,18]";"1";"0";"1"
"671";"6";"17";"1";"16";"1";"1";"7";"1";"[3,11,18,27]";"1";"7";"1"
"672";"20";"18";"1";"3";"1";"1";"7";"2";"[1,9,10,13,16,18]";"1";"0";"1"
"673";"6";"18";"1";"16";"1";"1";"7";"1";"[3,11,18,27]";"1";"7";"1"
"674";"23";"18";"1";"17";"1";"1";"7";"1";"[19]";"1";"5";"1"
"675";"32";"19";"1";"23";"1";"1";"7";"1";"[1,13,21]";"1";"0";"1"
"676";"17";"19";"1";"35";"1";"1";"7";"1";"[14,26]";"1";"2";"1"
"677";"32";"20";"1";"23";"1";"1";"7";"1";"[1,13,21]";"1";"0";"1"
"678";"23";"20";"1";"17";"1";"1";"7";"1";"[19]";"1";"4";"1"
"679";"17";"20";"1";"35";"1";"1";"7";"1";"[14,26]";"1";"1";"1"
"680";"17";"21";"1";"35";"1";"1";"7";"1";"[14,26]";"1";"2";"1"
"681";"12";"21";"1";"28";"1";"1";"7";"1";"[7,33]";"1";"0";"1"
"682";"36";"21";"1";"14";"1";"1";"7";"1";"[26,35,40]";"2";"0";"1"
"683";"23";"21";"1";"17";"1";"1";"7";"1";"[19]";"1";"7";"1"
"684";"17";"22";"1";"35";"1";"1";"7";"1";"[14,26]";"1";"3";"1"
"685";"24";"22";"1";"5";"1";"1";"7";"1";"[12,22,32]";"1";"0";"1"
"686";"12";"22";"1";"28";"1";"1";"7";"1";"[7,33]";"1";"0";"1"
"687";"36";"22";"1";"14";"1";"1";"7";"1";"[26,35,40]";"2";"0";"1"
"688";"17";"23";"1";"35";"1";"1";"7";"1";"[14,26]";"1";"4";"1"
"689";"24";"23";"1";"5";"1";"1";"7";"1";"[12,22,32]";"1";"0";"1"
"690";"17";"1";"1";"35";"1";"1";"8";"1";"[14,26]";"1";"0";"1"
"691";"25";"2";"1";"24";"1";"1";"8";"1";"[6,15,29,30,31,32,34]";"1";"0";"1"
"692";"15";"2";"1";"1";"1";"1";"8";"1";"[3,9,13,23]";"1";"0";"1"
"693";"9";"2";"1";"7";"1";"1";"8";"1";"[28,40]";"1";"0";"1"
"694";"39";"2";"1";"13";"1";"1";"8";"2";"[1,3,9,21,23,37]";"1";"0";"1"
"695";"17";"2";"1";"35";"1";"1";"8";"1";"[14,26]";"1";"0";"1"
"696";"4";"2";"1";"9";"1";"1";"8";"1";"[1,3,10,13,29,37]";"1";"0";"1"
"697";"29";"3";"1";"31";"1";"1";"8";"2";"[15,19,24,30,34]";"2";"0";"1"
"698";"25";"3";"1";"24";"1";"1";"8";"1";"[6,15,29,30,31,32,34]";"1";"0";"1"
"699";"8";"3";"1";"18";"1";"1";"8";"1";"[3,11,16,27]";"1";"0";"1"
"700";"15";"3";"1";"1";"1";"1";"8";"1";"[3,9,13,23]";"1";"0";"1"
"701";"6";"3";"1";"16";"1";"1";"8";"1";"[3,11,18,27]";"0";"8";"1"
"702";"9";"3";"1";"7";"1";"1";"8";"1";"[28,40]";"1";"0";"1"
"703";"39";"3";"1";"13";"1";"1";"8";"2";"[1,3,9,21,23,37]";"1";"0";"1"
"704";"36";"3";"1";"14";"1";"1";"8";"1";"[26,35,40]";"1";"0";"1"
"705";"35";"3";"1";"29";"1";"1";"8";"1";"[9,10,15,24,32,34,37]";"1";"0";"1"
"706";"12";"3";"1";"28";"1";"1";"8";"1";"[7,33]";"1";"0";"1"
"707";"5";"3";"1";"25";"1";"1";"8";"1";"[27]";"1";"0";"1"
"708";"30";"3";"1";"38";"1";"1";"8";"1";"[2,4,20,36,39,40]";"1";"0";"1"
"709";"4";"3";"1";"9";"1";"1";"8";"1";"[1,3,10,13,29,37]";"1";"0";"1"
"710";"29";"4";"1";"31";"1";"1";"8";"2";"[15,19,24,30,34]";"2";"0";"1"
"711";"10";"4";"1";"40";"1";"1";"8";"2";"[7,14,38]";"2";"0";"1"
"712";"8";"4";"1";"18";"1";"1";"8";"1";"[3,11,16,27]";"1";"0";"1"
"713";"23";"4";"1";"17";"1";"1";"8";"1";"[19]";"1";"0";"1"
"714";"22";"4";"1";"26";"1";"1";"8";"1";"[14,35]";"1";"0";"1"
"715";"7";"4";"1";"37";"1";"1";"8";"1";"[9,10,13,29,30]";"1";"0";"1"
"716";"36";"4";"1";"14";"1";"1";"8";"1";"[26,35,40]";"1";"0";"1"
"717";"35";"4";"1";"29";"1";"1";"8";"1";"[9,10,15,24,32,34,37]";"1";"0";"1"
"718";"12";"4";"1";"28";"1";"1";"8";"1";"[7,33]";"1";"0";"1"
"719";"5";"4";"1";"25";"1";"1";"8";"1";"[27]";"1";"0";"1"
"720";"1";"4";"1";"2";"1";"1";"8";"1";"[4,38]";"1";"0";"1"
"721";"30";"4";"1";"38";"1";"1";"8";"1";"[2,4,20,36,39,40]";"1";"0";"1"
"722";"13";"4";"1";"27";"1";"1";"8";"1";"[16,18,20,25]";"1";"0";"1"
"723";"40";"4";"1";"8";"1";"1";"8";"2";"[6,20]";"1";"0";"1"
"724";"34";"5";"1";"21";"1";"1";"8";"1";"[13,15,23,36,39]";"1";"0";"1"
"725";"10";"5";"1";"40";"1";"1";"8";"2";"[7,14,38]";"2";"0";"1"
"726";"38";"5";"1";"11";"1";"1";"8";"1";"[16,18]";"1";"0";"1"
"727";"23";"5";"1";"17";"1";"1";"8";"1";"[19]";"1";"0";"1"
"728";"22";"5";"1";"26";"1";"1";"8";"1";"[14,35]";"1";"0";"1"
"729";"7";"5";"1";"37";"1";"1";"8";"1";"[9,10,13,29,30]";"1";"0";"1"
"730";"19";"5";"1";"10";"1";"1";"8";"1";"[3,9,29,37]";"1";"0";"1"
"731";"31";"5";"1";"22";"1";"1";"8";"2";"[5,12,32,34]";"1";"0";"1"
"732";"1";"5";"1";"2";"1";"1";"8";"1";"[4,38]";"1";"0";"1"
"733";"13";"5";"1";"27";"1";"1";"8";"1";"[16,18,20,25]";"1";"0";"1"
"734";"40";"6";"1";"8";"1";"1";"8";"2";"[6,20]";"1";"0";"1"
"735";"34";"6";"1";"21";"1";"1";"8";"1";"[13,15,23,36,39]";"1";"0";"1"
"736";"20";"6";"1";"3";"1";"1";"8";"2";"[1,9,10,13,16,18]";"1";"0";"1"
"737";"27";"6";"1";"20";"1";"1";"8";"2";"[8,27,38]";"0";"2";"1"
"738";"38";"6";"1";"11";"1";"1";"8";"1";"[16,18]";"1";"0";"1"
"739";"37";"6";"1";"36";"1";"1";"8";"1";"[21,38,39]";"1";"0";"1"
"740";"21";"6";"1";"33";"1";"1";"8";"1";"[4,28]";"1";"0";"1"
"741";"6";"6";"1";"16";"1";"1";"8";"1";"[3,11,18,27]";"1";"8";"1"
"742";"19";"6";"1";"10";"1";"1";"8";"1";"[3,9,29,37]";"1";"0";"1"
"743";"31";"6";"1";"22";"1";"1";"8";"2";"[5,12,32,34]";"1";"0";"1"
"744";"14";"7";"1";"30";"1";"1";"8";"2";"[6,15,19,24,31,34,37]";"1";"0";"1"
"745";"20";"7";"1";"3";"1";"1";"8";"2";"[1,9,10,13,16,18]";"1";"0";"1"
"746";"27";"7";"1";"20";"1";"1";"8";"2";"[8,27,38]";"0";"3";"1"
"747";"37";"7";"1";"36";"1";"1";"8";"1";"[21,38,39]";"1";"0";"1"
"748";"21";"7";"1";"33";"1";"1";"8";"1";"[4,28]";"1";"0";"1"
"749";"6";"7";"1";"16";"1";"1";"8";"1";"[3,11,18,27]";"1";"8";"1"
"750";"14";"8";"1";"30";"1";"1";"8";"2";"[6,15,19,24,31,34,37]";"1";"0";"1"
"751";"24";"8";"1";"5";"1";"1";"8";"1";"[12,22,32]";"1";"0";"1"
"752";"27";"8";"1";"20";"1";"1";"8";"2";"[8,27,38]";"0";"7";"1"
"753";"32";"8";"1";"23";"1";"1";"8";"1";"[1,13,21]";"1";"0";"1"
"754";"26";"8";"1";"19";"1";"1";"8";"2";"[17,30,31,32]";"1";"0";"1"
"755";"18";"9";"1";"12";"1";"1";"8";"1";"[5,22]";"1";"0";"1"
"756";"24";"9";"1";"5";"1";"1";"8";"1";"[12,22,32]";"1";"0";"1"
"757";"16";"9";"1";"6";"1";"1";"8";"1";"[8,15,24,30,34]";"1";"0";"1"
"758";"32";"9";"1";"23";"1";"1";"8";"1";"[1,13,21]";"1";"0";"1"
"759";"26";"9";"1";"19";"1";"1";"8";"2";"[17,30,31,32]";"1";"0";"1"
"760";"28";"10";"1";"32";"1";"1";"8";"1";"[5,15,19,22,24,29,34]";"1";"0";"1"
"761";"18";"10";"1";"12";"1";"1";"8";"1";"[5,22]";"1";"0";"1"
"762";"27";"10";"1";"20";"1";"1";"8";"2";"[8,27,38]";"0";"6";"1"
"763";"16";"10";"1";"6";"1";"1";"8";"1";"[8,15,24,30,34]";"1";"0";"1"
"764";"2";"11";"1";"15";"1";"1";"8";"2";"[6,21,24,29,30,31,32,34]";"1";"0";"1"
"765";"28";"11";"1";"32";"1";"1";"8";"1";"[5,15,19,22,24,29,34]";"1";"0";"1"
"766";"27";"11";"1";"20";"1";"1";"8";"2";"[8,27,38]";"0";"5";"1"
"767";"33";"11";"1";"39";"1";"1";"8";"2";"[21,36,38]";"2";"0";"1"
"768";"2";"12";"1";"15";"1";"1";"8";"2";"[6,21,24,29,30,31,32,34]";"1";"0";"1"
"769";"23";"12";"1";"17";"1";"1";"8";"1";"[19]";"1";"1";"1"
"770";"23";"12";"1";"17";"1";"1";"8";"1";"[19]";"1";"2";"1"
"771";"33";"12";"1";"39";"1";"1";"8";"2";"[21,36,38]";"2";"0";"1"
"772";"27";"13";"1";"20";"1";"1";"8";"2";"[8,27,38]";"0";"9";"1"
"773";"3";"13";"1";"34";"1";"1";"8";"1";"[6,15,22,24,29,30,31,32]";"1";"0";"1"
"774";"23";"13";"1";"17";"1";"1";"8";"1";"[19]";"1";"3";"1"
"775";"27";"14";"1";"20";"1";"1";"8";"2";"[8,27,38]";"1";"9";"1"
"776";"23";"14";"1";"17";"1";"1";"8";"1";"[19]";"1";"5";"1"
"777";"3";"14";"1";"34";"1";"1";"8";"1";"[6,15,22,24,29,30,31,32]";"1";"0";"1"
"778";"23";"14";"1";"17";"1";"1";"8";"1";"[19]";"1";"6";"1"
"779";"27";"15";"1";"20";"1";"1";"8";"2";"[8,27,38]";"1";"9";"1"
"780";"23";"16";"1";"17";"1";"1";"8";"1";"[19]";"1";"7";"1"
"781";"23";"17";"1";"17";"1";"1";"8";"1";"[19]";"1";"8";"1"
"782";"10";"17";"1";"40";"1";"1";"8";"2";"[7,14,38]";"2";"1";"1"
"783";"11";"18";"1";"4";"1";"1";"8";"2";"[2,33,38]";"1";"0";"1"
"784";"11";"19";"1";"4";"1";"1";"8";"2";"[2,33,38]";"1";"0";"1"
"785";"17";"1";"1";"35";"1";"1";"9";"1";"[14,26]";"1";"0";"1"
"786";"25";"1";"1";"24";"1";"1";"9";"1";"[6,15,29,30,31,32,34]";"1";"0";"1"
"787";"10";"1";"1";"40";"1";"1";"9";"2";"[7,14,38]";"0";"1";"1"
"788";"8";"1";"1";"18";"1";"1";"9";"1";"[3,11,16,27]";"1";"0";"1"
"789";"35";"1";"1";"29";"1";"1";"9";"1";"[9,10,15,24,32,34,37]";"1";"0";"1"
"790";"1";"2";"1";"2";"1";"1";"9";"1";"[4,38]";"1";"0";"1"
"791";"17";"2";"1";"35";"1";"1";"9";"1";"[14,26]";"1";"0";"1"
"792";"18";"2";"1";"12";"1";"1";"9";"1";"[5,22]";"1";"0";"1"
"793";"5";"2";"1";"25";"1";"1";"9";"1";"[27]";"1";"0";"1"
"794";"25";"2";"1";"24";"1";"1";"9";"1";"[6,15,29,30,31,32,34]";"1";"0";"1"
"795";"11";"2";"1";"4";"1";"1";"9";"2";"[2,33,38]";"1";"0";"1"
"796";"20";"2";"1";"3";"1";"1";"9";"2";"[1,9,10,13,16,18]";"1";"0";"1"
"797";"29";"2";"1";"31";"1";"1";"9";"2";"[15,19,24,30,34]";"2";"0";"1"
"798";"19";"2";"1";"10";"1";"1";"9";"1";"[3,9,29,37]";"1";"0";"1"
"799";"8";"2";"1";"18";"1";"1";"9";"1";"[3,11,16,27]";"1";"0";"1"
"800";"35";"2";"1";"29";"1";"1";"9";"1";"[9,10,15,24,32,34,37]";"1";"0";"1"
"801";"12";"2";"1";"28";"1";"1";"9";"1";"[7,33]";"1";"0";"1"
"802";"22";"3";"1";"26";"1";"1";"9";"1";"[14,35]";"1";"0";"1"
"803";"27";"3";"1";"20";"1";"1";"9";"2";"[8,27,38]";"1";"0";"1"
"804";"23";"3";"1";"17";"1";"1";"9";"1";"[19]";"1";"0";"1"
"805";"1";"3";"1";"2";"1";"1";"9";"1";"[4,38]";"1";"0";"1"
"806";"18";"3";"1";"12";"1";"1";"9";"1";"[5,22]";"1";"0";"1"
"807";"4";"3";"1";"9";"1";"1";"9";"1";"[1,3,10,13,29,37]";"1";"0";"1"
"808";"5";"3";"1";"25";"1";"1";"9";"1";"[27]";"1";"0";"1"
"809";"11";"3";"1";"4";"1";"1";"9";"2";"[2,33,38]";"1";"0";"1"
"810";"20";"3";"1";"3";"1";"1";"9";"2";"[1,9,10,13,16,18]";"1";"0";"1"
"811";"29";"3";"1";"31";"1";"1";"9";"2";"[15,19,24,30,34]";"2";"0";"1"
"812";"19";"3";"1";"10";"1";"1";"9";"1";"[3,9,29,37]";"1";"0";"1"
"813";"16";"3";"1";"6";"1";"1";"9";"1";"[8,15,24,30,34]";"1";"0";"1"
"814";"12";"3";"1";"28";"1";"1";"9";"1";"[7,33]";"1";"0";"1"
"815";"22";"4";"1";"26";"1";"1";"9";"1";"[14,35]";"1";"0";"1"
"816";"27";"4";"1";"20";"1";"1";"9";"2";"[8,27,38]";"1";"0";"1"
"817";"23";"4";"1";"17";"1";"1";"9";"1";"[19]";"1";"0";"1"
"818";"24";"4";"1";"5";"1";"1";"9";"1";"[12,22,32]";"0";"9";"1"
"819";"9";"4";"1";"7";"1";"1";"9";"1";"[28,40]";"2";"0";"1"
"820";"21";"4";"1";"33";"1";"1";"9";"1";"[4,28]";"1";"0";"1"
"821";"14";"4";"1";"30";"1";"1";"9";"2";"[6,15,19,24,31,34,37]";"1";"0";"1"
"822";"4";"4";"1";"9";"1";"1";"9";"1";"[1,3,10,13,29,37]";"1";"0";"1"
"823";"10";"4";"1";"40";"1";"1";"9";"2";"[7,14,38]";"0";"2";"1"
"824";"16";"4";"1";"6";"1";"1";"9";"1";"[8,15,24,30,34]";"1";"0";"1"
"825";"39";"4";"1";"13";"1";"1";"9";"2";"[1,3,9,21,23,37]";"1";"0";"1"
"826";"6";"5";"1";"16";"1";"1";"9";"1";"[3,11,18,27]";"0";"7";"1"
"827";"15";"5";"1";"1";"1";"1";"9";"1";"[3,9,13,23]";"1";"0";"1"
"828";"9";"5";"1";"7";"1";"1";"9";"1";"[28,40]";"2";"0";"1"
"829";"21";"5";"1";"33";"1";"1";"9";"1";"[4,28]";"1";"0";"1"
"830";"14";"5";"1";"30";"1";"1";"9";"2";"[6,15,19,24,31,34,37]";"1";"0";"1"
"831";"38";"5";"1";"11";"1";"1";"9";"1";"[16,18]";"2";"0";"1"
"832";"26";"5";"1";"19";"1";"1";"9";"2";"[17,30,31,32]";"2";"0";"1"
"833";"40";"5";"1";"8";"1";"1";"9";"2";"[6,20]";"1";"0";"1"
"834";"28";"5";"1";"32";"1";"1";"9";"1";"[5,15,19,22,24,29,34]";"1";"0";"1"
"835";"39";"6";"1";"13";"1";"1";"9";"2";"[1,3,9,21,23,37]";"1";"0";"1"
"836";"6";"6";"1";"16";"1";"1";"9";"1";"[3,11,18,27]";"0";"6";"1"
"837";"15";"6";"1";"1";"1";"1";"9";"1";"[3,9,13,23]";"1";"0";"1"
"838";"10";"6";"1";"40";"1";"1";"9";"2";"[7,14,38]";"0";"1";"1"
"839";"38";"6";"1";"11";"1";"1";"9";"1";"[16,18]";"2";"0";"1"
"840";"6";"6";"1";"16";"1";"1";"9";"1";"[3,11,18,27]";"0";"5";"1"
"841";"7";"6";"1";"37";"1";"1";"9";"1";"[9,10,13,29,30]";"1";"0";"1"
"842";"31";"6";"1";"22";"1";"1";"9";"2";"[5,12,32,34]";"1";"0";"1"
"843";"24";"6";"1";"5";"1";"1";"9";"1";"[12,22,32]";"1";"9";"1"
"844";"26";"6";"1";"19";"1";"1";"9";"2";"[17,30,31,32]";"2";"0";"1"
"845";"40";"6";"1";"8";"1";"1";"9";"2";"[6,20]";"1";"0";"1"
"846";"28";"7";"1";"32";"1";"1";"9";"1";"[5,15,19,22,24,29,34]";"1";"0";"1"
"847";"30";"7";"1";"38";"1";"1";"9";"1";"[2,4,20,36,39,40]";"1";"0";"1"
"848";"34";"7";"1";"21";"1";"1";"9";"1";"[13,15,23,36,39]";"1";"0";"1"
"849";"7";"7";"1";"37";"1";"1";"9";"1";"[9,10,13,29,30]";"1";"0";"1"
"850";"31";"7";"1";"22";"1";"1";"9";"2";"[5,12,32,34]";"1";"0";"1"
"851";"24";"7";"1";"5";"1";"1";"9";"1";"[12,22,32]";"1";"9";"1"
"852";"6";"8";"1";"16";"1";"1";"9";"1";"[3,11,18,27]";"0";"6";"1"
"853";"30";"8";"1";"38";"1";"1";"9";"1";"[2,4,20,36,39,40]";"1";"0";"1"
"854";"34";"8";"1";"21";"1";"1";"9";"1";"[13,15,23,36,39]";"1";"0";"1"
"855";"6";"8";"1";"16";"1";"1";"9";"1";"[3,11,18,27]";"0";"7";"1"
"856";"6";"9";"1";"16";"1";"1";"9";"1";"[3,11,18,27]";"0";"8";"1"
"857";"10";"9";"1";"40";"1";"1";"9";"2";"[7,14,38]";"0";"8";"1"
"858";"36";"9";"1";"14";"1";"1";"9";"1";"[26,35,40]";"1";"0";"1"
"859";"13";"9";"1";"27";"1";"1";"9";"1";"[16,18,20,25]";"1";"0";"1"
"860";"6";"10";"1";"16";"1";"1";"9";"1";"[3,11,18,27]";"0";"9";"1"
"861";"10";"10";"1";"40";"1";"1";"9";"2";"[7,14,38]";"0";"9";"1"
"862";"36";"10";"1";"14";"1";"1";"9";"1";"[26,35,40]";"1";"0";"1"
"863";"13";"10";"1";"27";"1";"1";"9";"1";"[16,18,20,25]";"1";"0";"1"
"864";"32";"10";"1";"23";"1";"1";"9";"1";"[1,13,21]";"1";"0";"1"
"865";"32";"11";"1";"23";"1";"1";"9";"1";"[1,13,21]";"1";"0";"1"
"866";"10";"11";"1";"40";"1";"1";"9";"2";"[7,14,38]";"1";"9";"1"
"867";"3";"12";"1";"34";"1";"1";"9";"1";"[6,15,22,24,29,30,31,32]";"2";"0";"1"
"868";"2";"12";"1";"15";"1";"1";"9";"2";"[6,21,24,29,30,31,32,34]";"1";"0";"1"
"869";"10";"12";"1";"40";"1";"1";"9";"2";"[7,14,38]";"1";"9";"1"
"870";"3";"13";"1";"34";"1";"1";"9";"1";"[6,15,22,24,29,30,31,32]";"2";"0";"1"
"871";"2";"13";"1";"15";"1";"1";"9";"2";"[6,21,24,29,30,31,32,34]";"1";"0";"1"
"872";"33";"14";"1";"39";"1";"1";"9";"2";"[21,36,38]";"2";"0";"1"
"873";"6";"15";"1";"16";"1";"1";"9";"1";"[3,11,18,27]";"2";"9";"1"
"874";"33";"15";"1";"39";"1";"1";"9";"2";"[21,36,38]";"2";"0";"1"
"875";"37";"15";"1";"36";"1";"1";"9";"1";"[21,38,39]";"1";"0";"1"
"876";"6";"16";"1";"16";"1";"1";"9";"1";"[3,11,18,27]";"2";"9";"1"
"877";"37";"16";"1";"36";"1";"1";"9";"1";"[21,38,39]";"1";"0";"1"
"878";"25";"2";"1";"24";"1";"1";"10";"1";"[6,15,29,30,31,32,34]";"0";"10";"1"
"879";"17";"2";"1";"35";"1";"1";"10";"1";"[14,26]";"1";"0";"1"
"880";"5";"2";"1";"25";"1";"1";"10";"1";"[27]";"1";"0";"1"
"881";"35";"2";"1";"29";"1";"1";"10";"1";"[9,10,15,24,32,34,37]";"1";"0";"1"
"882";"18";"3";"1";"12";"1";"1";"10";"1";"[5,22]";"1";"0";"1"
"883";"11";"3";"1";"4";"1";"1";"10";"2";"[2,33,38]";"1";"0";"1"
"884";"15";"3";"1";"1";"1";"1";"10";"1";"[3,9,13,23]";"1";"0";"1"
"885";"22";"3";"1";"26";"1";"1";"10";"1";"[14,35]";"1";"0";"1"
"886";"27";"3";"1";"20";"1";"1";"10";"2";"[8,27,38]";"1";"0";"1"
"887";"25";"3";"1";"24";"1";"1";"10";"1";"[6,15,29,30,31,32,34]";"1";"10";"1"
"888";"17";"3";"1";"35";"1";"1";"10";"1";"[14,26]";"1";"0";"1"
"889";"5";"3";"1";"25";"1";"1";"10";"1";"[27]";"1";"0";"1"
"890";"30";"3";"1";"38";"1";"1";"10";"1";"[2,4,20,36,39,40]";"1";"0";"1"
"891";"4";"3";"1";"9";"1";"1";"10";"1";"[1,3,10,13,29,37]";"1";"0";"1"
"892";"35";"3";"1";"29";"1";"1";"10";"1";"[9,10,15,24,32,34,37]";"1";"0";"1"
"893";"40";"4";"1";"8";"1";"1";"10";"2";"[6,20]";"1";"0";"1"
"894";"18";"4";"1";"12";"1";"1";"10";"1";"[5,22]";"1";"0";"1"
"895";"19";"4";"1";"10";"1";"1";"10";"1";"[3,9,29,37]";"1";"0";"1"
"896";"34";"4";"1";"21";"1";"1";"10";"1";"[13,15,23,36,39]";"1";"0";"1"
"897";"11";"4";"1";"4";"1";"1";"10";"2";"[2,33,38]";"1";"0";"1"
"898";"24";"4";"1";"5";"1";"1";"10";"1";"[12,22,32]";"1";"0";"1"
"899";"15";"4";"1";"1";"1";"1";"10";"1";"[3,9,13,23]";"1";"0";"1"
"900";"22";"4";"1";"26";"1";"1";"10";"1";"[14,35]";"1";"0";"1"
"901";"9";"4";"1";"7";"1";"1";"10";"1";"[28,40]";"1";"0";"1"
"902";"27";"4";"1";"20";"1";"1";"10";"2";"[8,27,38]";"1";"0";"1"
"903";"25";"4";"1";"24";"1";"1";"10";"1";"[6,15,29,30,31,32,34]";"1";"10";"1"
"904";"7";"4";"1";"37";"1";"1";"10";"1";"[9,10,13,29,30]";"1";"0";"1"
"905";"38";"4";"1";"11";"1";"1";"10";"1";"[16,18]";"2";"0";"1"
"906";"30";"4";"1";"38";"1";"1";"10";"1";"[2,4,20,36,39,40]";"1";"0";"1"
"907";"10";"4";"1";"40";"1";"1";"10";"2";"[7,14,38]";"0";"1";"1"
"908";"14";"4";"1";"30";"1";"1";"10";"2";"[6,15,19,24,31,34,37]";"1";"0";"1"
"909";"4";"4";"1";"9";"1";"1";"10";"1";"[1,3,10,13,29,37]";"1";"0";"1"
"910";"40";"5";"1";"8";"1";"1";"10";"2";"[6,20]";"1";"0";"1"
"911";"19";"5";"1";"10";"1";"1";"10";"1";"[3,9,29,37]";"1";"0";"1"
"912";"1";"5";"1";"2";"1";"1";"10";"1";"[4,38]";"1";"0";"1"
"913";"34";"5";"1";"21";"1";"1";"10";"1";"[13,15,23,36,39]";"1";"0";"1"
"914";"12";"5";"1";"28";"1";"1";"10";"1";"[7,33]";"1";"0";"1"
"915";"24";"5";"1";"5";"1";"1";"10";"1";"[12,22,32]";"1";"0";"1"
"916";"9";"5";"1";"7";"1";"1";"10";"1";"[28,40]";"1";"0";"1"
"917";"21";"5";"1";"33";"1";"1";"10";"1";"[4,28]";"1";"0";"1"
"918";"7";"5";"1";"37";"1";"1";"10";"1";"[9,10,13,29,30]";"1";"0";"1"
"919";"38";"5";"1";"11";"1";"1";"10";"1";"[16,18]";"2";"0";"1"
"920";"14";"5";"1";"30";"1";"1";"10";"2";"[6,15,19,24,31,34,37]";"1";"0";"1"
"921";"3";"5";"1";"34";"1";"1";"10";"1";"[6,15,22,24,29,30,31,32]";"1";"0";"1"
"922";"6";"5";"1";"16";"1";"1";"10";"1";"[3,11,18,27]";"1";"0";"1"
"923";"33";"6";"1";"39";"1";"1";"10";"2";"[21,36,38]";"2";"0";"1"
"924";"1";"6";"1";"2";"1";"1";"10";"1";"[4,38]";"1";"0";"1"
"925";"10";"6";"1";"40";"1";"1";"10";"2";"[7,14,38]";"0";"2";"1"
"926";"12";"6";"1";"28";"1";"1";"10";"1";"[7,33]";"1";"0";"1"
"927";"29";"6";"1";"31";"1";"1";"10";"2";"[15,19,24,30,34]";"2";"0";"1"
"928";"36";"6";"1";"14";"1";"1";"10";"1";"[26,35,40]";"2";"0";"1"
"929";"21";"6";"1";"33";"1";"1";"10";"1";"[4,28]";"1";"0";"1"
"930";"3";"6";"1";"34";"1";"1";"10";"1";"[6,15,22,24,29,30,31,32]";"1";"0";"1"
"931";"6";"6";"1";"16";"1";"1";"10";"1";"[3,11,18,27]";"1";"0";"1"
"932";"16";"6";"1";"6";"1";"1";"10";"1";"[8,15,24,30,34]";"1";"0";"1"
"933";"33";"7";"1";"39";"1";"1";"10";"2";"[21,36,38]";"2";"0";"1"
"934";"29";"7";"1";"31";"1";"1";"10";"2";"[15,19,24,30,34]";"2";"0";"1"
"935";"36";"7";"1";"14";"1";"1";"10";"1";"[26,35,40]";"2";"0";"1"
"936";"39";"7";"1";"13";"1";"1";"10";"2";"[1,3,9,21,23,37]";"1";"0";"1"
"937";"10";"7";"1";"40";"1";"1";"10";"2";"[7,14,38]";"0";"9";"1"
"938";"26";"7";"1";"19";"1";"1";"10";"2";"[17,30,31,32]";"2";"0";"1"
"939";"23";"7";"1";"17";"1";"1";"10";"1";"[19]";"2";"0";"1"
"940";"16";"7";"1";"6";"1";"1";"10";"1";"[8,15,24,30,34]";"1";"0";"1"
"941";"13";"8";"1";"27";"1";"1";"10";"1";"[16,18,20,25]";"1";"0";"1"
"942";"10";"8";"1";"40";"1";"1";"10";"2";"[7,14,38]";"1";"9";"1"
"943";"39";"8";"1";"13";"1";"1";"10";"2";"[1,3,9,21,23,37]";"1";"0";"1"
"944";"26";"8";"1";"19";"1";"1";"10";"2";"[17,30,31,32]";"2";"0";"1"
"945";"8";"8";"1";"18";"1";"1";"10";"1";"[3,11,16,27]";"1";"0";"1"
"946";"23";"8";"1";"17";"1";"1";"10";"1";"[19]";"2";"0";"1"
"947";"13";"9";"1";"27";"1";"1";"10";"1";"[16,18,20,25]";"1";"0";"1"
"948";"10";"9";"1";"40";"1";"1";"10";"2";"[7,14,38]";"1";"9";"1"
"949";"28";"9";"1";"32";"1";"1";"10";"1";"[5,15,19,22,24,29,34]";"1";"0";"1"
"950";"8";"9";"1";"18";"1";"1";"10";"1";"[3,11,16,27]";"1";"0";"1"
"951";"32";"10";"1";"23";"1";"1";"10";"1";"[1,13,21]";"2";"0";"1"
"952";"28";"10";"1";"32";"1";"1";"10";"1";"[5,15,19,22,24,29,34]";"1";"0";"1"
"953";"32";"11";"1";"23";"1";"1";"10";"1";"[1,13,21]";"2";"0";"1"
"954";"20";"12";"1";"3";"1";"1";"10";"2";"[1,9,10,13,16,18]";"1";"0";"1"
"955";"20";"13";"1";"3";"1";"1";"10";"2";"[1,9,10,13,16,18]";"1";"0";"1"
"956";"37";"14";"1";"36";"1";"1";"10";"1";"[21,38,39]";"1";"0";"1"
"957";"31";"15";"1";"22";"1";"1";"10";"2";"[5,12,32,34]";"1";"0";"1"
"958";"37";"15";"1";"36";"1";"1";"10";"1";"[21,38,39]";"1";"0";"1"
"959";"31";"16";"1";"22";"1";"1";"10";"2";"[5,12,32,34]";"1";"0";"1"
"960";"2";"17";"1";"15";"1";"1";"10";"2";"[6,21,24,29,30,31,32,34]";"1";"0";"1"
"961";"2";"18";"1";"15";"1";"1";"10";"2";"[6,21,24,29,30,31,32,34]";"1";"0";"1"
"962";"5";"1";"1";"25";"1";"1";"11";"1";"[27]";"1";"0";"1"
"963";"17";"1";"1";"35";"1";"1";"11";"1";"[14,26]";"1";"0";"1"
"964";"38";"1";"1";"11";"1";"1";"11";"1";"[16,18]";"1";"0";"1"
"965";"39";"2";"1";"13";"1";"1";"11";"2";"[1,3,9,21,23,37]";"2";"0";"1"
"966";"25";"2";"1";"24";"1";"1";"11";"1";"[6,15,29,30,31,32,34]";"1";"0";"1"
"967";"12";"2";"1";"28";"1";"1";"11";"1";"[7,33]";"1";"0";"1"
"968";"15";"2";"1";"1";"1";"1";"11";"1";"[3,9,13,23]";"1";"0";"1"
"969";"19";"2";"1";"10";"1";"1";"11";"1";"[3,9,29,37]";"1";"0";"1"
"970";"13";"2";"1";"27";"1";"1";"11";"1";"[16,18,20,25]";"1";"0";"1"
"971";"3";"2";"1";"34";"1";"1";"11";"1";"[6,15,22,24,29,30,31,32]";"1";"0";"1"
"972";"5";"2";"1";"25";"1";"1";"11";"1";"[27]";"1";"0";"1"
"973";"8";"2";"1";"18";"1";"1";"11";"1";"[3,11,16,27]";"1";"0";"1"
"974";"17";"2";"1";"35";"1";"1";"11";"1";"[14,26]";"1";"0";"1"
"975";"38";"2";"1";"11";"1";"1";"11";"1";"[16,18]";"1";"0";"1"
"976";"30";"2";"1";"38";"1";"1";"11";"1";"[2,4,20,36,39,40]";"1";"0";"1"
"977";"18";"2";"1";"12";"1";"1";"11";"1";"[5,22]";"1";"0";"1"
"978";"9";"2";"1";"7";"1";"1";"11";"1";"[28,40]";"2";"0";"1"
"979";"35";"2";"1";"29";"1";"1";"11";"1";"[9,10,15,24,32,34,37]";"1";"0";"1"
"980";"22";"3";"1";"26";"1";"1";"11";"1";"[14,35]";"1";"0";"1"
"981";"39";"3";"1";"13";"1";"1";"11";"2";"[1,3,9,21,23,37]";"2";"0";"1"
"982";"25";"3";"1";"24";"1";"1";"11";"1";"[6,15,29,30,31,32,34]";"1";"0";"1"
"983";"36";"3";"1";"14";"1";"1";"11";"1";"[26,35,40]";"1";"0";"1"
"984";"11";"3";"1";"4";"1";"1";"11";"2";"[2,33,38]";"1";"0";"1"
"985";"4";"3";"1";"9";"1";"1";"11";"1";"[1,3,10,13,29,37]";"1";"0";"1"
"986";"40";"3";"1";"8";"1";"1";"11";"2";"[6,20]";"1";"0";"1"
"987";"12";"3";"1";"28";"1";"1";"11";"1";"[7,33]";"1";"0";"1"
"988";"7";"3";"1";"37";"1";"1";"11";"1";"[9,10,13,29,30]";"1";"0";"1"
"989";"29";"3";"1";"31";"1";"1";"11";"2";"[15,19,24,30,34]";"2";"0";"1"
"990";"15";"3";"1";"1";"1";"1";"11";"1";"[3,9,13,23]";"1";"0";"1"
"991";"19";"3";"1";"10";"1";"1";"11";"1";"[3,9,29,37]";"1";"0";"1"
"992";"13";"3";"1";"27";"1";"1";"11";"1";"[16,18,20,25]";"1";"0";"1"
"993";"16";"3";"1";"6";"1";"1";"11";"1";"[8,15,24,30,34]";"1";"0";"1"
"994";"3";"3";"1";"34";"1";"1";"11";"1";"[6,15,22,24,29,30,31,32]";"1";"0";"1"
"995";"8";"3";"1";"18";"1";"1";"11";"1";"[3,11,16,27]";"1";"0";"1"
"996";"10";"3";"1";"40";"1";"1";"11";"2";"[7,14,38]";"1";"0";"1"
"997";"30";"3";"1";"38";"1";"1";"11";"1";"[2,4,20,36,39,40]";"1";"0";"1"
"998";"18";"3";"1";"12";"1";"1";"11";"1";"[5,22]";"1";"0";"1"
"999";"9";"3";"1";"7";"1";"1";"11";"1";"[28,40]";"2";"0";"1"
"1000";"35";"3";"1";"29";"1";"1";"11";"1";"[9,10,15,24,32,34,37]";"1";"0";"1"
"1001";"23";"4";"1";"17";"1";"1";"11";"1";"[19]";"2";"0";"1"
"1002";"22";"4";"1";"26";"1";"1";"11";"1";"[14,35]";"1";"0";"1"
"1003";"36";"4";"1";"14";"1";"1";"11";"1";"[26,35,40]";"1";"0";"1"
"1004";"11";"4";"1";"4";"1";"1";"11";"2";"[2,33,38]";"1";"0";"1"
"1005";"4";"4";"1";"9";"1";"1";"11";"1";"[1,3,10,13,29,37]";"1";"0";"1"
"1006";"40";"4";"1";"8";"1";"1";"11";"2";"[6,20]";"1";"0";"1"
"1007";"26";"4";"1";"19";"1";"1";"11";"2";"[17,30,31,32]";"1";"0";"1"
"1008";"7";"4";"1";"37";"1";"1";"11";"1";"[9,10,13,29,30]";"1";"0";"1"
"1009";"28";"4";"1";"32";"1";"1";"11";"1";"[5,15,19,22,24,29,34]";"1";"0";"1"
"1010";"29";"4";"1";"31";"1";"1";"11";"2";"[15,19,24,30,34]";"2";"0";"1"
"1011";"6";"4";"1";"16";"1";"1";"11";"1";"[3,11,18,27]";"1";"0";"1"
"1012";"16";"4";"1";"6";"1";"1";"11";"1";"[8,15,24,30,34]";"1";"0";"1"
"1013";"14";"4";"1";"30";"1";"1";"11";"2";"[6,15,19,24,31,34,37]";"1";"0";"1"
"1014";"10";"4";"1";"40";"1";"1";"11";"2";"[7,14,38]";"1";"0";"1"
"1015";"23";"5";"1";"17";"1";"1";"11";"1";"[19]";"2";"0";"1"
"1016";"34";"5";"1";"21";"1";"1";"11";"1";"[13,15,23,36,39]";"0";"9";"1"
"1017";"1";"5";"1";"2";"1";"1";"11";"1";"[4,38]";"1";"0";"1"
"1018";"26";"5";"1";"19";"1";"1";"11";"2";"[17,30,31,32]";"1";"0";"1"
"1019";"28";"5";"1";"32";"1";"1";"11";"1";"[5,15,19,22,24,29,34]";"1";"0";"1"
"1020";"6";"5";"1";"16";"1";"1";"11";"1";"[3,11,18,27]";"1";"0";"1"
"1021";"31";"5";"1";"22";"1";"1";"11";"2";"[5,12,32,34]";"1";"0";"1"
"1022";"14";"5";"1";"30";"1";"1";"11";"2";"[6,15,19,24,31,34,37]";"1";"0";"1"
"1023";"34";"6";"1";"21";"1";"1";"11";"1";"[13,15,23,36,39]";"0";"1";"1"
"1024";"1";"6";"1";"2";"1";"1";"11";"1";"[4,38]";"1";"0";"1"
"1025";"21";"6";"1";"33";"1";"1";"11";"1";"[4,28]";"1";"0";"1"
"1026";"27";"6";"1";"20";"1";"1";"11";"2";"[8,27,38]";"1";"0";"1"
"1027";"34";"6";"1";"21";"1";"1";"11";"1";"[13,15,23,36,39]";"0";"3";"1"
"1028";"31";"6";"1";"22";"1";"1";"11";"2";"[5,12,32,34]";"1";"0";"1"
"1029";"25";"7";"1";"24";"1";"1";"11";"1";"[6,15,29,30,31,32,34]";"1";"5";"1"
"1030";"20";"7";"1";"3";"1";"1";"11";"2";"[1,9,10,13,16,18]";"1";"0";"1"
"1031";"21";"7";"1";"33";"1";"1";"11";"1";"[4,28]";"1";"0";"1"
"1032";"27";"7";"1";"20";"1";"1";"11";"2";"[8,27,38]";"1";"0";"1"
"1033";"2";"7";"1";"15";"1";"1";"11";"2";"[6,21,24,29,30,31,32,34]";"1";"0";"1"
"1034";"34";"7";"1";"21";"1";"1";"11";"1";"[13,15,23,36,39]";"0";"5";"1"
"1035";"24";"7";"1";"5";"1";"1";"11";"1";"[12,22,32]";"1";"0";"1"
"1036";"25";"8";"1";"24";"1";"1";"11";"1";"[6,15,29,30,31,32,34]";"1";"4";"1"
"1037";"20";"8";"1";"3";"1";"1";"11";"2";"[1,9,10,13,16,18]";"1";"0";"1"
"1038";"34";"8";"1";"21";"1";"1";"11";"1";"[13,15,23,36,39]";"0";"6";"1"
"1039";"2";"8";"1";"15";"1";"1";"11";"2";"[6,21,24,29,30,31,32,34]";"1";"0";"1"
"1040";"24";"8";"1";"5";"1";"1";"11";"1";"[12,22,32]";"1";"0";"1"
"1041";"37";"9";"1";"36";"1";"1";"11";"1";"[21,38,39]";"0";"7";"1"
"1042";"32";"9";"1";"23";"1";"1";"11";"1";"[1,13,21]";"1";"0";"1"
"1043";"25";"9";"1";"24";"1";"1";"11";"1";"[6,15,29,30,31,32,34]";"1";"3";"1"
"1044";"37";"10";"1";"36";"1";"1";"11";"1";"[21,38,39]";"0";"10";"1"
"1045";"5";"10";"1";"25";"1";"1";"11";"1";"[27]";"1";"1";"1"
"1046";"32";"10";"1";"23";"1";"1";"11";"1";"[1,13,21]";"1";"0";"1"
"1047";"34";"10";"1";"21";"1";"1";"11";"1";"[13,15,23,36,39]";"0";"4";"1"
"1048";"33";"10";"1";"39";"1";"1";"11";"2";"[21,36,38]";"2";"0";"1"
"1049";"25";"10";"1";"24";"1";"1";"11";"1";"[6,15,29,30,31,32,34]";"1";"2";"1"
"1050";"5";"11";"1";"25";"1";"1";"11";"1";"[27]";"1";"2";"1"
"1051";"33";"11";"1";"39";"1";"1";"11";"2";"[21,36,38]";"2";"0";"1"
"1052";"25";"11";"1";"24";"1";"1";"11";"1";"[6,15,29,30,31,32,34]";"1";"1";"1"
"1053";"34";"12";"1";"21";"1";"1";"11";"1";"[13,15,23,36,39]";"0";"2";"1"
"1054";"5";"12";"1";"25";"1";"1";"11";"1";"[27]";"1";"3";"1"
"1055";"37";"12";"1";"36";"1";"1";"11";"1";"[21,38,39]";"0";"11";"1"
"1056";"34";"12";"1";"21";"1";"1";"11";"1";"[13,15,23,36,39]";"0";"1";"1"
"1057";"25";"13";"1";"24";"1";"1";"11";"1";"[6,15,29,30,31,32,34]";"1";"11";"1"
"1058";"5";"13";"1";"25";"1";"1";"11";"1";"[27]";"1";"4";"1"
"1059";"34";"13";"1";"21";"1";"1";"11";"1";"[13,15,23,36,39]";"0";"7";"1"
"1060";"5";"13";"1";"25";"1";"1";"11";"1";"[27]";"1";"5";"1"
"1061";"36";"14";"1";"14";"1";"1";"11";"1";"[26,35,40]";"1";"7";"1"
"1062";"34";"15";"1";"21";"1";"1";"11";"1";"[13,15,23,36,39]";"0";"8";"1"
"1063";"5";"15";"1";"25";"1";"1";"11";"1";"[27]";"1";"11";"1"
"1064";"34";"15";"1";"21";"1";"1";"11";"1";"[13,15,23,36,39]";"1";"8";"1"
"1065";"36";"16";"1";"14";"1";"1";"11";"1";"[26,35,40]";"1";"11";"1"
"1066";"34";"16";"1";"21";"1";"1";"11";"1";"[13,15,23,36,39]";"1";"8";"1"
"1067";"34";"16";"1";"21";"1";"1";"11";"1";"[13,15,23,36,39]";"1";"1";"1"
"1068";"10";"16";"1";"40";"1";"1";"11";"2";"[7,14,38]";"1";"1";"1"
"1069";"34";"17";"1";"21";"1";"1";"11";"1";"[13,15,23,36,39]";"1";"2";"1"
"1070";"34";"17";"1";"21";"1";"1";"11";"1";"[13,15,23,36,39]";"1";"3";"1"
"1071";"34";"18";"1";"21";"1";"1";"11";"1";"[13,15,23,36,39]";"1";"4";"1"
"1072";"10";"18";"1";"40";"1";"1";"11";"2";"[7,14,38]";"1";"2";"1"
"1073";"34";"19";"1";"21";"1";"1";"11";"1";"[13,15,23,36,39]";"1";"6";"1"
"1074";"34";"19";"1";"21";"1";"1";"11";"1";"[13,15,23,36,39]";"1";"7";"1"
"1075";"34";"20";"1";"21";"1";"1";"11";"1";"[13,15,23,36,39]";"1";"8";"1"
"1076";"34";"20";"1";"21";"1";"1";"11";"1";"[13,15,23,36,39]";"1";"9";"1"
"1077";"10";"20";"1";"40";"1";"1";"11";"2";"[7,14,38]";"1";"11";"1"
"1078";"5";"22";"1";"25";"1";"1";"11";"1";"[27]";"1";"11";"1"
"1079";"10";"22";"1";"40";"1";"1";"11";"2";"[7,14,38]";"1";"11";"1"
"1080";"34";"24";"1";"21";"1";"1";"11";"1";"[13,15,23,36,39]";"1";"10";"1"
"1081";"34";"25";"1";"21";"1";"1";"11";"1";"[13,15,23,36,39]";"1";"11";"1"
"1082";"37";"26";"1";"36";"1";"1";"11";"1";"[21,38,39]";"1";"11";"1"
"1083";"37";"27";"1";"36";"1";"1";"11";"1";"[21,38,39]";"1";"11";"1"
"1084";"39";"1";"1";"13";"1";"1";"12";"2";"[1,3,9,21,23,37]";"1";"0";"1"
"1085";"5";"1";"1";"25";"1";"1";"12";"1";"[27]";"1";"0";"1"
"1086";"17";"1";"1";"35";"1";"1";"12";"1";"[14,26]";"1";"0";"1"
"1087";"9";"1";"1";"7";"1";"1";"12";"1";"[28,40]";"1";"0";"1"
"1088";"38";"1";"1";"11";"1";"1";"12";"1";"[16,18]";"1";"0";"1"
"1089";"35";"2";"1";"29";"1";"1";"12";"1";"[9,10,15,24,32,34,37]";"1";"0";"1"
"1090";"39";"2";"1";"13";"1";"1";"12";"2";"[1,3,9,21,23,37]";"1";"0";"1"
"1091";"18";"2";"1";"12";"1";"1";"12";"1";"[5,22]";"0";"10";"1"
"1092";"13";"2";"1";"27";"1";"1";"12";"1";"[16,18,20,25]";"1";"0";"1"
"1093";"1";"2";"1";"2";"1";"1";"12";"1";"[4,38]";"1";"0";"1"
"1094";"19";"2";"1";"10";"1";"1";"12";"1";"[3,9,29,37]";"1";"0";"1"
"1095";"28";"2";"1";"32";"1";"1";"12";"1";"[5,15,19,22,24,29,34]";"1";"0";"1"
"1096";"25";"2";"1";"24";"1";"1";"12";"1";"[6,15,29,30,31,32,34]";"1";"0";"1"
"1097";"11";"2";"1";"4";"1";"1";"12";"2";"[2,33,38]";"1";"0";"1"
"1098";"16";"2";"1";"6";"1";"1";"12";"1";"[8,15,24,30,34]";"1";"0";"1"
"1099";"30";"2";"1";"38";"1";"1";"12";"1";"[2,4,20,36,39,40]";"1";"0";"1"
"1100";"5";"2";"1";"25";"1";"1";"12";"1";"[27]";"1";"0";"1"
"1101";"17";"2";"1";"35";"1";"1";"12";"1";"[14,26]";"1";"0";"1"
"1102";"29";"2";"1";"31";"1";"1";"12";"2";"[15,19,24,30,34]";"2";"0";"1"
"1103";"34";"2";"1";"21";"1";"1";"12";"1";"[13,15,23,36,39]";"0";"9";"1"
"1104";"22";"2";"1";"26";"1";"1";"12";"1";"[14,35]";"1";"0";"1"
"1105";"27";"2";"1";"20";"1";"1";"12";"2";"[8,27,38]";"1";"0";"1"
"1106";"8";"2";"1";"18";"1";"1";"12";"1";"[3,11,16,27]";"1";"0";"1"
"1107";"9";"2";"1";"7";"1";"1";"12";"1";"[28,40]";"1";"0";"1"
"1108";"33";"2";"1";"39";"1";"1";"12";"2";"[21,36,38]";"2";"0";"1"
"1109";"38";"2";"1";"11";"1";"1";"12";"1";"[16,18]";"1";"0";"1"
"1110";"3";"2";"1";"34";"1";"1";"12";"1";"[6,15,22,24,29,30,31,32]";"1";"0";"1"
"1111";"35";"3";"1";"29";"1";"1";"12";"1";"[9,10,15,24,32,34,37]";"1";"0";"1"
"1112";"7";"3";"1";"37";"1";"1";"12";"1";"[9,10,13,29,30]";"1";"0";"1"
"1113";"12";"3";"1";"28";"1";"1";"12";"1";"[7,33]";"1";"0";"1"
"1114";"13";"3";"1";"27";"1";"1";"12";"1";"[16,18,20,25]";"1";"0";"1"
"1115";"19";"3";"1";"10";"1";"1";"12";"1";"[3,9,29,37]";"1";"0";"1"
"1116";"1";"3";"1";"2";"1";"1";"12";"1";"[4,38]";"1";"0";"1"
"1117";"28";"3";"1";"32";"1";"1";"12";"1";"[5,15,19,22,24,29,34]";"1";"0";"1"
"1118";"25";"3";"1";"24";"1";"1";"12";"1";"[6,15,29,30,31,32,34]";"1";"0";"1"
"1119";"15";"3";"1";"1";"1";"1";"12";"1";"[3,9,13,23]";"1";"0";"1"
"1120";"11";"3";"1";"4";"1";"1";"12";"2";"[2,33,38]";"1";"0";"1"
"1121";"14";"3";"1";"30";"1";"1";"12";"2";"[6,15,19,24,31,34,37]";"1";"0";"1"
"1122";"16";"3";"1";"6";"1";"1";"12";"1";"[8,15,24,30,34]";"1";"0";"1"
"1123";"4";"3";"1";"9";"1";"1";"12";"1";"[1,3,10,13,29,37]";"1";"0";"1"
"1124";"30";"3";"1";"38";"1";"1";"12";"1";"[2,4,20,36,39,40]";"1";"0";"1"
"1125";"29";"3";"1";"31";"1";"1";"12";"2";"[15,19,24,30,34]";"2";"0";"1"
"1126";"34";"3";"1";"21";"1";"1";"12";"1";"[13,15,23,36,39]";"0";"11";"1"
"1127";"22";"3";"1";"26";"1";"1";"12";"1";"[14,35]";"1";"0";"1"
"1128";"8";"3";"1";"18";"1";"1";"12";"1";"[3,11,16,27]";"1";"0";"1"
"1129";"27";"3";"1";"20";"1";"1";"12";"2";"[8,27,38]";"1";"0";"1"
"1130";"33";"3";"1";"39";"1";"1";"12";"2";"[21,36,38]";"2";"0";"1"
"1131";"18";"3";"1";"12";"1";"1";"12";"1";"[5,22]";"0";"11";"1"
"1132";"3";"4";"1";"34";"1";"1";"12";"1";"[6,15,22,24,29,30,31,32]";"1";"0";"1"
"1133";"10";"4";"1";"40";"1";"1";"12";"2";"[7,14,38]";"0";"10";"1"
"1134";"7";"4";"1";"37";"1";"1";"12";"1";"[9,10,13,29,30]";"1";"0";"1"
"1135";"12";"4";"1";"28";"1";"1";"12";"1";"[7,33]";"1";"0";"1"
"1136";"15";"4";"1";"1";"1";"1";"12";"1";"[3,9,13,23]";"1";"0";"1"
"1137";"36";"4";"1";"14";"1";"1";"12";"1";"[26,35,40]";"1";"0";"1"
"1138";"14";"4";"1";"30";"1";"1";"12";"2";"[6,15,19,24,31,34,37]";"1";"0";"1"
"1139";"4";"4";"1";"9";"1";"1";"12";"1";"[1,3,10,13,29,37]";"1";"0";"1"
"1140";"34";"4";"1";"21";"1";"1";"12";"1";"[13,15,23,36,39]";"0";"9";"1"
"1141";"18";"5";"1";"12";"1";"1";"12";"1";"[5,22]";"1";"11";"1"
"1142";"36";"5";"1";"14";"1";"1";"12";"1";"[26,35,40]";"1";"0";"1"
"1143";"34";"5";"1";"21";"1";"1";"12";"1";"[13,15,23,36,39]";"0";"11";"1"
"1144";"6";"5";"1";"16";"1";"1";"12";"1";"[3,11,18,27]";"1";"0";"1"
"1145";"10";"5";"1";"40";"1";"1";"12";"2";"[7,14,38]";"0";"11";"1"
"1146";"40";"5";"1";"8";"1";"1";"12";"2";"[6,20]";"1";"0";"1"
"1147";"21";"5";"1";"33";"1";"1";"12";"1";"[4,28]";"1";"0";"1"
"1148";"18";"6";"1";"12";"1";"1";"12";"1";"[5,22]";"1";"11";"1"
"1149";"31";"6";"1";"22";"1";"1";"12";"2";"[5,12,32,34]";"1";"0";"1"
"1150";"6";"6";"1";"16";"1";"1";"12";"1";"[3,11,18,27]";"1";"0";"1"
"1151";"10";"6";"1";"40";"1";"1";"12";"2";"[7,14,38]";"1";"11";"1"
"1152";"23";"6";"1";"17";"1";"1";"12";"1";"[19]";"1";"0";"1"
"1153";"40";"6";"1";"8";"1";"1";"12";"2";"[6,20]";"1";"0";"1"
"1154";"21";"6";"1";"33";"1";"1";"12";"1";"[4,28]";"1";"0";"1"
"1155";"24";"7";"1";"5";"1";"1";"12";"1";"[12,22,32]";"0";"8";"1"
"1156";"31";"7";"1";"22";"1";"1";"12";"2";"[5,12,32,34]";"1";"0";"1"
"1157";"10";"7";"1";"40";"1";"1";"12";"2";"[7,14,38]";"1";"11";"1"
"1158";"23";"7";"1";"17";"1";"1";"12";"1";"[19]";"1";"0";"1"
"1159";"24";"8";"1";"5";"1";"1";"12";"1";"[12,22,32]";"0";"10";"1"
"1160";"2";"9";"1";"15";"1";"1";"12";"2";"[6,21,24,29,30,31,32,34]";"1";"0";"1"
"1161";"32";"9";"1";"23";"1";"1";"12";"1";"[1,13,21]";"1";"0";"1"
"1162";"2";"10";"1";"15";"1";"1";"12";"2";"[6,21,24,29,30,31,32,34]";"1";"0";"1"
"1163";"32";"10";"1";"23";"1";"1";"12";"1";"[1,13,21]";"1";"0";"1"
"1164";"24";"10";"1";"5";"1";"1";"12";"1";"[12,22,32]";"0";"12";"1"
"1165";"24";"11";"1";"5";"1";"1";"12";"1";"[12,22,32]";"1";"12";"1"
"1166";"26";"11";"1";"19";"1";"1";"12";"2";"[17,30,31,32]";"1";"0";"1"
"1167";"34";"11";"1";"21";"1";"1";"12";"1";"[13,15,23,36,39]";"1";"11";"1"
"1168";"24";"12";"1";"5";"1";"1";"12";"1";"[12,22,32]";"1";"12";"1"
"1169";"26";"12";"1";"19";"1";"1";"12";"2";"[17,30,31,32]";"1";"0";"1"
"1170";"34";"12";"1";"21";"1";"1";"12";"1";"[13,15,23,36,39]";"1";"11";"1"
"1171";"34";"13";"1";"21";"1";"1";"12";"1";"[13,15,23,36,39]";"1";"1";"1"
"1172";"20";"13";"1";"3";"1";"1";"12";"2";"[1,9,10,13,16,18]";"1";"0";"1"
"1173";"40";"13";"1";"8";"1";"1";"12";"2";"[6,20]";"1";"12";"1"
"1174";"20";"14";"1";"3";"1";"1";"12";"2";"[1,9,10,13,16,18]";"1";"0";"1"
"1175";"34";"15";"1";"21";"1";"1";"12";"1";"[13,15,23,36,39]";"1";"2";"1"
"1176";"34";"15";"1";"21";"1";"1";"12";"1";"[13,15,23,36,39]";"1";"4";"1"
"1177";"34";"16";"1";"21";"1";"1";"12";"1";"[13,15,23,36,39]";"1";"5";"1"
"1178";"34";"17";"1";"21";"1";"1";"12";"1";"[13,15,23,36,39]";"1";"10";"1"
"1179";"15";"18";"1";"1";"1";"1";"12";"1";"[3,9,13,23]";"1";"4";"1"
"1180";"15";"19";"1";"1";"1";"1";"12";"1";"[3,9,13,23]";"1";"12";"1"
"1181";"37";"28";"1";"36";"1";"1";"12";"1";"[21,38,39]";"1";"0";"1"
"1182";"37";"29";"1";"36";"1";"1";"12";"1";"[21,38,39]";"1";"0";"1"
"1183";"19";"0";"1";"31";"1";"2";"12";"2";"[15,19,24,30,34]";"2";"0";"1"
"1184";"37";"0";"1";"2";"1";"2";"12";"1";"[4,38]";"1";"0";"1"
"1185";"8";"0";"1";"40";"1";"2";"12";"2";"[7,14,38]";"1";"11";"1"
"1186";"30";"0";"1";"14";"1";"2";"12";"2";"[26,35,40]";"1";"0";"1"
"1187";"17";"0";"1";"28";"1";"2";"12";"1";"[7,33]";"1";"0";"1"
"1188";"4";"0";"1";"25";"1";"2";"12";"1";"[27]";"1";"0";"1"
"1189";"13";"0";"1";"26";"1";"2";"12";"2";"[14,35]";"1";"0";"1"
"1190";"39";"0";"1";"39";"1";"2";"12";"2";"[21,36,38]";"2";"0";"1"
"1191";"33";"0";"1";"33";"1";"2";"12";"2";"[4,28]";"1";"0";"1"
"1192";"24";"0";"1";"15";"1";"2";"12";"1";"[6,21,24,29,30,31,32,34]";"1";"0";"1"
"1193";"38";"0";"1";"34";"1";"2";"12";"1";"[6,15,22,24,29,30,31,32]";"1";"0";"1"
"1194";"32";"0";"1";"24";"1";"2";"12";"2";"[6,15,29,30,31,32,34]";"1";"0";"1"
"1195";"27";"0";"1";"37";"1";"2";"12";"2";"[9,10,13,29,30]";"1";"0";"1"
"1196";"21";"0";"1";"21";"1";"2";"12";"2";"[13,15,23,36,39]";"1";"10";"1"
"1197";"35";"0";"1";"11";"1";"2";"12";"2";"[16,18]";"1";"0";"1"
"1198";"12";"0";"1";"17";"1";"2";"12";"2";"[19]";"1";"0";"1"
"1199";"28";"0";"1";"27";"1";"2";"12";"1";"[16,18,20,25]";"1";"0";"1"
"1200";"40";"0";"1";"6";"1";"2";"12";"1";"[8,15,24,30,34]";"1";"0";"1"
"1201";"1";"0";"1";"29";"1";"2";"12";"2";"[9,10,15,24,32,34,37]";"1";"0";"1"
"1202";"18";"0";"1";"4";"1";"2";"12";"2";"[2,33,38]";"1";"0";"1"
"1203";"14";"0";"1";"30";"1";"2";"12";"2";"[6,15,19,24,31,34,37]";"1";"0";"1"
"1204";"34";"0";"1";"20";"1";"2";"12";"1";"[8,27,38]";"1";"0";"1"
"1205";"7";"0";"1";"32";"1";"2";"12";"1";"[5,15,19,22,24,29,34]";"1";"0";"1"
"1206";"26";"0";"1";"13";"1";"2";"12";"1";"[1,3,9,21,23,37]";"1";"0";"1"
"1207";"6";"0";"1";"7";"1";"2";"12";"2";"[28,40]";"1";"0";"1"
"1208";"15";"0";"1";"22";"1";"2";"12";"2";"[5,12,32,34]";"1";"0";"1"
"1209";"5";"0";"1";"16";"1";"2";"12";"1";"[3,11,18,27]";"1";"0";"1"
"1210";"9";"0";"1";"1";"1";"2";"12";"2";"[3,9,13,23]";"1";"12";"1"
"1211";"22";"0";"1";"19";"1";"2";"12";"1";"[17,30,31,32]";"1";"0";"1"
"1212";"36";"0";"1";"36";"1";"2";"12";"2";"[21,38,39]";"1";"0";"1"
"1213";"23";"0";"1";"5";"1";"2";"12";"2";"[12,22,32]";"1";"12";"1"
"1214";"10";"0";"1";"8";"1";"2";"12";"2";"[6,20]";"1";"12";"1"
"1215";"25";"0";"1";"3";"1";"2";"12";"2";"[1,9,10,13,16,18]";"1";"0";"1"
"1216";"2";"0";"1";"38";"1";"2";"12";"2";"[2,4,20,36,39,40]";"1";"0";"1"
"1217";"11";"0";"1";"10";"1";"2";"12";"2";"[3,9,29,37]";"1";"0";"1"
"1218";"29";"0";"1";"23";"1";"2";"12";"2";"[1,13,21]";"1";"0";"1"
"1219";"20";"0";"1";"18";"1";"2";"12";"2";"[3,11,16,27]";"1";"0";"1"
"1220";"16";"0";"1";"12";"1";"2";"12";"2";"[5,22]";"1";"11";"1"
"1221";"3";"0";"1";"9";"1";"2";"12";"2";"[1,3,10,13,29,37]";"1";"0";"1"
"1222";"31";"0";"1";"35";"1";"2";"12";"1";"[14,26]";"1";"0";"1"
"1223";"38";"2";"1";"34";"1";"2";"1";"1";"[6,15,22,24,29,30,31,32]";"1";"0";"1"
"1224";"27";"2";"1";"37";"1";"2";"1";"2";"[9,10,13,29,30]";"2";"0";"1"
"1225";"31";"2";"1";"35";"1";"2";"1";"1";"[14,26]";"1";"0";"1"
"1226";"18";"2";"1";"4";"1";"2";"1";"2";"[2,33,38]";"2";"0";"1"
"1227";"25";"2";"1";"3";"1";"2";"1";"2";"[1,9,10,13,16,18]";"2";"0";"1"
"1228";"38";"3";"1";"34";"1";"2";"1";"1";"[6,15,22,24,29,30,31,32]";"1";"0";"1"
"1229";"26";"3";"1";"13";"1";"2";"1";"1";"[1,3,9,21,23,37]";"2";"0";"1"
"1230";"35";"3";"1";"11";"1";"2";"1";"2";"[16,18]";"2";"0";"1"
"1231";"27";"3";"1";"37";"1";"2";"1";"2";"[9,10,13,29,30]";"2";"0";"1"
"1232";"31";"3";"1";"35";"1";"2";"1";"1";"[14,26]";"1";"0";"1"
"1233";"15";"3";"1";"22";"1";"2";"1";"2";"[5,12,32,34]";"1";"0";"1"
"1234";"18";"3";"1";"4";"1";"2";"1";"2";"[2,33,38]";"2";"0";"1"
"1235";"25";"3";"1";"3";"1";"2";"1";"2";"[1,9,10,13,16,18]";"2";"0";"1"
"1236";"39";"3";"1";"39";"1";"2";"1";"2";"[21,36,38]";"2";"0";"1"
"1237";"29";"3";"1";"23";"1";"2";"1";"2";"[1,13,21]";"2";"0";"1"
"1238";"26";"4";"1";"13";"1";"2";"1";"1";"[1,3,9,21,23,37]";"2";"0";"1"
"1239";"35";"4";"1";"11";"1";"2";"1";"2";"[16,18]";"2";"0";"1"
"1240";"17";"4";"1";"28";"1";"2";"1";"1";"[7,33]";"1";"0";"1"
"1241";"24";"4";"1";"15";"1";"2";"1";"1";"[6,21,24,29,30,31,32,34]";"1";"0";"1"
"1242";"40";"4";"1";"6";"1";"2";"1";"1";"[8,15,24,30,34]";"1";"0";"1"
"1243";"15";"4";"1";"22";"1";"2";"1";"2";"[5,12,32,34]";"1";"0";"1"
"1244";"8";"4";"1";"40";"1";"2";"1";"2";"[7,14,38]";"2";"0";"1"
"1245";"37";"4";"1";"2";"1";"2";"1";"1";"[4,38]";"1";"0";"1"
"1246";"7";"4";"1";"32";"1";"2";"1";"1";"[5,15,19,22,24,29,34]";"1";"0";"1"
"1247";"16";"4";"1";"12";"1";"2";"1";"2";"[5,22]";"2";"0";"1"
"1248";"39";"4";"1";"39";"1";"2";"1";"2";"[21,36,38]";"2";"0";"1"
"1249";"19";"4";"1";"31";"1";"2";"1";"2";"[15,19,24,30,34]";"2";"0";"1"
"1250";"29";"4";"1";"23";"1";"2";"1";"2";"[1,13,21]";"2";"0";"1"
"1251";"36";"4";"1";"36";"1";"2";"1";"2";"[21,38,39]";"2";"0";"1"
"1252";"32";"5";"1";"24";"1";"2";"1";"2";"[6,15,29,30,31,32,34]";"2";"0";"1"
"1253";"10";"5";"1";"8";"1";"2";"1";"2";"[6,20]";"2";"0";"1"
"1254";"33";"5";"1";"33";"1";"2";"1";"2";"[4,28]";"2";"0";"1"
"1255";"12";"5";"1";"17";"1";"2";"1";"2";"[19]";"2";"0";"1"
"1256";"17";"5";"1";"28";"1";"2";"1";"1";"[7,33]";"1";"0";"1"
"1257";"24";"5";"1";"15";"1";"2";"1";"1";"[6,21,24,29,30,31,32,34]";"1";"0";"1"
"1258";"40";"5";"1";"6";"1";"2";"1";"1";"[8,15,24,30,34]";"1";"0";"1"
"1259";"8";"5";"1";"40";"1";"2";"1";"2";"[7,14,38]";"2";"0";"1"
"1260";"30";"5";"1";"14";"1";"2";"1";"2";"[26,35,40]";"2";"0";"1"
"1261";"1";"5";"1";"29";"1";"2";"1";"2";"[9,10,15,24,32,34,37]";"2";"0";"1"
"1262";"37";"5";"1";"2";"1";"2";"1";"1";"[4,38]";"1";"0";"1"
"1263";"7";"5";"1";"32";"1";"2";"1";"1";"[5,15,19,22,24,29,34]";"1";"0";"1"
"1264";"16";"5";"1";"12";"1";"2";"1";"2";"[5,22]";"2";"0";"1"
"1265";"6";"5";"1";"7";"1";"2";"1";"2";"[28,40]";"2";"0";"1"
"1266";"19";"5";"1";"31";"1";"2";"1";"2";"[15,19,24,30,34]";"2";"0";"1"
"1267";"34";"5";"1";"20";"1";"2";"1";"1";"[8,27,38]";"1";"0";"1"
"1268";"36";"6";"1";"36";"1";"2";"1";"2";"[21,38,39]";"2";"0";"1"
"1269";"32";"6";"1";"24";"1";"2";"1";"2";"[6,15,29,30,31,32,34]";"2";"0";"1"
"1270";"10";"6";"1";"8";"1";"2";"1";"2";"[6,20]";"2";"0";"1"
"1271";"33";"6";"1";"33";"1";"2";"1";"2";"[4,28]";"2";"0";"1"
"1272";"5";"6";"1";"16";"1";"2";"1";"1";"[3,11,18,27]";"1";"0";"1"
"1273";"12";"6";"1";"17";"1";"2";"1";"2";"[19]";"2";"0";"1"
"1274";"30";"6";"1";"14";"1";"2";"1";"2";"[26,35,40]";"2";"0";"1"
"1275";"1";"6";"1";"29";"1";"2";"1";"2";"[9,10,15,24,32,34,37]";"2";"0";"1"
"1276";"6";"6";"1";"7";"1";"2";"1";"2";"[28,40]";"2";"0";"1"
"1277";"34";"6";"1";"20";"1";"2";"1";"1";"[8,27,38]";"1";"0";"1"
"1278";"2";"7";"1";"38";"1";"2";"1";"2";"[2,4,20,36,39,40]";"2";"0";"1"
"1279";"21";"7";"1";"21";"1";"2";"1";"2";"[13,15,23,36,39]";"2";"0";"1"
"1280";"5";"7";"1";"16";"1";"2";"1";"1";"[3,11,18,27]";"1";"0";"1"
"1281";"11";"7";"1";"10";"1";"2";"1";"2";"[3,9,29,37]";"1";"0";"1"
"1282";"2";"8";"1";"38";"1";"2";"1";"2";"[2,4,20,36,39,40]";"2";"0";"1"
"1283";"21";"8";"1";"21";"1";"2";"1";"2";"[13,15,23,36,39]";"2";"0";"1"
"1284";"11";"8";"1";"10";"1";"2";"1";"2";"[3,9,29,37]";"1";"0";"1"
"1285";"20";"9";"1";"18";"1";"2";"1";"2";"[3,11,16,27]";"2";"0";"1"
"1286";"28";"9";"1";"27";"1";"2";"1";"1";"[16,18,20,25]";"1";"0";"1"
"1287";"20";"10";"1";"18";"1";"2";"1";"2";"[3,11,16,27]";"2";"0";"1"
"1288";"22";"10";"1";"19";"1";"2";"1";"1";"[17,30,31,32]";"2";"0";"1"
"1289";"9";"10";"1";"1";"1";"2";"1";"2";"[3,9,13,23]";"1";"0";"1"
"1290";"28";"10";"1";"27";"1";"2";"1";"1";"[16,18,20,25]";"1";"0";"1"
"1291";"22";"11";"1";"19";"1";"2";"1";"1";"[17,30,31,32]";"2";"0";"1"
"1292";"9";"11";"1";"1";"1";"2";"1";"2";"[3,9,13,23]";"1";"0";"1"
"1293";"14";"11";"1";"30";"1";"2";"1";"2";"[6,15,19,24,31,34,37]";"2";"0";"1"
"1294";"4";"12";"1";"25";"1";"2";"1";"1";"[27]";"1";"0";"1"
"1295";"14";"12";"1";"30";"1";"2";"1";"2";"[6,15,19,24,31,34,37]";"2";"0";"1"
"1296";"4";"13";"1";"25";"1";"2";"1";"1";"[27]";"1";"0";"1"
"1297";"13";"13";"1";"26";"1";"2";"1";"2";"[14,35]";"1";"0";"1"
"1298";"13";"14";"1";"26";"1";"2";"1";"2";"[14,35]";"1";"0";"1"
"1299";"3";"15";"1";"9";"1";"2";"1";"2";"[1,3,10,13,29,37]";"2";"0";"1"
"1300";"3";"16";"1";"9";"1";"2";"1";"2";"[1,3,10,13,29,37]";"2";"0";"1"
"1301";"23";"18";"1";"5";"1";"2";"1";"2";"[12,22,32]";"1";"0";"1"
"1302";"23";"19";"1";"5";"1";"2";"1";"2";"[12,22,32]";"1";"0";"1"
"1303";"17";"1";"1";"28";"1";"2";"2";"1";"[7,33]";"1";"0";"1"
"1304";"39";"1";"1";"39";"1";"2";"2";"2";"[21,36,38]";"2";"0";"1"
"1305";"8";"1";"1";"40";"1";"2";"2";"2";"[7,14,38]";"2";"0";"1"
"1306";"6";"1";"1";"7";"1";"2";"2";"2";"[28,40]";"2";"0";"1"
"1307";"17";"2";"1";"28";"1";"2";"2";"1";"[7,33]";"1";"0";"1"
"1308";"27";"2";"1";"37";"1";"2";"2";"2";"[9,10,13,29,30]";"2";"0";"1"
"1309";"39";"2";"1";"39";"1";"2";"2";"2";"[21,36,38]";"2";"0";"1"
"1310";"8";"2";"1";"40";"1";"2";"2";"2";"[7,14,38]";"2";"0";"1"
"1311";"35";"2";"1";"11";"1";"2";"2";"2";"[16,18]";"2";"0";"1"
"1312";"25";"2";"1";"3";"1";"2";"2";"2";"[1,9,10,13,16,18]";"2";"0";"1"
"1313";"6";"3";"1";"7";"1";"2";"2";"2";"[28,40]";"2";"0";"1"
"1314";"18";"3";"1";"4";"1";"2";"2";"2";"[2,33,38]";"2";"0";"1"
"1315";"16";"3";"1";"12";"1";"2";"2";"2";"[5,22]";"2";"0";"1"
"1316";"12";"3";"1";"17";"1";"2";"2";"2";"[19]";"2";"0";"1"
"1317";"32";"3";"1";"24";"1";"2";"2";"2";"[6,15,29,30,31,32,34]";"2";"0";"1"
"1318";"4";"3";"1";"25";"1";"2";"2";"1";"[27]";"1";"0";"1"
"1319";"27";"3";"1";"37";"1";"2";"2";"2";"[9,10,13,29,30]";"2";"0";"1"
"1320";"35";"3";"1";"11";"1";"2";"2";"2";"[16,18]";"2";"0";"1"
"1321";"25";"3";"1";"3";"1";"2";"2";"2";"[1,9,10,13,16,18]";"2";"0";"1"
"1322";"29";"4";"1";"23";"1";"2";"2";"2";"[1,13,21]";"2";"0";"1"
"1323";"18";"4";"1";"4";"1";"2";"2";"2";"[2,33,38]";"2";"0";"1"
"1324";"16";"4";"1";"12";"1";"2";"2";"2";"[5,22]";"2";"0";"1"
"1325";"36";"4";"1";"36";"1";"2";"2";"2";"[21,38,39]";"2";"0";"1"
"1326";"15";"4";"1";"22";"1";"2";"2";"2";"[5,12,32,34]";"1";"0";"1"
"1327";"12";"4";"1";"17";"1";"2";"2";"2";"[19]";"2";"0";"1"
"1328";"32";"4";"1";"24";"1";"2";"2";"2";"[6,15,29,30,31,32,34]";"2";"0";"1"
"1329";"7";"4";"1";"32";"1";"2";"2";"1";"[5,15,19,22,24,29,34]";"1";"0";"1"
"1330";"4";"4";"1";"25";"1";"2";"2";"1";"[27]";"1";"0";"1"
"1331";"29";"5";"1";"23";"1";"2";"2";"2";"[1,13,21]";"2";"0";"1"
"1332";"38";"5";"1";"34";"1";"2";"2";"1";"[6,15,22,24,29,30,31,32]";"1";"0";"1"
"1333";"36";"5";"1";"36";"1";"2";"2";"2";"[21,38,39]";"2";"0";"1"
"1334";"30";"5";"1";"14";"1";"2";"2";"2";"[26,35,40]";"2";"0";"1"
"1335";"40";"5";"1";"6";"1";"2";"2";"1";"[8,15,24,30,34]";"1";"0";"1"
"1336";"15";"5";"1";"22";"1";"2";"2";"2";"[5,12,32,34]";"1";"0";"1"
"1337";"23";"5";"1";"5";"1";"2";"2";"2";"[12,22,32]";"1";"0";"1"
"1338";"7";"5";"1";"32";"1";"2";"2";"1";"[5,15,19,22,24,29,34]";"1";"0";"1"
"1339";"28";"5";"1";"27";"1";"2";"2";"1";"[16,18,20,25]";"1";"0";"1"
"1340";"14";"5";"1";"30";"1";"2";"2";"2";"[6,15,19,24,31,34,37]";"2";"0";"1"
"1341";"34";"5";"1";"20";"1";"2";"2";"1";"[8,27,38]";"2";"0";"1"
"1342";"38";"6";"1";"34";"1";"2";"2";"1";"[6,15,22,24,29,30,31,32]";"1";"0";"1"
"1343";"5";"6";"1";"16";"1";"2";"2";"1";"[3,11,18,27]";"1";"0";"1"
"1344";"30";"6";"1";"14";"1";"2";"2";"2";"[26,35,40]";"2";"0";"1"
"1345";"40";"6";"1";"6";"1";"2";"2";"1";"[8,15,24,30,34]";"1";"0";"1"
"1346";"13";"6";"1";"26";"1";"2";"2";"2";"[14,35]";"2";"0";"1"
"1347";"23";"6";"1";"5";"1";"2";"2";"2";"[12,22,32]";"1";"0";"1"
"1348";"28";"6";"1";"27";"1";"2";"2";"1";"[16,18,20,25]";"1";"0";"1"
"1349";"37";"6";"1";"2";"1";"2";"2";"1";"[4,38]";"1";"0";"1"
"1350";"14";"6";"1";"30";"1";"2";"2";"2";"[6,15,19,24,31,34,37]";"2";"0";"1"
"1351";"34";"7";"1";"20";"1";"2";"2";"1";"[8,27,38]";"2";"0";"1"
"1352";"33";"7";"1";"33";"1";"2";"2";"2";"[4,28]";"2";"0";"1"
"1353";"26";"7";"1";"13";"1";"2";"2";"1";"[1,3,9,21,23,37]";"2";"0";"1"
"1354";"5";"7";"1";"16";"1";"2";"2";"1";"[3,11,18,27]";"1";"0";"1"
"1355";"13";"7";"1";"26";"1";"2";"2";"2";"[14,35]";"2";"0";"1"
"1356";"9";"7";"1";"1";"1";"2";"2";"2";"[3,9,13,23]";"1";"0";"1"
"1357";"37";"7";"1";"2";"1";"2";"2";"1";"[4,38]";"1";"0";"1"
"1358";"1";"8";"1";"29";"1";"2";"2";"2";"[9,10,15,24,32,34,37]";"1";"0";"1"
"1359";"33";"8";"1";"33";"1";"2";"2";"2";"[4,28]";"2";"0";"1"
"1360";"26";"8";"1";"13";"1";"2";"2";"1";"[1,3,9,21,23,37]";"2";"0";"1"
"1361";"9";"8";"1";"1";"1";"2";"2";"2";"[3,9,13,23]";"1";"0";"1"
"1362";"21";"8";"1";"21";"1";"2";"2";"2";"[13,15,23,36,39]";"2";"0";"1"
"1363";"1";"9";"1";"29";"1";"2";"2";"2";"[9,10,15,24,32,34,37]";"1";"0";"1"
"1364";"21";"9";"1";"21";"1";"2";"2";"2";"[13,15,23,36,39]";"2";"0";"1"
"1365";"11";"10";"1";"10";"1";"2";"2";"2";"[3,9,29,37]";"1";"0";"1"
"1366";"31";"10";"1";"35";"1";"2";"2";"1";"[14,26]";"1";"0";"1"
"1367";"2";"11";"1";"38";"1";"2";"2";"2";"[2,4,20,36,39,40]";"2";"0";"1"
"1368";"11";"11";"1";"10";"1";"2";"2";"2";"[3,9,29,37]";"1";"0";"1"
"1369";"31";"11";"1";"35";"1";"2";"2";"1";"[14,26]";"1";"0";"1"
"1370";"2";"12";"1";"38";"1";"2";"2";"2";"[2,4,20,36,39,40]";"2";"0";"1"
"1371";"10";"12";"1";"8";"1";"2";"2";"2";"[6,20]";"1";"0";"1"
"1372";"22";"12";"1";"19";"1";"2";"2";"1";"[17,30,31,32]";"2";"0";"1"
"1373";"10";"13";"1";"8";"1";"2";"2";"2";"[6,20]";"1";"0";"1"
"1374";"22";"13";"1";"19";"1";"2";"2";"1";"[17,30,31,32]";"2";"0";"1"
"1375";"19";"14";"1";"31";"1";"2";"2";"2";"[15,19,24,30,34]";"2";"0";"1"
"1376";"3";"14";"1";"9";"1";"2";"2";"2";"[1,3,10,13,29,37]";"2";"0";"1"
"1377";"19";"15";"1";"31";"1";"2";"2";"2";"[15,19,24,30,34]";"2";"0";"1"
"1378";"3";"15";"1";"9";"1";"2";"2";"2";"[1,3,10,13,29,37]";"2";"0";"1"
"1379";"24";"15";"1";"15";"1";"2";"2";"1";"[6,21,24,29,30,31,32,34]";"2";"0";"1"
"1380";"24";"16";"1";"15";"1";"2";"2";"1";"[6,21,24,29,30,31,32,34]";"2";"0";"1"
"1381";"20";"16";"1";"18";"1";"2";"2";"2";"[3,11,16,27]";"2";"0";"1"
"1382";"20";"17";"1";"18";"1";"2";"2";"2";"[3,11,16,27]";"2";"0";"1"
"1383";"17";"2";"1";"28";"1";"2";"3";"1";"[7,33]";"1";"0";"1"
"1384";"39";"2";"1";"39";"1";"2";"3";"2";"[21,36,38]";"2";"0";"1"
"1385";"35";"2";"1";"11";"1";"2";"3";"2";"[16,18]";"2";"0";"1"
"1386";"2";"2";"1";"38";"1";"2";"3";"2";"[2,4,20,36,39,40]";"2";"0";"1"
"1387";"5";"2";"1";"16";"1";"2";"3";"1";"[3,11,18,27]";"1";"0";"1"
"1388";"30";"2";"1";"14";"1";"2";"3";"2";"[26,35,40]";"2";"0";"1"
"1389";"25";"2";"1";"3";"1";"2";"3";"2";"[1,9,10,13,16,18]";"2";"0";"1"
"1390";"17";"3";"1";"28";"1";"2";"3";"1";"[7,33]";"1";"0";"1"
"1391";"18";"3";"1";"4";"1";"2";"3";"2";"[2,33,38]";"2";"0";"1"
"1392";"39";"3";"1";"39";"1";"2";"3";"2";"[21,36,38]";"2";"0";"1"
"1393";"35";"3";"1";"11";"1";"2";"3";"2";"[16,18]";"2";"0";"1"
"1394";"12";"3";"1";"17";"1";"2";"3";"2";"[19]";"2";"0";"1"
"1395";"15";"3";"1";"22";"1";"2";"3";"2";"[5,12,32,34]";"1";"0";"1"
"1396";"13";"3";"1";"26";"1";"2";"3";"2";"[14,35]";"2";"0";"1"
"1397";"2";"3";"1";"38";"1";"2";"3";"2";"[2,4,20,36,39,40]";"2";"0";"1"
"1398";"5";"3";"1";"16";"1";"2";"3";"1";"[3,11,18,27]";"1";"0";"1"
"1399";"30";"3";"1";"14";"1";"2";"3";"2";"[26,35,40]";"2";"0";"1"
"1400";"25";"3";"1";"3";"1";"2";"3";"2";"[1,9,10,13,16,18]";"2";"0";"1"
"1401";"6";"4";"1";"7";"1";"2";"3";"2";"[28,40]";"2";"0";"1"
"1402";"18";"4";"1";"4";"1";"2";"3";"2";"[2,33,38]";"2";"0";"1"
"1403";"9";"4";"1";"1";"1";"2";"3";"2";"[3,9,13,23]";"2";"0";"1"
"1404";"38";"4";"1";"34";"1";"2";"3";"1";"[6,15,22,24,29,30,31,32]";"1";"0";"1"
"1405";"29";"4";"1";"23";"1";"2";"3";"2";"[1,13,21]";"2";"0";"1"
"1406";"8";"4";"1";"40";"1";"2";"3";"2";"[7,14,38]";"2";"0";"1"
"1407";"31";"4";"1";"35";"1";"2";"3";"1";"[14,26]";"2";"0";"1"
"1408";"12";"4";"1";"17";"1";"2";"3";"2";"[19]";"2";"0";"1"
"1409";"7";"4";"1";"32";"1";"2";"3";"1";"[5,15,19,22,24,29,34]";"1";"0";"1"
"1410";"15";"4";"1";"22";"1";"2";"3";"2";"[5,12,32,34]";"1";"0";"1"
"1411";"13";"4";"1";"26";"1";"2";"3";"2";"[14,35]";"2";"0";"1"
"1412";"36";"5";"1";"36";"1";"2";"3";"2";"[21,38,39]";"1";"0";"1"
"1413";"26";"5";"1";"13";"1";"2";"3";"1";"[1,3,9,21,23,37]";"2";"0";"1"
"1414";"6";"5";"1";"7";"1";"2";"3";"2";"[28,40]";"2";"0";"1"
"1415";"9";"5";"1";"1";"1";"2";"3";"2";"[3,9,13,23]";"2";"0";"1"
"1416";"38";"5";"1";"34";"1";"2";"3";"1";"[6,15,22,24,29,30,31,32]";"1";"0";"1"
"1417";"29";"5";"1";"23";"1";"2";"3";"2";"[1,13,21]";"2";"0";"1"
"1418";"14";"5";"1";"30";"1";"2";"3";"2";"[6,15,19,24,31,34,37]";"2";"0";"1"
"1419";"8";"5";"1";"40";"1";"2";"3";"2";"[7,14,38]";"2";"0";"1"
"1420";"31";"5";"1";"35";"1";"2";"3";"1";"[14,26]";"2";"0";"1"
"1421";"19";"5";"1";"31";"1";"2";"3";"2";"[15,19,24,30,34]";"2";"0";"1"
"1422";"7";"5";"1";"32";"1";"2";"3";"1";"[5,15,19,22,24,29,34]";"1";"0";"1"
"1423";"40";"5";"1";"6";"1";"2";"3";"1";"[8,15,24,30,34]";"1";"0";"1"
"1424";"36";"6";"1";"36";"1";"2";"3";"2";"[21,38,39]";"1";"0";"1"
"1425";"26";"6";"1";"13";"1";"2";"3";"1";"[1,3,9,21,23,37]";"2";"0";"1"
"1426";"11";"6";"1";"10";"1";"2";"3";"2";"[3,9,29,37]";"1";"0";"1"
"1427";"37";"6";"1";"2";"1";"2";"3";"1";"[4,38]";"1";"0";"1"
"1428";"1";"6";"1";"29";"1";"2";"3";"2";"[9,10,15,24,32,34,37]";"2";"0";"1"
"1429";"14";"6";"1";"30";"1";"2";"3";"2";"[6,15,19,24,31,34,37]";"2";"0";"1"
"1430";"19";"6";"1";"31";"1";"2";"3";"2";"[15,19,24,30,34]";"2";"0";"1"
"1431";"4";"6";"1";"25";"1";"2";"3";"1";"[27]";"1";"0";"1"
"1432";"40";"6";"1";"6";"1";"2";"3";"1";"[8,15,24,30,34]";"1";"0";"1"
"1433";"33";"6";"1";"33";"1";"2";"3";"2";"[4,28]";"2";"0";"1"
"1434";"21";"6";"1";"21";"1";"2";"3";"2";"[13,15,23,36,39]";"2";"0";"1"
"1435";"11";"7";"1";"10";"1";"2";"3";"2";"[3,9,29,37]";"1";"0";"1"
"1436";"37";"7";"1";"2";"1";"2";"3";"1";"[4,38]";"1";"0";"1"
"1437";"1";"7";"1";"29";"1";"2";"3";"2";"[9,10,15,24,32,34,37]";"2";"0";"1"
"1438";"22";"7";"1";"19";"1";"2";"3";"1";"[17,30,31,32]";"1";"0";"1"
"1439";"4";"7";"1";"25";"1";"2";"3";"1";"[27]";"1";"0";"1"
"1440";"33";"7";"1";"33";"1";"2";"3";"2";"[4,28]";"2";"0";"1"
"1441";"34";"7";"1";"20";"1";"2";"3";"1";"[8,27,38]";"1";"0";"1"
"1442";"27";"7";"1";"37";"1";"2";"3";"2";"[9,10,13,29,30]";"2";"0";"1"
"1443";"21";"8";"1";"21";"1";"2";"3";"2";"[13,15,23,36,39]";"2";"0";"1"
"1444";"10";"8";"1";"8";"1";"2";"3";"2";"[6,20]";"1";"0";"1"
"1445";"22";"8";"1";"19";"1";"2";"3";"1";"[17,30,31,32]";"1";"0";"1"
"1446";"34";"8";"1";"20";"1";"2";"3";"1";"[8,27,38]";"1";"0";"1"
"1447";"27";"8";"1";"37";"1";"2";"3";"2";"[9,10,13,29,30]";"2";"0";"1"
"1448";"10";"9";"1";"8";"1";"2";"3";"2";"[6,20]";"1";"0";"1"
"1449";"20";"12";"1";"18";"1";"2";"3";"2";"[3,11,16,27]";"2";"0";"1"
"1450";"20";"13";"1";"18";"1";"2";"3";"2";"[3,11,16,27]";"2";"0";"1"
"1451";"23";"14";"1";"5";"1";"2";"3";"2";"[12,22,32]";"1";"0";"1"
"1452";"32";"14";"1";"24";"1";"2";"3";"2";"[6,15,29,30,31,32,34]";"2";"0";"1"
"1453";"23";"15";"1";"5";"1";"2";"3";"2";"[12,22,32]";"1";"0";"1"
"1454";"32";"15";"1";"24";"1";"2";"3";"2";"[6,15,29,30,31,32,34]";"2";"0";"1"
"1455";"16";"16";"1";"12";"1";"2";"3";"2";"[5,22]";"2";"0";"1"
"1456";"3";"16";"1";"9";"1";"2";"3";"2";"[1,3,10,13,29,37]";"2";"0";"1"
"1457";"16";"17";"1";"12";"1";"2";"3";"2";"[5,22]";"2";"0";"1"
"1458";"3";"17";"1";"9";"1";"2";"3";"2";"[1,3,10,13,29,37]";"2";"0";"1"
"1459";"28";"20";"1";"27";"1";"2";"3";"1";"[16,18,20,25]";"1";"0";"1"
"1460";"24";"21";"1";"15";"1";"2";"3";"1";"[6,21,24,29,30,31,32,34]";"1";"0";"1"
