"id";"id_subj";"time";"session";"id_grp";"grp";"round";"period";"sig";"links";"choice";"hist";"active"
"1";"16";"0";"1";"31";"1";"1";"1";"1";"[32,33,34,35]";"0";"0";"1"
"2";"28";"0";"1";"4";"1";"1";"1";"1";"[1,2,5,8,26,38]";"0";"0";"1"
"3";"4";"0";"1";"28";"1";"1";"1";"1";"[26,27,29]";"0";"0";"1"
"4";"37";"0";"1";"17";"1";"1";"1";"1";"[16,18,19,20,32]";"0";"0";"1"
"5";"11";"0";"1";"14";"1";"1";"1";"2";"[11,12,13,15]";"0";"0";"1"
"6";"30";"0";"1";"40";"1";"1";"1";"1";"[36,37,38,39]";"0";"0";"1"
"7";"31";"0";"1";"37";"1";"1";"1";"1";"[36,39,40]";"0";"0";"1"
"8";"8";"0";"1";"25";"1";"1";"1";"2";"[21,23,24]";"0";"0";"1"
"9";"39";"0";"1";"6";"1";"1";"1";"1";"[7,8,9]";"0";"0";"1"
"10";"5";"0";"1";"34";"1";"1";"1";"2";"[31,32]";"0";"0";"1"
"11";"6";"0";"1";"21";"1";"1";"1";"1";"[22,23,24,25]";"0";"0";"1"
"12";"29";"0";"1";"32";"1";"1";"1";"2";"[17,31,33,34,35]";"0";"0";"1"
"13";"13";"0";"1";"18";"1";"1";"1";"1";"[5,16,17,19,20]";"0";"0";"1"
"14";"14";"0";"1";"36";"1";"1";"1";"1";"[9,37,38,40]";"0";"0";"1"
"15";"18";"0";"1";"11";"1";"1";"1";"2";"[12,13,14,15]";"0";"0";"1"
"16";"3";"0";"1";"16";"1";"1";"1";"1";"[17,18,19,20]";"0";"0";"1"
"17";"2";"0";"1";"12";"1";"1";"1";"1";"[11,13,14,15]";"0";"0";"1"
"18";"26";"0";"1";"39";"1";"1";"1";"1";"[37,38,40]";"0";"0";"1"
"19";"7";"0";"1";"7";"1";"1";"1";"2";"[6,8,9,33]";"0";"0";"1"
"20";"32";"0";"1";"20";"1";"1";"1";"1";"[16,17,18,19]";"0";"0";"1"
"21";"25";"0";"1";"15";"1";"1";"1";"1";"[11,12,13,14,23,30]";"0";"0";"1"
"22";"10";"0";"1";"1";"1";"1";"1";"1";"[2,3,4,5,22]";"0";"0";"1"
"23";"33";"0";"1";"3";"1";"1";"1";"1";"[1,2]";"0";"0";"1"
"24";"27";"0";"1";"24";"1";"1";"1";"1";"[21,22,23,25]";"0";"0";"1"
"25";"35";"0";"1";"30";"1";"1";"1";"1";"[15,26,27]";"0";"0";"1"
"26";"21";"0";"1";"19";"1";"1";"1";"1";"[2,9,16,17,18,20]";"0";"0";"1"
"27";"22";"0";"1";"29";"1";"1";"1";"2";"[26,27,28]";"0";"0";"1"
"28";"15";"0";"1";"10";"1";"1";"1";"1";"[9]";"0";"0";"1"
"29";"24";"0";"1";"13";"1";"1";"1";"2";"[11,12,14,15]";"0";"0";"1"
"30";"20";"0";"1";"23";"1";"1";"1";"2";"[15,21,22,24,25]";"0";"0";"1"
"31";"12";"0";"1";"35";"1";"1";"1";"2";"[31,32,33]";"0";"0";"1"
"32";"34";"0";"1";"2";"1";"1";"1";"1";"[1,3,4,5,19]";"0";"0";"1"
"33";"1";"0";"1";"26";"1";"1";"1";"2";"[4,27,28,29,30]";"0";"0";"1"
"34";"36";"0";"1";"33";"1";"1";"1";"1";"[7,31,32,35]";"0";"0";"1"
"35";"19";"0";"1";"22";"1";"1";"1";"1";"[1,21,23,24]";"0";"0";"1"
"36";"23";"0";"1";"8";"1";"1";"1";"1";"[4,6,7,9]";"0";"0";"1"
"37";"40";"0";"1";"9";"1";"1";"1";"2";"[6,7,8,10,19,36]";"0";"0";"1"
"38";"9";"0";"1";"27";"1";"1";"1";"1";"[26,28,29,30]";"0";"0";"1"
"39";"17";"0";"1";"38";"1";"1";"1";"1";"[4,36,39,40]";"0";"0";"1"
"40";"38";"0";"1";"5";"1";"1";"1";"1";"[1,2,4,18]";"0";"0";"1"
"41";"8";"5";"1";"25";"1";"1";"1";"2";"[21,23,24]";"2";"0";"1"
"42";"8";"6";"1";"25";"1";"1";"1";"2";"[21,23,24]";"2";"0";"1"
"43";"37";"6";"1";"17";"1";"1";"1";"1";"[16,18,19,20,32]";"1";"0";"1"
"44";"4";"6";"1";"28";"1";"1";"1";"1";"[26,27,29]";"2";"0";"1"
"45";"37";"7";"1";"17";"1";"1";"1";"1";"[16,18,19,20,32]";"1";"0";"1"
"46";"31";"7";"1";"37";"1";"1";"1";"1";"[36,39,40]";"2";"0";"1"
"47";"11";"7";"1";"14";"1";"1";"1";"2";"[11,12,13,15]";"2";"0";"1"
"48";"14";"7";"1";"36";"1";"1";"1";"1";"[9,37,38,40]";"1";"0";"1"
"49";"18";"7";"1";"11";"1";"1";"1";"2";"[12,13,14,15]";"2";"0";"1"
"50";"4";"7";"1";"28";"1";"1";"1";"1";"[26,27,29]";"2";"0";"1"
"51";"10";"8";"1";"1";"1";"1";"1";"1";"[2,3,4,5,22]";"1";"0";"1"
"52";"31";"8";"1";"37";"1";"1";"1";"1";"[36,39,40]";"2";"0";"1"
"53";"11";"8";"1";"14";"1";"1";"1";"2";"[11,12,13,15]";"2";"0";"1"
"54";"2";"8";"1";"12";"1";"1";"1";"1";"[11,13,14,15]";"1";"0";"1"
"55";"14";"8";"1";"36";"1";"1";"1";"1";"[9,37,38,40]";"1";"0";"1"
"56";"15";"8";"1";"10";"1";"1";"1";"1";"[9]";"1";"0";"1"
"57";"3";"8";"1";"16";"1";"1";"1";"1";"[17,18,19,20]";"1";"0";"1"
"58";"27";"8";"1";"24";"1";"1";"1";"1";"[21,22,23,25]";"1";"0";"1"
"59";"33";"8";"1";"3";"1";"1";"1";"1";"[1,2]";"1";"0";"1"
"60";"28";"8";"1";"4";"1";"1";"1";"1";"[1,2,5,8,26,38]";"1";"0";"1"
"61";"18";"8";"1";"11";"1";"1";"1";"2";"[12,13,14,15]";"2";"0";"1"
"62";"6";"8";"1";"21";"1";"1";"1";"1";"[22,23,24,25]";"1";"0";"1"
"63";"10";"9";"1";"1";"1";"1";"1";"1";"[2,3,4,5,22]";"1";"0";"1"
"64";"20";"9";"1";"23";"1";"1";"1";"2";"[15,21,22,24,25]";"2";"0";"1"
"65";"2";"9";"1";"12";"1";"1";"1";"1";"[11,13,14,15]";"1";"0";"1"
"66";"15";"9";"1";"10";"1";"1";"1";"1";"[9]";"1";"0";"1"
"67";"5";"9";"1";"34";"1";"1";"1";"2";"[31,32]";"2";"0";"1"
"68";"3";"9";"1";"16";"1";"1";"1";"1";"[17,18,19,20]";"1";"0";"1"
"69";"27";"9";"1";"24";"1";"1";"1";"1";"[21,22,23,25]";"1";"0";"1"
"70";"33";"9";"1";"3";"1";"1";"1";"1";"[1,2]";"1";"0";"1"
"71";"28";"9";"1";"4";"1";"1";"1";"1";"[1,2,5,8,26,38]";"1";"0";"1"
"72";"35";"9";"1";"30";"1";"1";"1";"1";"[15,26,27]";"1";"0";"1"
"73";"26";"9";"1";"39";"1";"1";"1";"1";"[37,38,40]";"1";"0";"1"
"74";"6";"9";"1";"21";"1";"1";"1";"1";"[22,23,24,25]";"1";"0";"1"
"75";"39";"10";"1";"6";"1";"1";"1";"1";"[7,8,9]";"1";"0";"1"
"76";"16";"10";"1";"31";"1";"1";"1";"1";"[32,33,34,35]";"1";"0";"1"
"77";"24";"10";"1";"13";"1";"1";"1";"2";"[11,12,14,15]";"2";"0";"1"
"78";"20";"10";"1";"23";"1";"1";"1";"2";"[15,21,22,24,25]";"2";"0";"1"
"79";"23";"10";"1";"8";"1";"1";"1";"1";"[4,6,7,9]";"1";"0";"1"
"80";"5";"10";"1";"34";"1";"1";"1";"2";"[31,32]";"2";"0";"1"
"81";"35";"10";"1";"30";"1";"1";"1";"1";"[15,26,27]";"1";"0";"1"
"82";"26";"10";"1";"39";"1";"1";"1";"1";"[37,38,40]";"1";"0";"1"
"83";"39";"11";"1";"6";"1";"1";"1";"1";"[7,8,9]";"1";"0";"1"
"84";"25";"11";"1";"15";"1";"1";"1";"1";"[11,12,13,14,23,30]";"1";"0";"1"
"85";"32";"11";"1";"20";"1";"1";"1";"1";"[16,17,18,19]";"1";"0";"1"
"86";"7";"11";"1";"7";"1";"1";"1";"2";"[6,8,9,33]";"2";"0";"1"
"87";"16";"11";"1";"31";"1";"1";"1";"1";"[32,33,34,35]";"1";"0";"1"
"88";"24";"11";"1";"13";"1";"1";"1";"2";"[11,12,14,15]";"2";"0";"1"
"89";"23";"11";"1";"8";"1";"1";"1";"1";"[4,6,7,9]";"1";"0";"1"
"90";"13";"11";"1";"18";"1";"1";"1";"1";"[5,16,17,19,20]";"1";"0";"1"
"91";"40";"12";"1";"9";"1";"1";"1";"2";"[6,7,8,10,19,36]";"2";"0";"1"
"92";"29";"12";"1";"32";"1";"1";"1";"2";"[17,31,33,34,35]";"2";"0";"1"
"93";"32";"12";"1";"20";"1";"1";"1";"1";"[16,17,18,19]";"1";"0";"1"
"94";"25";"12";"1";"15";"1";"1";"1";"1";"[11,12,13,14,23,30]";"1";"0";"1"
"95";"7";"12";"1";"7";"1";"1";"1";"2";"[6,8,9,33]";"2";"0";"1"
"96";"22";"12";"1";"29";"1";"1";"1";"2";"[26,27,28]";"2";"0";"1"
"97";"17";"12";"1";"38";"1";"1";"1";"1";"[4,36,39,40]";"1";"0";"1"
"98";"13";"12";"1";"18";"1";"1";"1";"1";"[5,16,17,19,20]";"1";"0";"1"
"99";"9";"13";"1";"27";"1";"1";"1";"1";"[26,28,29,30]";"1";"0";"1"
"100";"21";"13";"1";"19";"1";"1";"1";"1";"[2,9,16,17,18,20]";"1";"0";"1"
"101";"29";"13";"1";"32";"1";"1";"1";"2";"[17,31,33,34,35]";"2";"0";"1"
"102";"40";"13";"1";"9";"1";"1";"1";"2";"[6,7,8,10,19,36]";"2";"0";"1"
"103";"22";"13";"1";"29";"1";"1";"1";"2";"[26,27,28]";"2";"0";"1"
"104";"17";"13";"1";"38";"1";"1";"1";"1";"[4,36,39,40]";"1";"0";"1"
"105";"9";"14";"1";"27";"1";"1";"1";"1";"[26,28,29,30]";"1";"0";"1"
"106";"21";"14";"1";"19";"1";"1";"1";"1";"[2,9,16,17,18,20]";"1";"0";"1"
"107";"1";"15";"1";"26";"1";"1";"1";"2";"[4,27,28,29,30]";"2";"0";"1"
"108";"1";"16";"1";"26";"1";"1";"1";"2";"[4,27,28,29,30]";"2";"0";"1"
"109";"38";"17";"1";"5";"1";"1";"1";"1";"[1,2,4,18]";"1";"0";"1"
"110";"34";"18";"1";"2";"1";"1";"1";"1";"[1,3,4,5,19]";"2";"0";"1"
"111";"38";"18";"1";"5";"1";"1";"1";"1";"[1,2,4,18]";"1";"0";"1"
"112";"12";"18";"1";"35";"1";"1";"1";"2";"[31,32,33]";"2";"0";"1"
"113";"19";"19";"1";"22";"1";"1";"1";"1";"[1,21,23,24]";"1";"0";"1"
"114";"34";"19";"1";"2";"1";"1";"1";"1";"[1,3,4,5,19]";"2";"0";"1"
"115";"12";"19";"1";"35";"1";"1";"1";"2";"[31,32,33]";"2";"0";"1"
"116";"19";"20";"1";"22";"1";"1";"1";"1";"[1,21,23,24]";"1";"0";"1"
"117";"36";"26";"1";"33";"1";"1";"1";"1";"[7,31,32,35]";"1";"0";"1"
"118";"30";"26";"1";"40";"1";"1";"1";"1";"[36,37,38,39]";"1";"0";"1"
"119";"36";"27";"1";"33";"1";"1";"1";"1";"[7,31,32,35]";"1";"0";"1"
"120";"30";"27";"1";"40";"1";"1";"1";"1";"[36,37,38,39]";"1";"0";"1"
"121";"13";"3";"1";"18";"1";"1";"2";"1";"[5,16,17,19,20]";"1";"0";"1"
"122";"11";"4";"1";"14";"1";"1";"2";"2";"[11,12,13,15]";"2";"0";"1"
"123";"13";"4";"1";"18";"1";"1";"2";"1";"[5,16,17,19,20]";"1";"0";"1"
"124";"37";"5";"1";"17";"1";"1";"2";"1";"[16,18,19,20,32]";"1";"0";"1"
"125";"15";"5";"1";"10";"1";"1";"2";"1";"[9]";"1";"0";"1"
"126";"2";"5";"1";"12";"1";"1";"2";"1";"[11,13,14,15]";"1";"0";"1"
"127";"3";"5";"1";"16";"1";"1";"2";"1";"[17,18,19,20]";"1";"0";"1"
"128";"11";"5";"1";"14";"1";"1";"2";"2";"[11,12,13,15]";"2";"0";"1"
"129";"25";"5";"1";"15";"1";"1";"2";"1";"[11,12,13,14,23,30]";"1";"0";"1"
"130";"5";"6";"1";"34";"1";"1";"2";"2";"[31,32]";"2";"0";"1"
"131";"37";"6";"1";"17";"1";"1";"2";"1";"[16,18,19,20,32]";"1";"0";"1"
"132";"15";"6";"1";"10";"1";"1";"2";"1";"[9]";"1";"0";"1"
"133";"3";"6";"1";"16";"1";"1";"2";"1";"[17,18,19,20]";"1";"0";"1"
"134";"2";"6";"1";"12";"1";"1";"2";"1";"[11,13,14,15]";"1";"0";"1"
"135";"27";"6";"1";"24";"1";"1";"2";"1";"[21,22,23,25]";"1";"0";"1"
"136";"25";"6";"1";"15";"1";"1";"2";"1";"[11,12,13,14,23,30]";"1";"0";"1"
"137";"5";"7";"1";"34";"1";"1";"2";"2";"[31,32]";"2";"0";"1"
"138";"28";"7";"1";"4";"1";"1";"2";"1";"[1,2,5,8,26,38]";"1";"0";"1"
"139";"17";"7";"1";"38";"1";"1";"2";"1";"[4,36,39,40]";"1";"0";"1"
"140";"27";"7";"1";"24";"1";"1";"2";"1";"[21,22,23,25]";"1";"0";"1"
"141";"35";"8";"1";"30";"1";"1";"2";"1";"[15,26,27]";"1";"0";"1"
"142";"22";"8";"1";"29";"1";"1";"2";"2";"[26,27,28]";"2";"0";"1"
"143";"28";"8";"1";"4";"1";"1";"2";"1";"[1,2,5,8,26,38]";"1";"0";"1"
"144";"17";"8";"1";"38";"1";"1";"2";"1";"[4,36,39,40]";"1";"0";"1"
"145";"26";"8";"1";"39";"1";"1";"2";"1";"[37,38,40]";"1";"0";"1"
"146";"20";"8";"1";"23";"1";"1";"2";"2";"[15,21,22,24,25]";"2";"0";"1"
"147";"14";"8";"1";"36";"1";"1";"2";"1";"[9,37,38,40]";"1";"0";"1"
"148";"10";"8";"1";"1";"1";"1";"2";"1";"[2,3,4,5,22]";"1";"0";"1"
"149";"32";"9";"1";"20";"1";"1";"2";"1";"[16,17,18,19]";"2";"0";"1"
"150";"4";"9";"1";"28";"1";"1";"2";"1";"[26,27,29]";"2";"0";"1"
"151";"35";"9";"1";"30";"1";"1";"2";"1";"[15,26,27]";"1";"0";"1"
"152";"22";"9";"1";"29";"1";"1";"2";"2";"[26,27,28]";"2";"0";"1"
"153";"21";"9";"1";"19";"1";"1";"2";"1";"[2,9,16,17,18,20]";"1";"0";"1"
"154";"16";"9";"1";"31";"1";"1";"2";"1";"[32,33,34,35]";"1";"0";"1"
"155";"26";"9";"1";"39";"1";"1";"2";"1";"[37,38,40]";"1";"0";"1"
"156";"20";"9";"1";"23";"1";"1";"2";"2";"[15,21,22,24,25]";"2";"0";"1"
"157";"14";"9";"1";"36";"1";"1";"2";"1";"[9,37,38,40]";"1";"0";"1"
"158";"10";"9";"1";"1";"1";"1";"2";"1";"[2,3,4,5,22]";"1";"0";"1"
"159";"38";"9";"1";"5";"1";"1";"2";"1";"[1,2,4,18]";"1";"0";"1"
"160";"31";"9";"1";"37";"1";"1";"2";"1";"[36,39,40]";"2";"0";"1"
"161";"32";"10";"1";"20";"1";"1";"2";"1";"[16,17,18,19]";"2";"0";"1"
"162";"4";"10";"1";"28";"1";"1";"2";"1";"[26,27,29]";"2";"0";"1"
"163";"21";"10";"1";"19";"1";"1";"2";"1";"[2,9,16,17,18,20]";"1";"0";"1"
"164";"16";"10";"1";"31";"1";"1";"2";"1";"[32,33,34,35]";"1";"0";"1"
"165";"33";"10";"1";"3";"1";"1";"2";"1";"[1,2]";"1";"0";"1"
"166";"6";"10";"1";"21";"1";"1";"2";"1";"[22,23,24,25]";"1";"0";"1"
"167";"9";"10";"1";"27";"1";"1";"2";"1";"[26,28,29,30]";"2";"0";"1"
"168";"10";"10";"1";"1";"1";"1";"2";"1";"[2,3,4,5,22]";"1";"2";"1"
"169";"38";"10";"1";"5";"1";"1";"2";"1";"[1,2,4,18]";"1";"0";"1"
"170";"31";"10";"1";"37";"1";"1";"2";"1";"[36,39,40]";"2";"0";"1"
"171";"18";"10";"1";"11";"1";"1";"2";"2";"[12,13,14,15]";"2";"0";"1"
"172";"40";"11";"1";"9";"1";"1";"2";"2";"[6,7,8,10,19,36]";"1";"0";"1"
"173";"39";"11";"1";"6";"1";"1";"2";"1";"[7,8,9]";"1";"0";"1"
"174";"33";"11";"1";"3";"1";"1";"2";"1";"[1,2]";"1";"0";"1"
"175";"24";"11";"1";"13";"1";"1";"2";"2";"[11,12,14,15]";"2";"0";"1"
"176";"6";"11";"1";"21";"1";"1";"2";"1";"[22,23,24,25]";"1";"0";"1"
"177";"9";"11";"1";"27";"1";"1";"2";"1";"[26,28,29,30]";"2";"0";"1"
"178";"18";"11";"1";"11";"1";"1";"2";"2";"[12,13,14,15]";"2";"0";"1"
"179";"40";"12";"1";"9";"1";"1";"2";"2";"[6,7,8,10,19,36]";"1";"0";"1"
"180";"39";"12";"1";"6";"1";"1";"2";"1";"[7,8,9]";"1";"0";"1"
"181";"30";"12";"1";"40";"1";"1";"2";"1";"[36,37,38,39]";"1";"0";"1"
"182";"24";"12";"1";"13";"1";"1";"2";"2";"[11,12,14,15]";"2";"0";"1"
"183";"12";"12";"1";"35";"1";"1";"2";"2";"[31,32,33]";"1";"0";"1"
"184";"7";"13";"1";"7";"1";"1";"2";"2";"[6,8,9,33]";"1";"0";"1"
"185";"30";"13";"1";"40";"1";"1";"2";"1";"[36,37,38,39]";"1";"0";"1"
"186";"12";"13";"1";"35";"1";"1";"2";"2";"[31,32,33]";"1";"0";"1"
"187";"7";"14";"1";"7";"1";"1";"2";"2";"[6,8,9,33]";"1";"0";"1"
"188";"23";"15";"1";"8";"1";"1";"2";"1";"[4,6,7,9]";"1";"0";"1"
"189";"34";"15";"1";"2";"1";"1";"2";"1";"[1,3,4,5,19]";"1";"0";"1"
"190";"8";"15";"1";"25";"1";"1";"2";"2";"[21,23,24]";"2";"0";"1"
"191";"23";"16";"1";"8";"1";"1";"2";"1";"[4,6,7,9]";"1";"0";"1"
"192";"34";"16";"1";"2";"1";"1";"2";"1";"[1,3,4,5,19]";"1";"0";"1"
"193";"8";"16";"1";"25";"1";"1";"2";"2";"[21,23,24]";"2";"0";"1"
"194";"29";"17";"1";"32";"1";"1";"2";"2";"[17,31,33,34,35]";"2";"0";"1"
"195";"29";"18";"1";"32";"1";"1";"2";"2";"[17,31,33,34,35]";"2";"0";"1"
"196";"36";"20";"1";"33";"1";"1";"2";"1";"[7,31,32,35]";"1";"0";"1"
"197";"36";"21";"1";"33";"1";"1";"2";"1";"[7,31,32,35]";"1";"0";"1"
"198";"19";"21";"1";"22";"1";"1";"2";"1";"[1,21,23,24]";"1";"0";"1"
"199";"19";"22";"1";"22";"1";"1";"2";"1";"[1,21,23,24]";"1";"0";"1"
"200";"1";"26";"1";"26";"1";"1";"2";"2";"[4,27,28,29,30]";"1";"0";"1"
"201";"1";"27";"1";"26";"1";"1";"2";"2";"[4,27,28,29,30]";"1";"0";"1"
"202";"11";"3";"1";"14";"1";"1";"3";"2";"[11,12,13,15]";"2";"0";"1"
"203";"28";"3";"1";"4";"1";"1";"3";"1";"[1,2,5,8,26,38]";"1";"0";"1"
"204";"14";"3";"1";"36";"1";"1";"3";"1";"[9,37,38,40]";"1";"0";"1"
"205";"2";"3";"1";"12";"1";"1";"3";"1";"[11,13,14,15]";"1";"0";"1"
"206";"17";"3";"1";"38";"1";"1";"3";"1";"[4,36,39,40]";"1";"0";"1"
"207";"8";"3";"1";"25";"1";"1";"3";"2";"[21,23,24]";"2";"0";"1"
"208";"10";"3";"1";"1";"1";"1";"3";"1";"[2,3,4,5,22]";"0";"1";"1"
"209";"22";"3";"1";"29";"1";"1";"3";"2";"[26,27,28]";"0";"1";"1"
"210";"11";"4";"1";"14";"1";"1";"3";"2";"[11,12,13,15]";"2";"0";"1"
"211";"28";"4";"1";"4";"1";"1";"3";"1";"[1,2,5,8,26,38]";"1";"0";"1"
"212";"14";"4";"1";"36";"1";"1";"3";"1";"[9,37,38,40]";"1";"0";"1"
"213";"13";"4";"1";"18";"1";"1";"3";"1";"[5,16,17,19,20]";"1";"0";"1"
"214";"2";"4";"1";"12";"1";"1";"3";"1";"[11,13,14,15]";"1";"0";"1"
"215";"17";"4";"1";"38";"1";"1";"3";"1";"[4,36,39,40]";"1";"0";"1"
"216";"21";"4";"1";"19";"1";"1";"3";"1";"[2,9,16,17,18,20]";"1";"0";"1"
"217";"8";"4";"1";"25";"1";"1";"3";"2";"[21,23,24]";"2";"0";"1"
"218";"3";"5";"1";"16";"1";"1";"3";"1";"[17,18,19,20]";"1";"0";"1"
"219";"10";"5";"1";"1";"1";"1";"3";"1";"[2,3,4,5,22]";"0";"2";"1"
"220";"15";"5";"1";"10";"1";"1";"3";"1";"[9]";"1";"0";"1"
"221";"22";"5";"1";"29";"1";"1";"3";"2";"[26,27,28]";"0";"2";"1"
"222";"13";"5";"1";"18";"1";"1";"3";"1";"[5,16,17,19,20]";"1";"0";"1"
"223";"21";"5";"1";"19";"1";"1";"3";"1";"[2,9,16,17,18,20]";"1";"0";"1"
"224";"4";"6";"1";"28";"1";"1";"3";"1";"[26,27,29]";"2";"0";"1"
"225";"25";"6";"1";"15";"1";"1";"3";"1";"[11,12,13,14,23,30]";"0";"1";"1"
"226";"3";"6";"1";"16";"1";"1";"3";"1";"[17,18,19,20]";"1";"0";"1"
"227";"5";"6";"1";"34";"1";"1";"3";"2";"[31,32]";"2";"0";"1"
"228";"15";"6";"1";"10";"1";"1";"3";"1";"[9]";"1";"0";"1"
"229";"10";"6";"1";"1";"1";"1";"3";"1";"[2,3,4,5,22]";"0";"3";"1"
"230";"33";"6";"1";"3";"1";"1";"3";"1";"[1,2]";"1";"0";"1"
"231";"25";"6";"1";"15";"1";"1";"3";"1";"[11,12,13,14,23,30]";"0";"2";"1"
"232";"39";"7";"1";"6";"1";"1";"3";"1";"[7,8,9]";"1";"0";"1"
"233";"4";"7";"1";"28";"1";"1";"3";"1";"[26,27,29]";"2";"0";"1"
"234";"5";"7";"1";"34";"1";"1";"3";"2";"[31,32]";"2";"0";"1"
"235";"40";"7";"1";"9";"1";"1";"3";"2";"[6,7,8,10,19,36]";"1";"0";"1"
"236";"22";"7";"1";"29";"1";"1";"3";"2";"[26,27,28]";"2";"2";"1"
"237";"25";"7";"1";"15";"1";"1";"3";"1";"[11,12,13,14,23,30]";"0";"3";"1"
"238";"35";"7";"1";"30";"1";"1";"3";"1";"[15,26,27]";"1";"0";"1"
"239";"33";"7";"1";"3";"1";"1";"3";"1";"[1,2]";"1";"0";"1"
"240";"10";"8";"1";"1";"1";"1";"3";"1";"[2,3,4,5,22]";"1";"3";"1"
"241";"6";"8";"1";"21";"1";"1";"3";"1";"[22,23,24,25]";"1";"0";"1"
"242";"7";"8";"1";"7";"1";"1";"3";"2";"[6,8,9,33]";"1";"0";"1"
"243";"39";"8";"1";"6";"1";"1";"3";"1";"[7,8,9]";"1";"0";"1"
"244";"40";"8";"1";"9";"1";"1";"3";"2";"[6,7,8,10,19,36]";"1";"0";"1"
"245";"22";"8";"1";"29";"1";"1";"3";"2";"[26,27,28]";"2";"2";"1"
"246";"35";"8";"1";"30";"1";"1";"3";"1";"[15,26,27]";"1";"0";"1"
"247";"24";"8";"1";"13";"1";"1";"3";"2";"[11,12,14,15]";"1";"0";"1"
"248";"20";"8";"1";"23";"1";"1";"3";"2";"[15,21,22,24,25]";"0";"3";"1"
"249";"18";"8";"1";"11";"1";"1";"3";"2";"[12,13,14,15]";"1";"0";"1"
"250";"10";"9";"1";"1";"1";"1";"3";"1";"[2,3,4,5,22]";"1";"3";"1"
"251";"6";"9";"1";"21";"1";"1";"3";"1";"[22,23,24,25]";"1";"0";"1"
"252";"7";"9";"1";"7";"1";"1";"3";"2";"[6,8,9,33]";"1";"0";"1"
"253";"37";"9";"1";"17";"1";"1";"3";"1";"[16,18,19,20,32]";"1";"0";"1"
"254";"23";"9";"1";"8";"1";"1";"3";"1";"[4,6,7,9]";"1";"0";"1"
"255";"24";"9";"1";"13";"1";"1";"3";"2";"[11,12,14,15]";"1";"0";"1"
"256";"18";"9";"1";"11";"1";"1";"3";"2";"[12,13,14,15]";"1";"0";"1"
"257";"37";"10";"1";"17";"1";"1";"3";"1";"[16,18,19,20,32]";"1";"0";"1"
"258";"23";"10";"1";"8";"1";"1";"3";"1";"[4,6,7,9]";"1";"0";"1"
"259";"31";"10";"1";"37";"1";"1";"3";"1";"[36,39,40]";"2";"0";"1"
"260";"26";"11";"1";"39";"1";"1";"3";"1";"[37,38,40]";"1";"0";"1"
"261";"32";"11";"1";"20";"1";"1";"3";"1";"[16,17,18,19]";"1";"0";"1"
"262";"38";"11";"1";"5";"1";"1";"3";"1";"[1,2,4,18]";"2";"0";"1"
"263";"16";"11";"1";"31";"1";"1";"3";"1";"[32,33,34,35]";"1";"0";"1"
"264";"31";"12";"1";"37";"1";"1";"3";"1";"[36,39,40]";"2";"0";"1"
"265";"26";"12";"1";"39";"1";"1";"3";"1";"[37,38,40]";"1";"0";"1"
"266";"32";"12";"1";"20";"1";"1";"3";"1";"[16,17,18,19]";"1";"0";"1"
"267";"38";"12";"1";"5";"1";"1";"3";"1";"[1,2,4,18]";"2";"0";"1"
"268";"9";"12";"1";"27";"1";"1";"3";"1";"[26,28,29,30]";"1";"0";"1"
"269";"1";"12";"1";"26";"1";"1";"3";"2";"[4,27,28,29,30]";"2";"0";"1"
"270";"16";"12";"1";"31";"1";"1";"3";"1";"[32,33,34,35]";"1";"0";"1"
"271";"27";"13";"1";"24";"1";"1";"3";"1";"[21,22,23,25]";"0";"1";"1"
"272";"9";"13";"1";"27";"1";"1";"3";"1";"[26,28,29,30]";"1";"0";"1"
"273";"1";"13";"1";"26";"1";"1";"3";"2";"[4,27,28,29,30]";"2";"0";"1"
"274";"27";"15";"1";"24";"1";"1";"3";"1";"[21,22,23,25]";"0";"2";"1"
"275";"27";"16";"1";"24";"1";"1";"3";"1";"[21,22,23,25]";"1";"2";"1"
"276";"20";"16";"1";"23";"1";"1";"3";"2";"[15,21,22,24,25]";"1";"3";"1"
"277";"12";"16";"1";"35";"1";"1";"3";"2";"[31,32,33]";"1";"0";"1"
"278";"27";"17";"1";"24";"1";"1";"3";"1";"[21,22,23,25]";"1";"2";"1"
"279";"20";"17";"1";"23";"1";"1";"3";"2";"[15,21,22,24,25]";"1";"3";"1"
"280";"12";"17";"1";"35";"1";"1";"3";"2";"[31,32,33]";"1";"0";"1"
"281";"19";"19";"1";"22";"1";"1";"3";"1";"[1,21,23,24]";"1";"0";"1"
"282";"19";"20";"1";"22";"1";"1";"3";"1";"[1,21,23,24]";"1";"0";"1"
"283";"34";"20";"1";"2";"1";"1";"3";"1";"[1,3,4,5,19]";"1";"0";"1"
"284";"36";"21";"1";"33";"1";"1";"3";"1";"[7,31,32,35]";"2";"0";"1"
"285";"30";"21";"1";"40";"1";"1";"3";"1";"[36,37,38,39]";"1";"0";"1"
"286";"29";"21";"1";"32";"1";"1";"3";"2";"[17,31,33,34,35]";"2";"0";"1"
"287";"34";"21";"1";"2";"1";"1";"3";"1";"[1,3,4,5,19]";"1";"0";"1"
"288";"36";"22";"1";"33";"1";"1";"3";"1";"[7,31,32,35]";"2";"0";"1"
"289";"30";"22";"1";"40";"1";"1";"3";"1";"[36,37,38,39]";"1";"0";"1"
"290";"29";"22";"1";"32";"1";"1";"3";"2";"[17,31,33,34,35]";"2";"0";"1"
"291";"25";"24";"1";"15";"1";"1";"3";"1";"[11,12,13,14,23,30]";"1";"3";"1"
"292";"25";"25";"1";"15";"1";"1";"3";"1";"[11,12,13,14,23,30]";"1";"3";"1"
"293";"36";"2";"1";"33";"1";"1";"4";"1";"[7,31,32,35]";"0";"2";"1"
"294";"14";"3";"1";"36";"1";"1";"4";"1";"[9,37,38,40]";"1";"0";"1"
"295";"6";"3";"1";"21";"1";"1";"4";"1";"[22,23,24,25]";"1";"0";"1"
"296";"17";"3";"1";"38";"1";"1";"4";"1";"[4,36,39,40]";"1";"0";"1"
"297";"22";"3";"1";"29";"1";"1";"4";"2";"[26,27,28]";"0";"2";"1"
"298";"21";"3";"1";"19";"1";"1";"4";"1";"[2,9,16,17,18,20]";"1";"0";"1"
"299";"10";"3";"1";"1";"1";"1";"4";"1";"[2,3,4,5,22]";"0";"2";"1"
"300";"13";"3";"1";"18";"1";"1";"4";"1";"[5,16,17,19,20]";"1";"0";"1"
"301";"2";"4";"1";"12";"1";"1";"4";"1";"[11,13,14,15]";"1";"0";"1"
"302";"3";"4";"1";"16";"1";"1";"4";"1";"[17,18,19,20]";"1";"0";"1"
"303";"36";"4";"1";"33";"1";"1";"4";"1";"[7,31,32,35]";"0";"1";"1"
"304";"14";"4";"1";"36";"1";"1";"4";"1";"[9,37,38,40]";"1";"0";"1"
"305";"6";"4";"1";"21";"1";"1";"4";"1";"[22,23,24,25]";"1";"0";"1"
"306";"17";"4";"1";"38";"1";"1";"4";"1";"[4,36,39,40]";"1";"0";"1"
"307";"5";"4";"1";"34";"1";"1";"4";"2";"[31,32]";"2";"0";"1"
"308";"16";"4";"1";"31";"1";"1";"4";"1";"[32,33,34,35]";"1";"0";"1"
"309";"21";"4";"1";"19";"1";"1";"4";"1";"[2,9,16,17,18,20]";"1";"0";"1"
"310";"10";"4";"1";"1";"1";"1";"4";"1";"[2,3,4,5,22]";"0";"1";"1"
"311";"22";"4";"1";"29";"1";"1";"4";"2";"[26,27,28]";"0";"1";"1"
"312";"13";"4";"1";"18";"1";"1";"4";"1";"[5,16,17,19,20]";"1";"0";"1"
"313";"2";"5";"1";"12";"1";"1";"4";"1";"[11,13,14,15]";"1";"0";"1"
"314";"8";"5";"1";"25";"1";"1";"4";"2";"[21,23,24]";"1";"0";"1"
"315";"3";"5";"1";"16";"1";"1";"4";"1";"[17,18,19,20]";"1";"0";"1"
"316";"28";"5";"1";"4";"1";"1";"4";"1";"[1,2,5,8,26,38]";"1";"0";"1"
"317";"36";"5";"1";"33";"1";"1";"4";"1";"[7,31,32,35]";"0";"2";"1"
"318";"5";"5";"1";"34";"1";"1";"4";"2";"[31,32]";"2";"0";"1"
"319";"16";"5";"1";"31";"1";"1";"4";"1";"[32,33,34,35]";"1";"0";"1"
"320";"11";"5";"1";"14";"1";"1";"4";"2";"[11,12,13,15]";"1";"0";"1"
"321";"10";"5";"1";"1";"1";"1";"4";"1";"[2,3,4,5,22]";"0";"2";"1"
"322";"39";"5";"1";"6";"1";"1";"4";"1";"[7,8,9]";"1";"0";"1"
"323";"27";"5";"1";"24";"1";"1";"4";"1";"[21,22,23,25]";"1";"0";"1"
"324";"23";"5";"1";"8";"1";"1";"4";"1";"[4,6,7,9]";"1";"0";"1"
"325";"8";"6";"1";"25";"1";"1";"4";"2";"[21,23,24]";"1";"0";"1"
"326";"28";"6";"1";"4";"1";"1";"4";"1";"[1,2,5,8,26,38]";"1";"0";"1"
"327";"22";"6";"1";"29";"1";"1";"4";"2";"[26,27,28]";"0";"2";"1"
"328";"18";"6";"1";"11";"1";"1";"4";"2";"[12,13,14,15]";"1";"0";"1"
"329";"15";"6";"1";"10";"1";"1";"4";"1";"[9]";"1";"0";"1"
"330";"10";"6";"1";"1";"1";"1";"4";"1";"[2,3,4,5,22]";"0";"3";"1"
"331";"11";"6";"1";"14";"1";"1";"4";"2";"[11,12,13,15]";"1";"0";"1"
"332";"39";"6";"1";"6";"1";"1";"4";"1";"[7,8,9]";"1";"0";"1"
"333";"36";"6";"1";"33";"1";"1";"4";"1";"[7,31,32,35]";"0";"3";"1"
"334";"27";"6";"1";"24";"1";"1";"4";"1";"[21,22,23,25]";"1";"0";"1"
"335";"23";"6";"1";"8";"1";"1";"4";"1";"[4,6,7,9]";"1";"0";"1"
"336";"31";"7";"1";"37";"1";"1";"4";"1";"[36,39,40]";"2";"0";"1"
"337";"25";"7";"1";"15";"1";"1";"4";"1";"[11,12,13,14,23,30]";"0";"2";"1"
"338";"18";"7";"1";"11";"1";"1";"4";"2";"[12,13,14,15]";"1";"0";"1"
"339";"26";"7";"1";"39";"1";"1";"4";"1";"[37,38,40]";"1";"0";"1"
"340";"15";"7";"1";"10";"1";"1";"4";"1";"[9]";"1";"0";"1"
"341";"25";"7";"1";"15";"1";"1";"4";"1";"[11,12,13,14,23,30]";"0";"1";"1"
"342";"33";"7";"1";"3";"1";"1";"4";"1";"[1,2]";"1";"0";"1"
"343";"36";"7";"1";"33";"1";"1";"4";"1";"[7,31,32,35]";"0";"4";"1"
"344";"10";"7";"1";"1";"1";"1";"4";"1";"[2,3,4,5,22]";"0";"4";"1"
"345";"30";"7";"1";"40";"1";"1";"4";"1";"[36,37,38,39]";"1";"0";"1"
"346";"31";"8";"1";"37";"1";"1";"4";"1";"[36,39,40]";"2";"0";"1"
"347";"22";"8";"1";"29";"1";"1";"4";"2";"[26,27,28]";"0";"3";"1"
"348";"26";"8";"1";"39";"1";"1";"4";"1";"[37,38,40]";"1";"0";"1"
"349";"25";"8";"1";"15";"1";"1";"4";"1";"[11,12,13,14,23,30]";"0";"2";"1"
"350";"12";"8";"1";"35";"1";"1";"4";"2";"[31,32,33]";"2";"0";"1"
"351";"33";"8";"1";"3";"1";"1";"4";"1";"[1,2]";"1";"0";"1"
"352";"25";"8";"1";"15";"1";"1";"4";"1";"[11,12,13,14,23,30]";"0";"3";"1"
"353";"30";"9";"1";"40";"1";"1";"4";"1";"[36,37,38,39]";"1";"0";"1"
"354";"25";"9";"1";"15";"1";"1";"4";"1";"[11,12,13,14,23,30]";"0";"4";"1"
"355";"10";"9";"1";"1";"1";"1";"4";"1";"[2,3,4,5,22]";"1";"4";"1"
"356";"25";"9";"1";"15";"1";"1";"4";"1";"[11,12,13,14,23,30]";"0";"5";"1"
"357";"29";"9";"1";"32";"1";"1";"4";"2";"[17,31,33,34,35]";"2";"0";"1"
"358";"37";"9";"1";"17";"1";"1";"4";"1";"[16,18,19,20,32]";"2";"0";"1"
"359";"12";"9";"1";"35";"1";"1";"4";"2";"[31,32,33]";"2";"0";"1"
"360";"22";"9";"1";"29";"1";"1";"4";"2";"[26,27,28]";"0";"4";"1"
"361";"38";"10";"1";"5";"1";"1";"4";"1";"[1,2,4,18]";"1";"0";"1"
"362";"25";"10";"1";"15";"1";"1";"4";"1";"[11,12,13,14,23,30]";"0";"5";"1"
"363";"10";"10";"1";"1";"1";"1";"4";"1";"[2,3,4,5,22]";"1";"4";"1"
"364";"29";"10";"1";"32";"1";"1";"4";"2";"[17,31,33,34,35]";"2";"0";"1"
"365";"4";"10";"1";"28";"1";"1";"4";"1";"[26,27,29]";"2";"0";"1"
"366";"37";"10";"1";"17";"1";"1";"4";"1";"[16,18,19,20,32]";"2";"0";"1"
"367";"25";"10";"1";"15";"1";"1";"4";"1";"[11,12,13,14,23,30]";"1";"5";"1"
"368";"38";"11";"1";"5";"1";"1";"4";"1";"[1,2,4,18]";"1";"0";"1"
"369";"4";"11";"1";"28";"1";"1";"4";"1";"[26,27,29]";"2";"0";"1"
"370";"25";"11";"1";"15";"1";"1";"4";"1";"[11,12,13,14,23,30]";"1";"5";"1"
"371";"7";"11";"1";"7";"1";"1";"4";"2";"[6,8,9,33]";"1";"0";"1"
"372";"35";"11";"1";"30";"1";"1";"4";"1";"[15,26,27]";"1";"0";"1"
"373";"1";"12";"1";"26";"1";"1";"4";"2";"[4,27,28,29,30]";"2";"0";"1"
"374";"24";"12";"1";"13";"1";"1";"4";"2";"[11,12,14,15]";"1";"0";"1"
"375";"7";"12";"1";"7";"1";"1";"4";"2";"[6,8,9,33]";"1";"0";"1"
"376";"35";"12";"1";"30";"1";"1";"4";"1";"[15,26,27]";"1";"0";"1"
"377";"1";"13";"1";"26";"1";"1";"4";"2";"[4,27,28,29,30]";"2";"0";"1"
"378";"24";"13";"1";"13";"1";"1";"4";"2";"[11,12,14,15]";"1";"0";"1"
"379";"22";"14";"1";"29";"1";"1";"4";"2";"[26,27,28]";"2";"4";"1"
"380";"32";"14";"1";"20";"1";"1";"4";"1";"[16,17,18,19]";"1";"0";"1"
"381";"36";"15";"1";"33";"1";"1";"4";"1";"[7,31,32,35]";"2";"4";"1"
"382";"22";"15";"1";"29";"1";"1";"4";"2";"[26,27,28]";"2";"4";"1"
"383";"32";"15";"1";"20";"1";"1";"4";"1";"[16,17,18,19]";"1";"0";"1"
"384";"36";"16";"1";"33";"1";"1";"4";"1";"[7,31,32,35]";"2";"4";"1"
"385";"20";"16";"1";"23";"1";"1";"4";"2";"[15,21,22,24,25]";"1";"0";"1"
"386";"20";"17";"1";"23";"1";"1";"4";"2";"[15,21,22,24,25]";"1";"0";"1"
"387";"40";"18";"1";"9";"1";"1";"4";"2";"[6,7,8,10,19,36]";"1";"0";"1"
"388";"9";"19";"1";"27";"1";"1";"4";"1";"[26,28,29,30]";"1";"0";"1"
"389";"40";"19";"1";"9";"1";"1";"4";"2";"[6,7,8,10,19,36]";"1";"0";"1"
"390";"9";"20";"1";"27";"1";"1";"4";"1";"[26,28,29,30]";"1";"0";"1"
"391";"19";"24";"1";"22";"1";"1";"4";"1";"[1,21,23,24]";"1";"0";"1"
"392";"19";"25";"1";"22";"1";"1";"4";"1";"[1,21,23,24]";"1";"0";"1"
"393";"34";"28";"1";"2";"1";"1";"4";"1";"[1,3,4,5,19]";"1";"0";"1"
"394";"34";"29";"1";"2";"1";"1";"4";"1";"[1,3,4,5,19]";"1";"0";"1"
"395";"10";"2";"1";"1";"1";"1";"5";"1";"[2,3,4,5,22]";"0";"6";"1"
"396";"2";"2";"1";"12";"1";"1";"5";"1";"[11,13,14,15]";"1";"0";"1"
"397";"31";"3";"1";"37";"1";"1";"5";"1";"[36,39,40]";"1";"0";"1"
"398";"15";"3";"1";"10";"1";"1";"5";"1";"[9]";"1";"0";"1"
"399";"14";"3";"1";"36";"1";"1";"5";"1";"[9,37,38,40]";"1";"0";"1"
"400";"22";"3";"1";"29";"1";"1";"5";"2";"[26,27,28]";"0";"1";"1"
"401";"37";"3";"1";"17";"1";"1";"5";"1";"[16,18,19,20,32]";"1";"0";"1"
"402";"6";"3";"1";"21";"1";"1";"5";"1";"[22,23,24,25]";"1";"0";"1"
"403";"27";"3";"1";"24";"1";"1";"5";"1";"[21,22,23,25]";"1";"0";"1"
"404";"3";"3";"1";"16";"1";"1";"5";"1";"[17,18,19,20]";"1";"0";"1"
"405";"2";"3";"1";"12";"1";"1";"5";"1";"[11,13,14,15]";"1";"0";"1"
"406";"25";"3";"1";"15";"1";"1";"5";"1";"[11,12,13,14,23,30]";"0";"7";"1"
"407";"33";"3";"1";"3";"1";"1";"5";"1";"[1,2]";"1";"0";"1"
"408";"17";"4";"1";"38";"1";"1";"5";"1";"[4,36,39,40]";"1";"0";"1"
"409";"10";"4";"1";"1";"1";"1";"5";"1";"[2,3,4,5,22]";"0";"3";"1"
"410";"8";"4";"1";"25";"1";"1";"5";"2";"[21,23,24]";"1";"0";"1"
"411";"31";"4";"1";"37";"1";"1";"5";"1";"[36,39,40]";"1";"0";"1"
"412";"15";"4";"1";"10";"1";"1";"5";"1";"[9]";"1";"0";"1"
"413";"13";"4";"1";"18";"1";"1";"5";"1";"[5,16,17,19,20]";"1";"0";"1"
"414";"14";"4";"1";"36";"1";"1";"5";"1";"[9,37,38,40]";"1";"0";"1"
"415";"37";"4";"1";"17";"1";"1";"5";"1";"[16,18,19,20,32]";"1";"0";"1"
"416";"6";"4";"1";"21";"1";"1";"5";"1";"[22,23,24,25]";"1";"0";"1"
"417";"27";"4";"1";"24";"1";"1";"5";"1";"[21,22,23,25]";"1";"0";"1"
"418";"3";"4";"1";"16";"1";"1";"5";"1";"[17,18,19,20]";"1";"0";"1"
"419";"33";"4";"1";"3";"1";"1";"5";"1";"[1,2]";"1";"0";"1"
"420";"4";"5";"1";"28";"1";"1";"5";"1";"[26,27,29]";"2";"0";"1"
"421";"17";"5";"1";"38";"1";"1";"5";"1";"[4,36,39,40]";"1";"0";"1"
"422";"28";"5";"1";"4";"1";"1";"5";"1";"[1,2,5,8,26,38]";"1";"0";"1"
"423";"26";"5";"1";"39";"1";"1";"5";"1";"[37,38,40]";"1";"0";"1"
"424";"10";"5";"1";"1";"1";"1";"5";"1";"[2,3,4,5,22]";"0";"2";"1"
"425";"25";"5";"1";"15";"1";"1";"5";"1";"[11,12,13,14,23,30]";"0";"3";"1"
"426";"18";"5";"1";"11";"1";"1";"5";"2";"[12,13,14,15]";"1";"0";"1"
"427";"8";"5";"1";"25";"1";"1";"5";"2";"[21,23,24]";"1";"0";"1"
"428";"13";"5";"1";"18";"1";"1";"5";"1";"[5,16,17,19,20]";"1";"0";"1"
"429";"23";"5";"1";"8";"1";"1";"5";"1";"[4,6,7,9]";"1";"0";"1"
"430";"19";"5";"1";"22";"1";"1";"5";"1";"[1,21,23,24]";"1";"0";"1"
"431";"20";"5";"1";"23";"1";"1";"5";"2";"[15,21,22,24,25]";"2";"0";"1"
"432";"25";"5";"1";"15";"1";"1";"5";"1";"[11,12,13,14,23,30]";"0";"1";"1"
"433";"35";"5";"1";"30";"1";"1";"5";"1";"[15,26,27]";"1";"0";"1"
"434";"4";"6";"1";"28";"1";"1";"5";"1";"[26,27,29]";"2";"0";"1"
"435";"21";"6";"1";"19";"1";"1";"5";"1";"[2,9,16,17,18,20]";"1";"0";"1"
"436";"10";"6";"1";"1";"1";"1";"5";"1";"[2,3,4,5,22]";"0";"1";"1"
"437";"28";"6";"1";"4";"1";"1";"5";"1";"[1,2,5,8,26,38]";"1";"0";"1"
"438";"26";"6";"1";"39";"1";"1";"5";"1";"[37,38,40]";"1";"0";"1"
"439";"29";"6";"1";"32";"1";"1";"5";"2";"[17,31,33,34,35]";"2";"0";"1"
"440";"18";"6";"1";"11";"1";"1";"5";"2";"[12,13,14,15]";"1";"0";"1"
"441";"11";"6";"1";"14";"1";"1";"5";"2";"[11,12,13,15]";"1";"0";"1"
"442";"38";"6";"1";"5";"1";"1";"5";"1";"[1,2,4,18]";"1";"0";"1"
"443";"23";"6";"1";"8";"1";"1";"5";"1";"[4,6,7,9]";"1";"0";"1"
"444";"19";"6";"1";"22";"1";"1";"5";"1";"[1,21,23,24]";"1";"0";"1"
"445";"20";"6";"1";"23";"1";"1";"5";"2";"[15,21,22,24,25]";"2";"0";"1"
"446";"25";"6";"1";"15";"1";"1";"5";"1";"[11,12,13,14,23,30]";"0";"4";"1"
"447";"26";"6";"1";"39";"1";"1";"5";"1";"[37,38,40]";"1";"3";"1"
"448";"22";"6";"1";"29";"1";"1";"5";"2";"[26,27,28]";"0";"2";"1"
"449";"35";"6";"1";"30";"1";"1";"5";"1";"[15,26,27]";"1";"0";"1"
"450";"25";"7";"1";"15";"1";"1";"5";"1";"[11,12,13,14,23,30]";"0";"5";"1"
"451";"21";"7";"1";"19";"1";"1";"5";"1";"[2,9,16,17,18,20]";"1";"0";"1"
"452";"30";"7";"1";"40";"1";"1";"5";"1";"[36,37,38,39]";"1";"0";"1"
"453";"29";"7";"1";"32";"1";"1";"5";"2";"[17,31,33,34,35]";"2";"0";"1"
"454";"25";"7";"1";"15";"1";"1";"5";"1";"[11,12,13,14,23,30]";"0";"6";"1"
"455";"10";"7";"1";"1";"1";"1";"5";"1";"[2,3,4,5,22]";"0";"4";"1"
"456";"11";"7";"1";"14";"1";"1";"5";"2";"[11,12,13,15]";"1";"0";"1"
"457";"38";"7";"1";"5";"1";"1";"5";"1";"[1,2,4,18]";"1";"0";"1"
"458";"12";"8";"1";"35";"1";"1";"5";"2";"[31,32,33]";"2";"0";"1"
"459";"30";"8";"1";"40";"1";"1";"5";"1";"[36,37,38,39]";"1";"0";"1"
"460";"10";"8";"1";"1";"1";"1";"5";"1";"[2,3,4,5,22]";"0";"5";"1"
"461";"16";"8";"1";"31";"1";"1";"5";"1";"[32,33,34,35]";"1";"0";"1"
"462";"26";"8";"1";"39";"1";"1";"5";"1";"[37,38,40]";"1";"5";"1"
"463";"5";"8";"1";"34";"1";"1";"5";"2";"[31,32]";"1";"0";"1"
"464";"12";"9";"1";"35";"1";"1";"5";"2";"[31,32,33]";"2";"0";"1"
"465";"24";"9";"1";"13";"1";"1";"5";"2";"[11,12,14,15]";"2";"0";"1"
"466";"32";"9";"1";"20";"1";"1";"5";"1";"[16,17,18,19]";"2";"0";"1"
"467";"16";"9";"1";"31";"1";"1";"5";"1";"[32,33,34,35]";"1";"0";"1"
"468";"5";"9";"1";"34";"1";"1";"5";"2";"[31,32]";"1";"0";"1"
"469";"10";"10";"1";"1";"1";"1";"5";"1";"[2,3,4,5,22]";"1";"5";"1"
"470";"4";"10";"1";"28";"1";"1";"5";"1";"[26,27,29]";"2";"1";"1"
"471";"24";"10";"1";"13";"1";"1";"5";"2";"[11,12,14,15]";"2";"0";"1"
"472";"32";"10";"1";"20";"1";"1";"5";"1";"[16,17,18,19]";"2";"0";"1"
"473";"22";"10";"1";"29";"1";"1";"5";"2";"[26,27,28]";"0";"3";"1"
"474";"10";"11";"1";"1";"1";"1";"5";"1";"[2,3,4,5,22]";"1";"5";"1"
"475";"25";"11";"1";"15";"1";"1";"5";"1";"[11,12,13,14,23,30]";"1";"6";"1"
"476";"4";"12";"1";"28";"1";"1";"5";"1";"[26,27,29]";"2";"2";"1"
"477";"22";"12";"1";"29";"1";"1";"5";"2";"[26,27,28]";"0";"4";"1"
"478";"25";"12";"1";"15";"1";"1";"5";"1";"[11,12,13,14,23,30]";"1";"6";"1"
"479";"40";"12";"1";"9";"1";"1";"5";"2";"[6,7,8,10,19,36]";"1";"0";"1"
"480";"7";"13";"1";"7";"1";"1";"5";"2";"[6,8,9,33]";"1";"0";"1"
"481";"9";"13";"1";"27";"1";"1";"5";"1";"[26,28,29,30]";"2";"0";"1"
"482";"40";"13";"1";"9";"1";"1";"5";"2";"[6,7,8,10,19,36]";"1";"0";"1"
"483";"22";"14";"1";"29";"1";"1";"5";"2";"[26,27,28]";"0";"5";"1"
"484";"39";"14";"1";"6";"1";"1";"5";"1";"[7,8,9]";"1";"0";"1"
"485";"7";"14";"1";"7";"1";"1";"5";"2";"[6,8,9,33]";"1";"0";"1"
"486";"9";"14";"1";"27";"1";"1";"5";"1";"[26,28,29,30]";"2";"0";"1"
"487";"4";"15";"1";"28";"1";"1";"5";"1";"[26,27,29]";"2";"9";"1"
"488";"22";"15";"1";"29";"1";"1";"5";"2";"[26,27,28]";"2";"5";"1"
"489";"39";"15";"1";"6";"1";"1";"5";"1";"[7,8,9]";"1";"0";"1"
"490";"22";"16";"1";"29";"1";"1";"5";"2";"[26,27,28]";"2";"5";"1"
"491";"4";"18";"1";"28";"1";"1";"5";"1";"[26,27,29]";"2";"3";"1"
"492";"4";"20";"1";"28";"1";"1";"5";"1";"[26,27,29]";"2";"2";"1"
"493";"4";"20";"1";"28";"1";"1";"5";"1";"[26,27,29]";"2";"4";"1"
"494";"34";"23";"1";"2";"1";"1";"5";"1";"[1,3,4,5,19]";"1";"0";"1"
"495";"1";"23";"1";"26";"1";"1";"5";"2";"[4,27,28,29,30]";"2";"0";"1"
"496";"34";"24";"1";"2";"1";"1";"5";"1";"[1,3,4,5,19]";"1";"0";"1"
"497";"16";"24";"1";"31";"1";"1";"5";"1";"[32,33,34,35]";"1";"2";"1"
"498";"1";"24";"1";"26";"1";"1";"5";"2";"[4,27,28,29,30]";"2";"0";"1"
"499";"16";"25";"1";"31";"1";"1";"5";"1";"[32,33,34,35]";"1";"1";"1"
"500";"16";"26";"1";"31";"1";"1";"5";"1";"[32,33,34,35]";"1";"2";"1"
"501";"16";"27";"1";"31";"1";"1";"5";"1";"[32,33,34,35]";"1";"3";"1"
"502";"16";"28";"1";"31";"1";"1";"5";"1";"[32,33,34,35]";"1";"4";"1"
"503";"16";"28";"1";"31";"1";"1";"5";"1";"[32,33,34,35]";"1";"5";"1"
"504";"36";"29";"1";"33";"1";"1";"5";"1";"[7,31,32,35]";"1";"0";"1"
"505";"20";"30";"1";"23";"1";"1";"5";"2";"[15,21,22,24,25]";"2";"3";"1"
"506";"36";"31";"1";"33";"1";"1";"5";"1";"[7,31,32,35]";"1";"0";"1"
"507";"28";"2";"1";"4";"1";"1";"6";"1";"[1,2,5,8,26,38]";"1";"0";"1"
"508";"25";"3";"1";"15";"1";"1";"6";"1";"[11,12,13,14,23,30]";"0";"7";"1"
"509";"3";"3";"1";"16";"1";"1";"6";"1";"[17,18,19,20]";"1";"0";"1"
"510";"10";"3";"1";"1";"1";"1";"6";"1";"[2,3,4,5,22]";"0";"6";"1"
"511";"29";"3";"1";"32";"1";"1";"6";"2";"[17,31,33,34,35]";"2";"0";"1"
"512";"14";"3";"1";"36";"1";"1";"6";"1";"[9,37,38,40]";"1";"0";"1"
"513";"2";"3";"1";"12";"1";"1";"6";"1";"[11,13,14,15]";"1";"0";"1"
"514";"21";"3";"1";"19";"1";"1";"6";"1";"[2,9,16,17,18,20]";"1";"0";"1"
"515";"6";"3";"1";"21";"1";"1";"6";"1";"[22,23,24,25]";"1";"0";"1"
"516";"26";"3";"1";"39";"1";"1";"6";"1";"[37,38,40]";"1";"0";"1"
"517";"28";"3";"1";"4";"1";"1";"6";"1";"[1,2,5,8,26,38]";"1";"0";"1"
"518";"31";"4";"1";"37";"1";"1";"6";"1";"[36,39,40]";"1";"0";"1"
"519";"13";"4";"1";"18";"1";"1";"6";"1";"[5,16,17,19,20]";"1";"0";"1"
"520";"20";"4";"1";"23";"1";"1";"6";"2";"[15,21,22,24,25]";"2";"0";"1"
"521";"3";"4";"1";"16";"1";"1";"6";"1";"[17,18,19,20]";"1";"0";"1"
"522";"15";"4";"1";"10";"1";"1";"6";"1";"[9]";"1";"0";"1"
"523";"19";"4";"1";"22";"1";"1";"6";"1";"[1,21,23,24]";"1";"0";"1"
"524";"14";"4";"1";"36";"1";"1";"6";"1";"[9,37,38,40]";"1";"0";"1"
"525";"29";"4";"1";"32";"1";"1";"6";"2";"[17,31,33,34,35]";"2";"0";"1"
"526";"2";"4";"1";"12";"1";"1";"6";"1";"[11,13,14,15]";"1";"0";"1"
"527";"30";"4";"1";"40";"1";"1";"6";"1";"[36,37,38,39]";"1";"0";"1"
"528";"21";"4";"1";"19";"1";"1";"6";"1";"[2,9,16,17,18,20]";"1";"0";"1"
"529";"6";"4";"1";"21";"1";"1";"6";"1";"[22,23,24,25]";"1";"0";"1"
"530";"26";"4";"1";"39";"1";"1";"6";"1";"[37,38,40]";"1";"0";"1"
"531";"16";"4";"1";"31";"1";"1";"6";"1";"[32,33,34,35]";"1";"0";"1"
"532";"5";"4";"1";"34";"1";"1";"6";"2";"[31,32]";"2";"0";"1"
"533";"10";"4";"1";"1";"1";"1";"6";"1";"[2,3,4,5,22]";"0";"4";"1"
"534";"31";"5";"1";"37";"1";"1";"6";"1";"[36,39,40]";"1";"0";"1"
"535";"13";"5";"1";"18";"1";"1";"6";"1";"[5,16,17,19,20]";"1";"0";"1"
"536";"20";"5";"1";"23";"1";"1";"6";"2";"[15,21,22,24,25]";"2";"0";"1"
"537";"15";"5";"1";"10";"1";"1";"6";"1";"[9]";"1";"0";"1"
"538";"23";"5";"1";"8";"1";"1";"6";"1";"[4,6,7,9]";"1";"0";"1"
"539";"39";"5";"1";"6";"1";"1";"6";"1";"[7,8,9]";"2";"0";"1"
"540";"19";"5";"1";"22";"1";"1";"6";"1";"[1,21,23,24]";"1";"0";"1"
"541";"11";"5";"1";"14";"1";"1";"6";"2";"[11,12,13,15]";"1";"0";"1"
"542";"27";"5";"1";"24";"1";"1";"6";"1";"[21,22,23,25]";"1";"0";"1"
"543";"30";"5";"1";"40";"1";"1";"6";"1";"[36,37,38,39]";"1";"0";"1"
"544";"16";"5";"1";"31";"1";"1";"6";"1";"[32,33,34,35]";"1";"0";"1"
"545";"5";"5";"1";"34";"1";"1";"6";"2";"[31,32]";"2";"0";"1"
"546";"32";"6";"1";"20";"1";"1";"6";"1";"[16,17,18,19]";"1";"0";"1"
"547";"23";"6";"1";"8";"1";"1";"6";"1";"[4,6,7,9]";"1";"0";"1"
"548";"39";"6";"1";"6";"1";"1";"6";"1";"[7,8,9]";"2";"0";"1"
"549";"7";"6";"1";"7";"1";"1";"6";"2";"[6,8,9,33]";"1";"0";"1"
"550";"11";"6";"1";"14";"1";"1";"6";"2";"[11,12,13,15]";"1";"0";"1"
"551";"10";"6";"1";"1";"1";"1";"6";"1";"[2,3,4,5,22]";"0";"6";"1"
"552";"27";"6";"1";"24";"1";"1";"6";"1";"[21,22,23,25]";"1";"0";"1"
"553";"32";"7";"1";"20";"1";"1";"6";"1";"[16,17,18,19]";"1";"0";"1"
"554";"18";"7";"1";"11";"1";"1";"6";"2";"[12,13,14,15]";"1";"0";"1"
"555";"36";"7";"1";"33";"1";"1";"6";"1";"[7,31,32,35]";"0";"4";"1"
"556";"7";"7";"1";"7";"1";"1";"6";"2";"[6,8,9,33]";"1";"0";"1"
"557";"10";"7";"1";"1";"1";"1";"6";"1";"[2,3,4,5,22]";"1";"6";"1"
"558";"17";"7";"1";"38";"1";"1";"6";"1";"[4,36,39,40]";"2";"0";"1"
"559";"4";"8";"1";"28";"1";"1";"6";"1";"[26,27,29]";"2";"0";"1"
"560";"18";"8";"1";"11";"1";"1";"6";"2";"[12,13,14,15]";"1";"0";"1"
"561";"40";"8";"1";"9";"1";"1";"6";"2";"[6,7,8,10,19,36]";"1";"0";"1"
"562";"36";"8";"1";"33";"1";"1";"6";"1";"[7,31,32,35]";"0";"5";"1"
"563";"10";"8";"1";"1";"1";"1";"6";"1";"[2,3,4,5,22]";"1";"6";"1"
"564";"17";"8";"1";"38";"1";"1";"6";"1";"[4,36,39,40]";"2";"0";"1"
"565";"4";"9";"1";"28";"1";"1";"6";"1";"[26,27,29]";"2";"0";"1"
"566";"40";"9";"1";"9";"1";"1";"6";"2";"[6,7,8,10,19,36]";"1";"0";"1"
"567";"22";"9";"1";"29";"1";"1";"6";"2";"[26,27,28]";"2";"0";"1"
"568";"8";"10";"1";"25";"1";"1";"6";"2";"[21,23,24]";"2";"0";"1"
"569";"22";"10";"1";"29";"1";"1";"6";"2";"[26,27,28]";"2";"0";"1"
"570";"8";"11";"1";"25";"1";"1";"6";"2";"[21,23,24]";"2";"0";"1"
"571";"37";"12";"1";"17";"1";"1";"6";"1";"[16,18,19,20,32]";"1";"0";"1"
"572";"25";"12";"1";"15";"1";"1";"6";"1";"[11,12,13,14,23,30]";"0";"4";"1"
"573";"25";"12";"1";"15";"1";"1";"6";"1";"[11,12,13,14,23,30]";"0";"5";"1"
"574";"37";"13";"1";"17";"1";"1";"6";"1";"[16,18,19,20,32]";"1";"0";"1"
"575";"25";"13";"1";"15";"1";"1";"6";"1";"[11,12,13,14,23,30]";"1";"5";"1"
"576";"25";"14";"1";"15";"1";"1";"6";"1";"[11,12,13,14,23,30]";"1";"5";"1"
"577";"9";"15";"1";"27";"1";"1";"6";"1";"[26,28,29,30]";"2";"0";"1"
"578";"9";"16";"1";"27";"1";"1";"6";"1";"[26,28,29,30]";"2";"0";"1"
"579";"1";"16";"1";"26";"1";"1";"6";"2";"[4,27,28,29,30]";"2";"0";"1"
"580";"24";"16";"1";"13";"1";"1";"6";"2";"[11,12,14,15]";"2";"0";"1"
"581";"1";"17";"1";"26";"1";"1";"6";"2";"[4,27,28,29,30]";"2";"0";"1"
"582";"24";"17";"1";"13";"1";"1";"6";"2";"[11,12,14,15]";"2";"0";"1"
"583";"36";"18";"1";"33";"1";"1";"6";"1";"[7,31,32,35]";"2";"5";"1"
"584";"33";"18";"1";"3";"1";"1";"6";"1";"[1,2]";"1";"0";"1"
"585";"35";"18";"1";"30";"1";"1";"6";"1";"[15,26,27]";"1";"0";"1"
"586";"36";"19";"1";"33";"1";"1";"6";"1";"[7,31,32,35]";"2";"5";"1"
"587";"33";"19";"1";"3";"1";"1";"6";"1";"[1,2]";"1";"0";"1"
"588";"38";"19";"1";"5";"1";"1";"6";"1";"[1,2,4,18]";"1";"0";"1"
"589";"35";"19";"1";"30";"1";"1";"6";"1";"[15,26,27]";"1";"0";"1"
"590";"38";"20";"1";"5";"1";"1";"6";"1";"[1,2,4,18]";"1";"0";"1"
"591";"34";"20";"1";"2";"1";"1";"6";"1";"[1,3,4,5,19]";"2";"0";"1"
"592";"34";"21";"1";"2";"1";"1";"6";"1";"[1,3,4,5,19]";"2";"0";"1"
"593";"12";"25";"1";"35";"1";"1";"6";"2";"[31,32,33]";"2";"0";"1"
"594";"12";"26";"1";"35";"1";"1";"6";"2";"[31,32,33]";"2";"0";"1"
"595";"13";"1";"1";"18";"1";"1";"7";"1";"[5,16,17,19,20]";"1";"0";"1"
"596";"11";"2";"1";"14";"1";"1";"7";"2";"[11,12,13,15]";"1";"0";"1"
"597";"13";"2";"1";"18";"1";"1";"7";"1";"[5,16,17,19,20]";"1";"0";"1"
"598";"15";"2";"1";"10";"1";"1";"7";"1";"[9]";"1";"0";"1"
"599";"6";"2";"1";"21";"1";"1";"7";"1";"[22,23,24,25]";"1";"0";"1"
"600";"3";"3";"1";"16";"1";"1";"7";"1";"[17,18,19,20]";"1";"0";"1"
"601";"11";"3";"1";"14";"1";"1";"7";"2";"[11,12,13,15]";"1";"0";"1"
"602";"8";"3";"1";"25";"1";"1";"7";"2";"[21,23,24]";"2";"0";"1"
"603";"31";"3";"1";"37";"1";"1";"7";"1";"[36,39,40]";"1";"0";"1"
"604";"19";"3";"1";"22";"1";"1";"7";"1";"[1,21,23,24]";"1";"0";"1"
"605";"15";"3";"1";"10";"1";"1";"7";"1";"[9]";"1";"0";"1"
"606";"21";"3";"1";"19";"1";"1";"7";"1";"[2,9,16,17,18,20]";"1";"0";"1"
"607";"28";"3";"1";"4";"1";"1";"7";"1";"[1,2,5,8,26,38]";"1";"0";"1"
"608";"6";"3";"1";"21";"1";"1";"7";"1";"[22,23,24,25]";"1";"0";"1"
"609";"10";"4";"1";"1";"1";"1";"7";"1";"[2,3,4,5,22]";"0";"5";"1"
"610";"3";"4";"1";"16";"1";"1";"7";"1";"[17,18,19,20]";"1";"0";"1"
"611";"4";"4";"1";"28";"1";"1";"7";"1";"[26,27,29]";"1";"0";"1"
"612";"39";"4";"1";"6";"1";"1";"7";"1";"[7,8,9]";"1";"0";"1"
"613";"8";"4";"1";"25";"1";"1";"7";"2";"[21,23,24]";"2";"0";"1"
"614";"31";"4";"1";"37";"1";"1";"7";"1";"[36,39,40]";"1";"0";"1"
"615";"2";"4";"1";"12";"1";"1";"7";"1";"[11,13,14,15]";"1";"0";"1"
"616";"22";"4";"1";"29";"1";"1";"7";"2";"[26,27,28]";"2";"0";"1"
"617";"38";"4";"1";"5";"1";"1";"7";"1";"[1,2,4,18]";"2";"0";"1"
"618";"16";"4";"1";"31";"1";"1";"7";"1";"[32,33,34,35]";"1";"0";"1"
"619";"29";"4";"1";"32";"1";"1";"7";"2";"[17,31,33,34,35]";"2";"0";"1"
"620";"19";"4";"1";"22";"1";"1";"7";"1";"[1,21,23,24]";"1";"0";"1"
"621";"21";"4";"1";"19";"1";"1";"7";"1";"[2,9,16,17,18,20]";"1";"0";"1"
"622";"28";"4";"1";"4";"1";"1";"7";"1";"[1,2,5,8,26,38]";"1";"0";"1"
"623";"10";"5";"1";"1";"1";"1";"7";"1";"[2,3,4,5,22]";"0";"4";"1"
"624";"5";"5";"1";"34";"1";"1";"7";"2";"[31,32]";"2";"0";"1"
"625";"4";"5";"1";"28";"1";"1";"7";"1";"[26,27,29]";"1";"0";"1"
"626";"39";"5";"1";"6";"1";"1";"7";"1";"[7,8,9]";"1";"0";"1"
"627";"2";"5";"1";"12";"1";"1";"7";"1";"[11,13,14,15]";"1";"0";"1"
"628";"22";"5";"1";"29";"1";"1";"7";"2";"[26,27,28]";"2";"0";"1"
"629";"38";"5";"1";"5";"1";"1";"7";"1";"[1,2,4,18]";"2";"0";"1"
"630";"16";"5";"1";"31";"1";"1";"7";"1";"[32,33,34,35]";"1";"0";"1"
"631";"26";"5";"1";"39";"1";"1";"7";"1";"[37,38,40]";"1";"0";"1"
"632";"29";"5";"1";"32";"1";"1";"7";"2";"[17,31,33,34,35]";"2";"0";"1"
"633";"18";"5";"1";"11";"1";"1";"7";"2";"[12,13,14,15]";"1";"0";"1"
"634";"10";"5";"1";"1";"1";"1";"7";"1";"[2,3,4,5,22]";"0";"3";"1"
"635";"5";"6";"1";"34";"1";"1";"7";"2";"[31,32]";"2";"0";"1"
"636";"17";"6";"1";"38";"1";"1";"7";"1";"[4,36,39,40]";"1";"0";"1"
"637";"37";"6";"1";"17";"1";"1";"7";"1";"[16,18,19,20,32]";"1";"0";"1"
"638";"26";"6";"1";"39";"1";"1";"7";"1";"[37,38,40]";"1";"0";"1"
"639";"14";"6";"1";"36";"1";"1";"7";"1";"[9,37,38,40]";"2";"0";"1"
"640";"12";"6";"1";"35";"1";"1";"7";"2";"[31,32,33]";"1";"0";"1"
"641";"18";"6";"1";"11";"1";"1";"7";"2";"[12,13,14,15]";"1";"0";"1"
"642";"10";"6";"1";"1";"1";"1";"7";"1";"[2,3,4,5,22]";"0";"2";"1"
"643";"17";"7";"1";"38";"1";"1";"7";"1";"[4,36,39,40]";"1";"0";"1"
"644";"37";"7";"1";"17";"1";"1";"7";"1";"[16,18,19,20,32]";"1";"0";"1"
"645";"10";"7";"1";"1";"1";"1";"7";"1";"[2,3,4,5,22]";"0";"1";"1"
"646";"14";"7";"1";"36";"1";"1";"7";"1";"[9,37,38,40]";"2";"0";"1"
"647";"12";"7";"1";"35";"1";"1";"7";"2";"[31,32,33]";"1";"0";"1"
"648";"40";"8";"1";"9";"1";"1";"7";"2";"[6,7,8,10,19,36]";"1";"0";"1"
"649";"10";"8";"1";"1";"1";"1";"7";"1";"[2,3,4,5,22]";"0";"3";"1"
"650";"20";"9";"1";"23";"1";"1";"7";"2";"[15,21,22,24,25]";"2";"0";"1"
"651";"25";"9";"1";"15";"1";"1";"7";"1";"[11,12,13,14,23,30]";"0";"7";"1"
"652";"40";"9";"1";"9";"1";"1";"7";"2";"[6,7,8,10,19,36]";"1";"0";"1"
"653";"10";"10";"1";"1";"1";"1";"7";"1";"[2,3,4,5,22]";"0";"5";"1"
"654";"20";"10";"1";"23";"1";"1";"7";"2";"[15,21,22,24,25]";"2";"0";"1"
"655";"35";"10";"1";"30";"1";"1";"7";"1";"[15,26,27]";"1";"0";"1"
"656";"25";"10";"1";"15";"1";"1";"7";"1";"[11,12,13,14,23,30]";"0";"5";"1"
"657";"33";"10";"1";"3";"1";"1";"7";"1";"[1,2]";"1";"0";"1"
"658";"25";"11";"1";"15";"1";"1";"7";"1";"[11,12,13,14,23,30]";"0";"3";"1"
"659";"35";"11";"1";"30";"1";"1";"7";"1";"[15,26,27]";"1";"0";"1"
"660";"10";"11";"1";"1";"1";"1";"7";"1";"[2,3,4,5,22]";"0";"6";"1"
"661";"25";"11";"1";"15";"1";"1";"7";"1";"[11,12,13,14,23,30]";"0";"2";"1"
"662";"25";"11";"1";"15";"1";"1";"7";"1";"[11,12,13,14,23,30]";"0";"1";"1"
"663";"33";"11";"1";"3";"1";"1";"7";"1";"[1,2]";"1";"0";"1"
"664";"14";"11";"1";"36";"1";"1";"7";"1";"[9,37,38,40]";"2";"5";"1"
"665";"30";"11";"1";"40";"1";"1";"7";"1";"[36,37,38,39]";"2";"0";"1"
"666";"24";"12";"1";"13";"1";"1";"7";"2";"[11,12,14,15]";"0";"1";"1"
"667";"30";"12";"1";"40";"1";"1";"7";"1";"[36,37,38,39]";"2";"0";"1"
"668";"14";"13";"1";"36";"1";"1";"7";"1";"[9,37,38,40]";"2";"6";"1"
"669";"10";"13";"1";"1";"1";"1";"7";"1";"[2,3,4,5,22]";"1";"6";"1"
"670";"24";"13";"1";"13";"1";"1";"7";"2";"[11,12,14,15]";"0";"2";"1"
"671";"10";"14";"1";"1";"1";"1";"7";"1";"[2,3,4,5,22]";"1";"6";"1"
"672";"36";"14";"1";"33";"1";"1";"7";"1";"[7,31,32,35]";"0";"5";"1"
"673";"24";"14";"1";"13";"1";"1";"7";"2";"[11,12,14,15]";"0";"3";"1"
"674";"7";"14";"1";"7";"1";"1";"7";"2";"[6,8,9,33]";"1";"0";"1"
"675";"25";"15";"1";"15";"1";"1";"7";"1";"[11,12,13,14,23,30]";"0";"2";"1"
"676";"24";"15";"1";"13";"1";"1";"7";"2";"[11,12,14,15]";"0";"4";"1"
"677";"25";"15";"1";"15";"1";"1";"7";"1";"[11,12,13,14,23,30]";"0";"3";"1"
"678";"36";"15";"1";"33";"1";"1";"7";"1";"[7,31,32,35]";"0";"6";"1"
"679";"7";"15";"1";"7";"1";"1";"7";"2";"[6,8,9,33]";"1";"0";"1"
"680";"34";"15";"1";"2";"1";"1";"7";"1";"[1,3,4,5,19]";"1";"0";"1"
"681";"24";"16";"1";"13";"1";"1";"7";"2";"[11,12,14,15]";"0";"5";"1"
"682";"17";"16";"1";"38";"1";"1";"7";"1";"[4,36,39,40]";"1";"4";"1"
"683";"25";"16";"1";"15";"1";"1";"7";"1";"[11,12,13,14,23,30]";"0";"6";"1"
"684";"36";"16";"1";"33";"1";"1";"7";"1";"[7,31,32,35]";"0";"5";"1"
"685";"34";"16";"1";"2";"1";"1";"7";"1";"[1,3,4,5,19]";"1";"0";"1"
"686";"24";"16";"1";"13";"1";"1";"7";"2";"[11,12,14,15]";"0";"7";"1"
"687";"27";"16";"1";"24";"1";"1";"7";"1";"[21,22,23,25]";"1";"0";"1"
"688";"32";"17";"1";"20";"1";"1";"7";"1";"[16,17,18,19]";"1";"0";"1"
"689";"23";"17";"1";"8";"1";"1";"7";"1";"[4,6,7,9]";"1";"0";"1"
"690";"10";"17";"1";"1";"1";"1";"7";"1";"[2,3,4,5,22]";"1";"7";"1"
"691";"36";"17";"1";"33";"1";"1";"7";"1";"[7,31,32,35]";"0";"6";"1"
"692";"1";"17";"1";"26";"1";"1";"7";"2";"[4,27,28,29,30]";"2";"0";"1"
"693";"27";"17";"1";"24";"1";"1";"7";"1";"[21,22,23,25]";"1";"0";"1"
"694";"32";"18";"1";"20";"1";"1";"7";"1";"[16,17,18,19]";"1";"0";"1"
"695";"25";"18";"1";"15";"1";"1";"7";"1";"[11,12,13,14,23,30]";"0";"8";"1"
"696";"23";"18";"1";"8";"1";"1";"7";"1";"[4,6,7,9]";"1";"0";"1"
"697";"17";"18";"1";"38";"1";"1";"7";"1";"[4,36,39,40]";"1";"6";"1"
"698";"25";"18";"1";"15";"1";"1";"7";"1";"[11,12,13,14,23,30]";"0";"8";"1"
"699";"1";"18";"1";"26";"1";"1";"7";"2";"[4,27,28,29,30]";"2";"0";"1"
"700";"36";"19";"1";"33";"1";"1";"7";"1";"[7,31,32,35]";"1";"6";"1"
"701";"9";"19";"1";"27";"1";"1";"7";"1";"[26,28,29,30]";"2";"0";"1"
"702";"25";"19";"1";"15";"1";"1";"7";"1";"[11,12,13,14,23,30]";"1";"8";"1"
"703";"36";"20";"1";"33";"1";"1";"7";"1";"[7,31,32,35]";"1";"6";"1"
"704";"9";"20";"1";"27";"1";"1";"7";"1";"[26,28,29,30]";"2";"0";"1"
"705";"25";"20";"1";"15";"1";"1";"7";"1";"[11,12,13,14,23,30]";"1";"8";"1"
"706";"24";"21";"1";"13";"1";"1";"7";"2";"[11,12,14,15]";"2";"7";"1"
"707";"24";"22";"1";"13";"1";"1";"7";"2";"[11,12,14,15]";"2";"7";"1"
"708";"6";"1";"1";"21";"1";"1";"8";"1";"[22,23,24,25]";"1";"0";"1"
"709";"13";"1";"1";"18";"1";"1";"8";"1";"[5,16,17,19,20]";"1";"0";"1"
"710";"16";"2";"1";"31";"1";"1";"8";"1";"[32,33,34,35]";"1";"0";"1"
"711";"6";"2";"1";"21";"1";"1";"8";"1";"[22,23,24,25]";"1";"0";"1"
"712";"8";"2";"1";"25";"1";"1";"8";"2";"[21,23,24]";"2";"0";"1"
"713";"28";"2";"1";"4";"1";"1";"8";"1";"[1,2,5,8,26,38]";"1";"0";"1"
"714";"15";"2";"1";"10";"1";"1";"8";"1";"[9]";"1";"0";"1"
"715";"13";"2";"1";"18";"1";"1";"8";"1";"[5,16,17,19,20]";"1";"0";"1"
"716";"25";"2";"1";"15";"1";"1";"8";"1";"[11,12,13,14,23,30]";"0";"8";"1"
"717";"3";"3";"1";"16";"1";"1";"8";"1";"[17,18,19,20]";"1";"0";"1"
"718";"10";"3";"1";"1";"1";"1";"8";"1";"[2,3,4,5,22]";"0";"9";"1"
"719";"2";"3";"1";"12";"1";"1";"8";"1";"[11,13,14,15]";"1";"0";"1"
"720";"16";"3";"1";"31";"1";"1";"8";"1";"[32,33,34,35]";"1";"0";"1"
"721";"8";"3";"1";"25";"1";"1";"8";"2";"[21,23,24]";"2";"0";"1"
"722";"28";"3";"1";"4";"1";"1";"8";"1";"[1,2,5,8,26,38]";"1";"0";"1"
"723";"11";"3";"1";"14";"1";"1";"8";"2";"[11,12,13,15]";"1";"0";"1"
"724";"15";"3";"1";"10";"1";"1";"8";"1";"[9]";"1";"0";"1"
"725";"39";"3";"1";"6";"1";"1";"8";"1";"[7,8,9]";"1";"0";"1"
"726";"14";"4";"1";"36";"1";"1";"8";"1";"[9,37,38,40]";"1";"0";"1"
"727";"37";"4";"1";"17";"1";"1";"8";"1";"[16,18,19,20,32]";"2";"0";"1"
"728";"3";"4";"1";"16";"1";"1";"8";"1";"[17,18,19,20]";"1";"0";"1"
"729";"7";"4";"1";"7";"1";"1";"8";"2";"[6,8,9,33]";"1";"0";"1"
"730";"2";"4";"1";"12";"1";"1";"8";"1";"[11,13,14,15]";"1";"0";"1"
"731";"18";"4";"1";"11";"1";"1";"8";"2";"[12,13,14,15]";"0";"3";"1"
"732";"26";"4";"1";"39";"1";"1";"8";"1";"[37,38,40]";"1";"0";"1"
"733";"35";"4";"1";"30";"1";"1";"8";"1";"[15,26,27]";"1";"0";"1"
"734";"11";"4";"1";"14";"1";"1";"8";"2";"[11,12,13,15]";"1";"0";"1"
"735";"17";"4";"1";"38";"1";"1";"8";"1";"[4,36,39,40]";"1";"0";"1"
"736";"39";"4";"1";"6";"1";"1";"8";"1";"[7,8,9]";"1";"0";"1"
"737";"14";"5";"1";"36";"1";"1";"8";"1";"[9,37,38,40]";"1";"0";"1"
"738";"37";"5";"1";"17";"1";"1";"8";"1";"[16,18,19,20,32]";"2";"0";"1"
"739";"7";"5";"1";"7";"1";"1";"8";"2";"[6,8,9,33]";"1";"0";"1"
"740";"4";"5";"1";"28";"1";"1";"8";"1";"[26,27,29]";"1";"0";"1"
"741";"31";"5";"1";"37";"1";"1";"8";"1";"[36,39,40]";"1";"0";"1"
"742";"26";"5";"1";"39";"1";"1";"8";"1";"[37,38,40]";"1";"0";"1"
"743";"19";"5";"1";"22";"1";"1";"8";"1";"[1,21,23,24]";"1";"0";"1"
"744";"30";"5";"1";"40";"1";"1";"8";"1";"[36,37,38,39]";"1";"0";"1"
"745";"18";"5";"1";"11";"1";"1";"8";"2";"[12,13,14,15]";"0";"5";"1"
"746";"35";"5";"1";"30";"1";"1";"8";"1";"[15,26,27]";"1";"0";"1"
"747";"20";"5";"1";"23";"1";"1";"8";"2";"[15,21,22,24,25]";"2";"0";"1"
"748";"17";"5";"1";"38";"1";"1";"8";"1";"[4,36,39,40]";"1";"0";"1"
"749";"33";"6";"1";"3";"1";"1";"8";"1";"[1,2]";"1";"0";"1"
"750";"22";"6";"1";"29";"1";"1";"8";"2";"[26,27,28]";"2";"0";"1"
"751";"4";"6";"1";"28";"1";"1";"8";"1";"[26,27,29]";"1";"0";"1"
"752";"21";"6";"1";"19";"1";"1";"8";"1";"[2,9,16,17,18,20]";"1";"0";"1"
"753";"31";"6";"1";"37";"1";"1";"8";"1";"[36,39,40]";"1";"0";"1"
"754";"18";"6";"1";"11";"1";"1";"8";"2";"[12,13,14,15]";"0";"6";"1"
"755";"19";"6";"1";"22";"1";"1";"8";"1";"[1,21,23,24]";"1";"0";"1"
"756";"24";"6";"1";"13";"1";"1";"8";"2";"[11,12,14,15]";"1";"0";"1"
"757";"30";"6";"1";"40";"1";"1";"8";"1";"[36,37,38,39]";"1";"0";"1"
"758";"23";"6";"1";"8";"1";"1";"8";"1";"[4,6,7,9]";"1";"0";"1"
"759";"20";"6";"1";"23";"1";"1";"8";"2";"[15,21,22,24,25]";"2";"0";"1"
"760";"33";"7";"1";"3";"1";"1";"8";"1";"[1,2]";"1";"0";"1"
"761";"22";"7";"1";"29";"1";"1";"8";"2";"[26,27,28]";"2";"0";"1"
"762";"18";"7";"1";"11";"1";"1";"8";"2";"[12,13,14,15]";"0";"7";"1"
"763";"21";"7";"1";"19";"1";"1";"8";"1";"[2,9,16,17,18,20]";"1";"0";"1"
"764";"5";"7";"1";"34";"1";"1";"8";"2";"[31,32]";"2";"0";"1"
"765";"24";"7";"1";"13";"1";"1";"8";"2";"[11,12,14,15]";"1";"0";"1"
"766";"23";"7";"1";"8";"1";"1";"8";"1";"[4,6,7,9]";"1";"0";"1"
"767";"18";"7";"1";"11";"1";"1";"8";"2";"[12,13,14,15]";"0";"8";"1"
"768";"18";"8";"1";"11";"1";"1";"8";"2";"[12,13,14,15]";"0";"9";"1"
"769";"5";"8";"1";"34";"1";"1";"8";"2";"[31,32]";"2";"0";"1"
"770";"29";"8";"1";"32";"1";"1";"8";"2";"[17,31,33,34,35]";"2";"0";"1"
"771";"29";"9";"1";"32";"1";"1";"8";"2";"[17,31,33,34,35]";"2";"0";"1"
"772";"38";"9";"1";"5";"1";"1";"8";"1";"[1,2,4,18]";"2";"0";"1"
"773";"25";"9";"1";"15";"1";"1";"8";"1";"[11,12,13,14,23,30]";"1";"8";"1"
"774";"10";"10";"1";"1";"1";"1";"8";"1";"[2,3,4,5,22]";"1";"9";"1"
"775";"40";"10";"1";"9";"1";"1";"8";"2";"[6,7,8,10,19,36]";"1";"0";"1"
"776";"38";"10";"1";"5";"1";"1";"8";"1";"[1,2,4,18]";"2";"0";"1"
"777";"25";"10";"1";"15";"1";"1";"8";"1";"[11,12,13,14,23,30]";"1";"8";"1"
"778";"10";"11";"1";"1";"1";"1";"8";"1";"[2,3,4,5,22]";"1";"9";"1"
"779";"40";"11";"1";"9";"1";"1";"8";"2";"[6,7,8,10,19,36]";"1";"0";"1"
"780";"34";"13";"1";"2";"1";"1";"8";"1";"[1,3,4,5,19]";"1";"0";"1"
"781";"1";"13";"1";"26";"1";"1";"8";"2";"[4,27,28,29,30]";"0";"8";"1"
"782";"34";"14";"1";"2";"1";"1";"8";"1";"[1,3,4,5,19]";"1";"0";"1"
"783";"1";"14";"1";"26";"1";"1";"8";"2";"[4,27,28,29,30]";"0";"8";"1"
"784";"27";"15";"1";"24";"1";"1";"8";"1";"[21,22,23,25]";"1";"0";"1"
"785";"18";"15";"1";"11";"1";"1";"8";"2";"[12,13,14,15]";"1";"9";"1"
"786";"12";"16";"1";"35";"1";"1";"8";"2";"[31,32,33]";"1";"0";"1"
"787";"27";"16";"1";"24";"1";"1";"8";"1";"[21,22,23,25]";"1";"0";"1"
"788";"1";"16";"1";"26";"1";"1";"8";"2";"[4,27,28,29,30]";"2";"8";"1"
"789";"18";"16";"1";"11";"1";"1";"8";"2";"[12,13,14,15]";"1";"9";"1"
"790";"12";"17";"1";"35";"1";"1";"8";"2";"[31,32,33]";"1";"0";"1"
"791";"32";"17";"1";"20";"1";"1";"8";"1";"[16,17,18,19]";"1";"0";"1"
"792";"1";"17";"1";"26";"1";"1";"8";"2";"[4,27,28,29,30]";"2";"8";"1"
"793";"32";"18";"1";"20";"1";"1";"8";"1";"[16,17,18,19]";"1";"0";"1"
"794";"9";"21";"1";"27";"1";"1";"8";"1";"[26,28,29,30]";"2";"0";"1"
"795";"36";"21";"1";"33";"1";"1";"8";"1";"[7,31,32,35]";"1";"0";"1"
"796";"9";"22";"1";"27";"1";"1";"8";"1";"[26,28,29,30]";"2";"0";"1"
"797";"36";"22";"1";"33";"1";"1";"8";"1";"[7,31,32,35]";"1";"0";"1"
"798";"15";"1";"1";"10";"1";"1";"9";"1";"[9]";"1";"0";"1"
"799";"14";"1";"1";"36";"1";"1";"9";"1";"[9,37,38,40]";"1";"0";"1"
"800";"8";"2";"1";"25";"1";"1";"9";"2";"[21,23,24]";"2";"0";"1"
"801";"2";"2";"1";"12";"1";"1";"9";"1";"[11,13,14,15]";"1";"0";"1"
"802";"11";"2";"1";"14";"1";"1";"9";"2";"[11,12,13,15]";"1";"0";"1"
"803";"35";"2";"1";"30";"1";"1";"9";"1";"[15,26,27]";"1";"0";"1"
"804";"3";"2";"1";"16";"1";"1";"9";"1";"[17,18,19,20]";"1";"0";"1"
"805";"15";"2";"1";"10";"1";"1";"9";"1";"[9]";"1";"0";"1"
"806";"14";"2";"1";"36";"1";"1";"9";"1";"[9,37,38,40]";"1";"0";"1"
"807";"8";"3";"1";"25";"1";"1";"9";"2";"[21,23,24]";"2";"0";"1"
"808";"2";"3";"1";"12";"1";"1";"9";"1";"[11,13,14,15]";"1";"0";"1"
"809";"29";"3";"1";"32";"1";"1";"9";"2";"[17,31,33,34,35]";"2";"0";"1"
"810";"16";"3";"1";"31";"1";"1";"9";"1";"[32,33,34,35]";"1";"0";"1"
"811";"4";"3";"1";"28";"1";"1";"9";"1";"[26,27,29]";"2";"0";"1"
"812";"6";"3";"1";"21";"1";"1";"9";"1";"[22,23,24,25]";"1";"0";"1"
"813";"10";"3";"1";"1";"1";"1";"9";"1";"[2,3,4,5,22]";"0";"10";"1"
"814";"11";"3";"1";"14";"1";"1";"9";"2";"[11,12,13,15]";"1";"0";"1"
"815";"39";"3";"1";"6";"1";"1";"9";"1";"[7,8,9]";"1";"0";"1"
"816";"35";"3";"1";"30";"1";"1";"9";"1";"[15,26,27]";"1";"0";"1"
"817";"22";"3";"1";"29";"1";"1";"9";"2";"[26,27,28]";"0";"7";"1"
"818";"30";"3";"1";"40";"1";"1";"9";"1";"[36,37,38,39]";"1";"0";"1"
"819";"3";"3";"1";"16";"1";"1";"9";"1";"[17,18,19,20]";"1";"0";"1"
"820";"19";"3";"1";"22";"1";"1";"9";"1";"[1,21,23,24]";"1";"0";"1"
"821";"23";"3";"1";"8";"1";"1";"9";"1";"[4,6,7,9]";"1";"0";"1"
"822";"26";"4";"1";"39";"1";"1";"9";"1";"[37,38,40]";"1";"0";"1"
"823";"29";"4";"1";"32";"1";"1";"9";"2";"[17,31,33,34,35]";"2";"0";"1"
"824";"28";"4";"1";"4";"1";"1";"9";"1";"[1,2,5,8,26,38]";"1";"0";"1"
"825";"16";"4";"1";"31";"1";"1";"9";"1";"[32,33,34,35]";"1";"0";"1"
"826";"4";"4";"1";"28";"1";"1";"9";"1";"[26,27,29]";"2";"0";"1"
"827";"6";"4";"1";"21";"1";"1";"9";"1";"[22,23,24,25]";"1";"0";"1"
"828";"22";"4";"1";"29";"1";"1";"9";"2";"[26,27,28]";"0";"6";"1"
"829";"39";"4";"1";"6";"1";"1";"9";"1";"[7,8,9]";"1";"0";"1"
"830";"18";"4";"1";"11";"1";"1";"9";"2";"[12,13,14,15]";"1";"0";"1"
"831";"30";"4";"1";"40";"1";"1";"9";"1";"[36,37,38,39]";"1";"0";"1"
"832";"37";"4";"1";"17";"1";"1";"9";"1";"[16,18,19,20,32]";"2";"0";"1"
"833";"13";"4";"1";"18";"1";"1";"9";"1";"[5,16,17,19,20]";"1";"0";"1"
"834";"21";"4";"1";"19";"1";"1";"9";"1";"[2,9,16,17,18,20]";"1";"0";"1"
"835";"19";"4";"1";"22";"1";"1";"9";"1";"[1,21,23,24]";"1";"0";"1"
"836";"23";"4";"1";"8";"1";"1";"9";"1";"[4,6,7,9]";"1";"0";"1"
"837";"26";"5";"1";"39";"1";"1";"9";"1";"[37,38,40]";"1";"0";"1"
"838";"28";"5";"1";"4";"1";"1";"9";"1";"[1,2,5,8,26,38]";"1";"0";"1"
"839";"20";"5";"1";"23";"1";"1";"9";"2";"[15,21,22,24,25]";"2";"0";"1"
"840";"22";"5";"1";"29";"1";"1";"9";"2";"[26,27,28]";"0";"5";"1"
"841";"10";"5";"1";"1";"1";"1";"9";"1";"[2,3,4,5,22]";"0";"7";"1"
"842";"18";"5";"1";"11";"1";"1";"9";"2";"[12,13,14,15]";"1";"0";"1"
"843";"37";"5";"1";"17";"1";"1";"9";"1";"[16,18,19,20,32]";"2";"0";"1"
"844";"13";"5";"1";"18";"1";"1";"9";"1";"[5,16,17,19,20]";"1";"0";"1"
"845";"21";"5";"1";"19";"1";"1";"9";"1";"[2,9,16,17,18,20]";"1";"0";"1"
"846";"33";"5";"1";"3";"1";"1";"9";"1";"[1,2]";"1";"0";"1"
"847";"7";"6";"1";"7";"1";"1";"9";"2";"[6,8,9,33]";"1";"0";"1"
"848";"22";"6";"1";"29";"1";"1";"9";"2";"[26,27,28]";"0";"4";"1"
"849";"20";"6";"1";"23";"1";"1";"9";"2";"[15,21,22,24,25]";"2";"0";"1"
"850";"25";"6";"1";"15";"1";"1";"9";"1";"[11,12,13,14,23,30]";"1";"0";"1"
"851";"10";"6";"1";"1";"1";"1";"9";"1";"[2,3,4,5,22]";"0";"6";"1"
"852";"17";"6";"1";"38";"1";"1";"9";"1";"[4,36,39,40]";"1";"0";"1"
"853";"33";"6";"1";"3";"1";"1";"9";"1";"[1,2]";"1";"0";"1"
"854";"7";"7";"1";"7";"1";"1";"9";"2";"[6,8,9,33]";"1";"0";"1"
"855";"5";"7";"1";"34";"1";"1";"9";"2";"[31,32]";"2";"0";"1"
"856";"10";"7";"1";"1";"1";"1";"9";"1";"[2,3,4,5,22]";"0";"5";"1"
"857";"25";"7";"1";"15";"1";"1";"9";"1";"[11,12,13,14,23,30]";"1";"0";"1"
"858";"17";"7";"1";"38";"1";"1";"9";"1";"[4,36,39,40]";"1";"0";"1"
"859";"5";"8";"1";"34";"1";"1";"9";"2";"[31,32]";"2";"0";"1"
"860";"31";"8";"1";"37";"1";"1";"9";"1";"[36,39,40]";"1";"0";"1"
"861";"24";"8";"1";"13";"1";"1";"9";"2";"[11,12,14,15]";"1";"0";"1"
"862";"10";"9";"1";"1";"1";"1";"9";"1";"[2,3,4,5,22]";"0";"6";"1"
"863";"22";"9";"1";"29";"1";"1";"9";"2";"[26,27,28]";"0";"9";"1"
"864";"1";"9";"1";"26";"1";"1";"9";"2";"[4,27,28,29,30]";"2";"0";"1"
"865";"31";"9";"1";"37";"1";"1";"9";"1";"[36,39,40]";"1";"0";"1"
"866";"24";"9";"1";"13";"1";"1";"9";"2";"[11,12,14,15]";"1";"0";"1"
"867";"10";"9";"1";"1";"1";"1";"9";"1";"[2,3,4,5,22]";"0";"8";"1"
"868";"40";"10";"1";"9";"1";"1";"9";"2";"[6,7,8,10,19,36]";"1";"0";"1"
"869";"12";"10";"1";"35";"1";"1";"9";"2";"[31,32,33]";"2";"0";"1"
"870";"1";"10";"1";"26";"1";"1";"9";"2";"[4,27,28,29,30]";"2";"0";"1"
"871";"38";"10";"1";"5";"1";"1";"9";"1";"[1,2,4,18]";"1";"0";"1"
"872";"32";"10";"1";"20";"1";"1";"9";"1";"[16,17,18,19]";"1";"0";"1"
"873";"40";"11";"1";"9";"1";"1";"9";"2";"[6,7,8,10,19,36]";"1";"0";"1"
"874";"12";"11";"1";"35";"1";"1";"9";"2";"[31,32,33]";"2";"0";"1"
"875";"22";"11";"1";"29";"1";"1";"9";"2";"[26,27,28]";"0";"9";"1"
"876";"38";"11";"1";"5";"1";"1";"9";"1";"[1,2,4,18]";"1";"0";"1"
"877";"32";"11";"1";"20";"1";"1";"9";"1";"[16,17,18,19]";"1";"0";"1"
"878";"27";"11";"1";"24";"1";"1";"9";"1";"[21,22,23,25]";"1";"0";"1"
"879";"10";"12";"1";"1";"1";"1";"9";"1";"[2,3,4,5,22]";"1";"8";"1"
"880";"22";"12";"1";"29";"1";"1";"9";"2";"[26,27,28]";"2";"9";"1"
"881";"27";"12";"1";"24";"1";"1";"9";"1";"[21,22,23,25]";"1";"0";"1"
"882";"10";"13";"1";"1";"1";"1";"9";"1";"[2,3,4,5,22]";"1";"8";"1"
"883";"22";"13";"1";"29";"1";"1";"9";"2";"[26,27,28]";"2";"9";"1"
"884";"9";"24";"1";"27";"1";"1";"9";"1";"[26,28,29,30]";"1";"0";"1"
"885";"9";"25";"1";"27";"1";"1";"9";"1";"[26,28,29,30]";"1";"0";"1"
"886";"34";"25";"1";"2";"1";"1";"9";"1";"[1,3,4,5,19]";"1";"0";"1"
"887";"34";"26";"1";"2";"1";"1";"9";"1";"[1,3,4,5,19]";"1";"0";"1"
"888";"36";"29";"1";"33";"1";"1";"9";"1";"[7,31,32,35]";"2";"0";"1"
"889";"36";"30";"1";"33";"1";"1";"9";"1";"[7,31,32,35]";"2";"0";"1"
"890";"2";"2";"1";"12";"1";"1";"10";"1";"[11,13,14,15]";"1";"0";"1"
"891";"13";"2";"1";"18";"1";"1";"10";"1";"[5,16,17,19,20]";"1";"0";"1"
"892";"29";"2";"1";"32";"1";"1";"10";"2";"[17,31,33,34,35]";"2";"0";"1"
"893";"14";"2";"1";"36";"1";"1";"10";"1";"[9,37,38,40]";"1";"0";"1"
"894";"28";"2";"1";"4";"1";"1";"10";"1";"[1,2,5,8,26,38]";"1";"0";"1"
"895";"6";"2";"1";"21";"1";"1";"10";"1";"[22,23,24,25]";"1";"0";"1"
"896";"11";"2";"1";"14";"1";"1";"10";"2";"[11,12,13,15]";"1";"0";"1"
"897";"15";"3";"1";"10";"1";"1";"10";"1";"[9]";"1";"0";"1"
"898";"8";"3";"1";"25";"1";"1";"10";"2";"[21,23,24]";"2";"0";"1"
"899";"2";"3";"1";"12";"1";"1";"10";"1";"[11,13,14,15]";"1";"0";"1"
"900";"10";"3";"1";"1";"1";"1";"10";"1";"[2,3,4,5,22]";"0";"10";"1"
"901";"3";"3";"1";"16";"1";"1";"10";"1";"[17,18,19,20]";"1";"0";"1"
"902";"31";"3";"1";"37";"1";"1";"10";"1";"[36,39,40]";"1";"0";"1"
"903";"13";"3";"1";"18";"1";"1";"10";"1";"[5,16,17,19,20]";"1";"0";"1"
"904";"29";"3";"1";"32";"1";"1";"10";"2";"[17,31,33,34,35]";"2";"0";"1"
"905";"26";"3";"1";"39";"1";"1";"10";"1";"[37,38,40]";"1";"0";"1"
"906";"14";"3";"1";"36";"1";"1";"10";"1";"[9,37,38,40]";"1";"0";"1"
"907";"25";"3";"1";"15";"1";"1";"10";"1";"[11,12,13,14,23,30]";"0";"8";"1"
"908";"33";"3";"1";"3";"1";"1";"10";"1";"[1,2]";"1";"0";"1"
"909";"28";"3";"1";"4";"1";"1";"10";"1";"[1,2,5,8,26,38]";"1";"0";"1"
"910";"6";"3";"1";"21";"1";"1";"10";"1";"[22,23,24,25]";"1";"0";"1"
"911";"11";"3";"1";"14";"1";"1";"10";"2";"[11,12,13,15]";"1";"0";"1"
"912";"22";"4";"1";"29";"1";"1";"10";"2";"[26,27,28]";"2";"0";"1"
"913";"25";"4";"1";"15";"1";"1";"10";"1";"[11,12,13,14,23,30]";"0";"7";"1"
"914";"21";"4";"1";"19";"1";"1";"10";"1";"[2,9,16,17,18,20]";"1";"0";"1"
"915";"15";"4";"1";"10";"1";"1";"10";"1";"[9]";"1";"0";"1"
"916";"8";"4";"1";"25";"1";"1";"10";"2";"[21,23,24]";"2";"0";"1"
"917";"16";"4";"1";"31";"1";"1";"10";"1";"[32,33,34,35]";"1";"0";"1"
"918";"3";"4";"1";"16";"1";"1";"10";"1";"[17,18,19,20]";"1";"0";"1"
"919";"25";"4";"1";"15";"1";"1";"10";"1";"[11,12,13,14,23,30]";"0";"5";"1"
"920";"31";"4";"1";"37";"1";"1";"10";"1";"[36,39,40]";"1";"0";"1"
"921";"26";"4";"1";"39";"1";"1";"10";"1";"[37,38,40]";"1";"0";"1"
"922";"25";"4";"1";"15";"1";"1";"10";"1";"[11,12,13,14,23,30]";"0";"4";"1"
"923";"32";"4";"1";"20";"1";"1";"10";"1";"[16,17,18,19]";"1";"0";"1"
"924";"33";"4";"1";"3";"1";"1";"10";"1";"[1,2]";"1";"0";"1"
"925";"39";"4";"1";"6";"1";"1";"10";"1";"[7,8,9]";"2";"0";"1"
"926";"22";"5";"1";"29";"1";"1";"10";"2";"[26,27,28]";"2";"0";"1"
"927";"25";"5";"1";"15";"1";"1";"10";"1";"[11,12,13,14,23,30]";"0";"8";"1"
"928";"21";"5";"1";"19";"1";"1";"10";"1";"[2,9,16,17,18,20]";"1";"0";"1"
"929";"19";"5";"1";"22";"1";"1";"10";"1";"[1,21,23,24]";"1";"0";"1"
"930";"16";"5";"1";"31";"1";"1";"10";"1";"[32,33,34,35]";"1";"0";"1"
"931";"27";"5";"1";"24";"1";"1";"10";"1";"[21,22,23,25]";"1";"0";"1"
"932";"7";"5";"1";"7";"1";"1";"10";"2";"[6,8,9,33]";"1";"0";"1"
"933";"20";"5";"1";"23";"1";"1";"10";"2";"[15,21,22,24,25]";"2";"0";"1"
"934";"32";"5";"1";"20";"1";"1";"10";"1";"[16,17,18,19]";"1";"0";"1"
"935";"25";"5";"1";"15";"1";"1";"10";"1";"[11,12,13,14,23,30]";"0";"9";"1"
"936";"39";"5";"1";"6";"1";"1";"10";"1";"[7,8,9]";"2";"0";"1"
"937";"19";"6";"1";"22";"1";"1";"10";"1";"[1,21,23,24]";"1";"0";"1"
"938";"27";"6";"1";"24";"1";"1";"10";"1";"[21,22,23,25]";"1";"0";"1"
"939";"7";"6";"1";"7";"1";"1";"10";"2";"[6,8,9,33]";"1";"0";"1"
"940";"25";"6";"1";"15";"1";"1";"10";"1";"[11,12,13,14,23,30]";"0";"11";"1"
"941";"20";"6";"1";"23";"1";"1";"10";"2";"[15,21,22,24,25]";"2";"0";"1"
"942";"30";"6";"1";"40";"1";"1";"10";"1";"[36,37,38,39]";"1";"0";"1"
"943";"10";"6";"1";"1";"1";"1";"10";"1";"[2,3,4,5,22]";"2";"10";"1"
"944";"18";"6";"1";"11";"1";"1";"10";"2";"[12,13,14,15]";"1";"0";"1"
"945";"24";"6";"1";"13";"1";"1";"10";"2";"[11,12,14,15]";"1";"0";"1"
"946";"23";"6";"1";"8";"1";"1";"10";"1";"[4,6,7,9]";"1";"0";"1"
"947";"25";"6";"1";"15";"1";"1";"10";"1";"[11,12,13,14,23,30]";"0";"7";"1"
"948";"37";"7";"1";"17";"1";"1";"10";"1";"[16,18,19,20,32]";"2";"0";"1"
"949";"30";"7";"1";"40";"1";"1";"10";"1";"[36,37,38,39]";"1";"0";"1"
"950";"10";"7";"1";"1";"1";"1";"10";"1";"[2,3,4,5,22]";"2";"10";"1"
"951";"9";"7";"1";"27";"1";"1";"10";"1";"[26,28,29,30]";"2";"0";"1"
"952";"18";"7";"1";"11";"1";"1";"10";"2";"[12,13,14,15]";"1";"0";"1"
"953";"24";"7";"1";"13";"1";"1";"10";"2";"[11,12,14,15]";"1";"0";"1"
"954";"23";"7";"1";"8";"1";"1";"10";"1";"[4,6,7,9]";"1";"0";"1"
"955";"25";"7";"1";"15";"1";"1";"10";"1";"[11,12,13,14,23,30]";"0";"10";"1"
"956";"37";"8";"1";"17";"1";"1";"10";"1";"[16,18,19,20,32]";"2";"0";"1"
"957";"25";"8";"1";"15";"1";"1";"10";"1";"[11,12,13,14,23,30]";"0";"11";"1"
"958";"38";"8";"1";"5";"1";"1";"10";"1";"[1,2,4,18]";"1";"0";"1"
"959";"9";"8";"1";"27";"1";"1";"10";"1";"[26,28,29,30]";"2";"0";"1"
"960";"4";"8";"1";"28";"1";"1";"10";"1";"[26,27,29]";"2";"0";"1"
"961";"25";"8";"1";"15";"1";"1";"10";"1";"[11,12,13,14,23,30]";"0";"10";"1"
"962";"38";"9";"1";"5";"1";"1";"10";"1";"[1,2,4,18]";"1";"0";"1"
"963";"25";"9";"1";"15";"1";"1";"10";"1";"[11,12,13,14,23,30]";"1";"10";"1"
"964";"4";"9";"1";"28";"1";"1";"10";"1";"[26,27,29]";"2";"0";"1"
"965";"5";"10";"1";"34";"1";"1";"10";"2";"[31,32]";"2";"0";"1"
"966";"35";"10";"1";"30";"1";"1";"10";"1";"[15,26,27]";"1";"0";"1"
"967";"25";"10";"1";"15";"1";"1";"10";"1";"[11,12,13,14,23,30]";"1";"10";"1"
"968";"36";"10";"1";"33";"1";"1";"10";"1";"[7,31,32,35]";"2";"0";"1"
"969";"5";"11";"1";"34";"1";"1";"10";"2";"[31,32]";"2";"0";"1"
"970";"12";"11";"1";"35";"1";"1";"10";"2";"[31,32,33]";"2";"0";"1"
"971";"35";"11";"1";"30";"1";"1";"10";"1";"[15,26,27]";"1";"0";"1"
"972";"17";"11";"1";"38";"1";"1";"10";"1";"[4,36,39,40]";"2";"0";"1"
"973";"36";"11";"1";"33";"1";"1";"10";"1";"[7,31,32,35]";"2";"0";"1"
"974";"12";"12";"1";"35";"1";"1";"10";"2";"[31,32,33]";"2";"0";"1"
"975";"17";"12";"1";"38";"1";"1";"10";"1";"[4,36,39,40]";"2";"0";"1"
"976";"10";"13";"1";"1";"1";"1";"10";"1";"[2,3,4,5,22]";"2";"10";"1"
"977";"1";"13";"1";"26";"1";"1";"10";"2";"[4,27,28,29,30]";"2";"0";"1"
"978";"40";"13";"1";"9";"1";"1";"10";"2";"[6,7,8,10,19,36]";"1";"0";"1"
"979";"1";"14";"1";"26";"1";"1";"10";"2";"[4,27,28,29,30]";"2";"0";"1"
"980";"40";"14";"1";"9";"1";"1";"10";"2";"[6,7,8,10,19,36]";"1";"0";"1"
"981";"24";"16";"1";"13";"1";"1";"10";"2";"[11,12,14,15]";"1";"1";"1"
"982";"24";"17";"1";"13";"1";"1";"10";"2";"[11,12,14,15]";"1";"2";"1"
"983";"34";"18";"1";"2";"1";"1";"10";"1";"[1,3,4,5,19]";"2";"0";"1"
"984";"34";"19";"1";"2";"1";"1";"10";"1";"[1,3,4,5,19]";"2";"0";"1"
"985";"24";"0";"1";"13";"1";"1";"11";"2";"[11,12,14,15]";"0";"10";"1"
"986";"2";"1";"1";"12";"1";"1";"11";"1";"[11,13,14,15]";"1";"0";"1"
"987";"16";"1";"1";"31";"1";"1";"11";"1";"[32,33,34,35]";"1";"0";"1"
"988";"15";"1";"1";"10";"1";"1";"11";"1";"[9]";"1";"0";"1"
"989";"39";"1";"1";"6";"1";"1";"11";"1";"[7,8,9]";"1";"0";"1"
"990";"11";"2";"1";"14";"1";"1";"11";"2";"[11,12,13,15]";"1";"0";"1"
"991";"2";"2";"1";"12";"1";"1";"11";"1";"[11,13,14,15]";"1";"0";"1"
"992";"29";"2";"1";"32";"1";"1";"11";"2";"[17,31,33,34,35]";"2";"0";"1"
"993";"32";"2";"1";"20";"1";"1";"11";"1";"[16,17,18,19]";"2";"0";"1"
"994";"8";"2";"1";"25";"1";"1";"11";"2";"[21,23,24]";"2";"0";"1"
"995";"16";"2";"1";"31";"1";"1";"11";"1";"[32,33,34,35]";"1";"0";"1"
"996";"15";"2";"1";"10";"1";"1";"11";"1";"[9]";"1";"0";"1"
"997";"39";"2";"1";"6";"1";"1";"11";"1";"[7,8,9]";"1";"0";"1"
"998";"37";"3";"1";"17";"1";"1";"11";"1";"[16,18,19,20,32]";"1";"0";"1"
"999";"11";"3";"1";"14";"1";"1";"11";"2";"[11,12,13,15]";"1";"0";"1"
"1000";"3";"3";"1";"16";"1";"1";"11";"1";"[17,18,19,20]";"1";"0";"1"
"1001";"28";"3";"1";"4";"1";"1";"11";"1";"[1,2,5,8,26,38]";"1";"0";"1"
"1002";"22";"3";"1";"29";"1";"1";"11";"2";"[26,27,28]";"2";"0";"1"
"1003";"29";"3";"1";"32";"1";"1";"11";"2";"[17,31,33,34,35]";"2";"0";"1"
"1004";"38";"3";"1";"5";"1";"1";"11";"1";"[1,2,4,18]";"2";"0";"1"
"1005";"32";"3";"1";"20";"1";"1";"11";"1";"[16,17,18,19]";"2";"0";"1"
"1006";"13";"3";"1";"18";"1";"1";"11";"1";"[5,16,17,19,20]";"1";"0";"1"
"1007";"8";"3";"1";"25";"1";"1";"11";"2";"[21,23,24]";"2";"0";"1"
"1008";"26";"3";"1";"39";"1";"1";"11";"1";"[37,38,40]";"1";"0";"1"
"1009";"31";"3";"1";"37";"1";"1";"11";"1";"[36,39,40]";"1";"0";"1"
"1010";"24";"3";"1";"13";"1";"1";"11";"2";"[11,12,14,15]";"0";"1";"1"
"1011";"37";"4";"1";"17";"1";"1";"11";"1";"[16,18,19,20,32]";"1";"0";"1"
"1012";"5";"4";"1";"34";"1";"1";"11";"2";"[31,32]";"1";"0";"1"
"1013";"3";"4";"1";"16";"1";"1";"11";"1";"[17,18,19,20]";"1";"0";"1"
"1014";"14";"4";"1";"36";"1";"1";"11";"1";"[9,37,38,40]";"1";"0";"1"
"1015";"28";"4";"1";"4";"1";"1";"11";"1";"[1,2,5,8,26,38]";"1";"0";"1"
"1016";"18";"4";"1";"11";"1";"1";"11";"2";"[12,13,14,15]";"0";"1";"1"
"1017";"22";"4";"1";"29";"1";"1";"11";"2";"[26,27,28]";"2";"0";"1"
"1018";"38";"4";"1";"5";"1";"1";"11";"1";"[1,2,4,18]";"2";"0";"1"
"1019";"1";"4";"1";"26";"1";"1";"11";"2";"[4,27,28,29,30]";"2";"0";"1"
"1020";"13";"4";"1";"18";"1";"1";"11";"1";"[5,16,17,19,20]";"1";"0";"1"
"1021";"26";"4";"1";"39";"1";"1";"11";"1";"[37,38,40]";"1";"0";"1"
"1022";"31";"4";"1";"37";"1";"1";"11";"1";"[36,39,40]";"1";"0";"1"
"1023";"17";"4";"1";"38";"1";"1";"11";"1";"[4,36,39,40]";"1";"0";"1"
"1024";"5";"5";"1";"34";"1";"1";"11";"2";"[31,32]";"1";"0";"1"
"1025";"25";"5";"1";"15";"1";"1";"11";"1";"[11,12,13,14,23,30]";"0";"8";"1"
"1026";"24";"5";"1";"13";"1";"1";"11";"2";"[11,12,14,15]";"0";"2";"1"
"1027";"40";"5";"1";"9";"1";"1";"11";"2";"[6,7,8,10,19,36]";"1";"0";"1"
"1028";"14";"5";"1";"36";"1";"1";"11";"1";"[9,37,38,40]";"1";"0";"1"
"1029";"25";"5";"1";"15";"1";"1";"11";"1";"[11,12,13,14,23,30]";"0";"7";"1"
"1030";"4";"5";"1";"28";"1";"1";"11";"1";"[26,27,29]";"2";"0";"1"
"1031";"10";"5";"1";"1";"1";"1";"11";"1";"[2,3,4,5,22]";"1";"0";"1"
"1032";"1";"5";"1";"26";"1";"1";"11";"2";"[4,27,28,29,30]";"2";"0";"1"
"1033";"6";"5";"1";"21";"1";"1";"11";"1";"[22,23,24,25]";"1";"0";"1"
"1034";"17";"5";"1";"38";"1";"1";"11";"1";"[4,36,39,40]";"1";"0";"1"
"1035";"25";"6";"1";"15";"1";"1";"11";"1";"[11,12,13,14,23,30]";"0";"6";"1"
"1036";"33";"6";"1";"3";"1";"1";"11";"1";"[1,2]";"2";"0";"1"
"1037";"40";"6";"1";"9";"1";"1";"11";"2";"[6,7,8,10,19,36]";"1";"0";"1"
"1038";"4";"6";"1";"28";"1";"1";"11";"1";"[26,27,29]";"2";"0";"1"
"1039";"25";"6";"1";"15";"1";"1";"11";"1";"[11,12,13,14,23,30]";"0";"3";"1"
"1040";"10";"6";"1";"1";"1";"1";"11";"1";"[2,3,4,5,22]";"1";"0";"1"
"1041";"6";"6";"1";"21";"1";"1";"11";"1";"[22,23,24,25]";"1";"0";"1"
"1042";"25";"6";"1";"15";"1";"1";"11";"1";"[11,12,13,14,23,30]";"0";"2";"1"
"1043";"18";"7";"1";"11";"1";"1";"11";"2";"[12,13,14,15]";"0";"2";"1"
"1044";"24";"7";"1";"13";"1";"1";"11";"2";"[11,12,14,15]";"0";"3";"1"
"1045";"33";"7";"1";"3";"1";"1";"11";"1";"[1,2]";"2";"0";"1"
"1046";"25";"7";"1";"15";"1";"1";"11";"1";"[11,12,13,14,23,30]";"0";"1";"1"
"1047";"7";"7";"1";"7";"1";"1";"11";"2";"[6,8,9,33]";"1";"0";"1"
"1048";"18";"7";"1";"11";"1";"1";"11";"2";"[12,13,14,15]";"0";"3";"1"
"1049";"19";"7";"1";"22";"1";"1";"11";"1";"[1,21,23,24]";"1";"0";"1"
"1050";"12";"8";"1";"35";"1";"1";"11";"2";"[31,32,33]";"1";"0";"1"
"1051";"7";"8";"1";"7";"1";"1";"11";"2";"[6,8,9,33]";"1";"0";"1"
"1052";"34";"8";"1";"2";"1";"1";"11";"1";"[1,3,4,5,19]";"2";"0";"1"
"1053";"18";"8";"1";"11";"1";"1";"11";"2";"[12,13,14,15]";"0";"4";"1"
"1054";"19";"8";"1";"22";"1";"1";"11";"1";"[1,21,23,24]";"1";"0";"1"
"1055";"25";"8";"1";"15";"1";"1";"11";"1";"[11,12,13,14,23,30]";"0";"11";"1"
"1056";"24";"9";"1";"13";"1";"1";"11";"2";"[11,12,14,15]";"0";"4";"1"
"1057";"18";"9";"1";"11";"1";"1";"11";"2";"[12,13,14,15]";"0";"5";"1"
"1058";"12";"9";"1";"35";"1";"1";"11";"2";"[31,32,33]";"1";"0";"1"
"1059";"27";"9";"1";"24";"1";"1";"11";"1";"[21,22,23,25]";"2";"0";"1"
"1060";"25";"9";"1";"15";"1";"1";"11";"1";"[11,12,13,14,23,30]";"0";"12";"1"
"1061";"34";"9";"1";"2";"1";"1";"11";"1";"[1,3,4,5,19]";"2";"0";"1"
"1062";"18";"9";"1";"11";"1";"1";"11";"2";"[12,13,14,15]";"0";"6";"1"
"1063";"24";"9";"1";"13";"1";"1";"11";"2";"[11,12,14,15]";"0";"5";"1"
"1064";"18";"10";"1";"11";"1";"1";"11";"2";"[12,13,14,15]";"0";"7";"1"
"1065";"27";"10";"1";"24";"1";"1";"11";"1";"[21,22,23,25]";"2";"0";"1"
"1066";"18";"11";"1";"11";"1";"1";"11";"2";"[12,13,14,15]";"0";"8";"1"
"1067";"24";"11";"1";"13";"1";"1";"11";"2";"[11,12,14,15]";"0";"6";"1"
"1068";"25";"11";"1";"15";"1";"1";"11";"1";"[11,12,13,14,23,30]";"1";"12";"1"
"1069";"21";"11";"1";"19";"1";"1";"11";"1";"[2,9,16,17,18,20]";"1";"0";"1"
"1070";"18";"11";"1";"11";"1";"1";"11";"2";"[12,13,14,15]";"0";"9";"1"
"1071";"24";"12";"1";"13";"1";"1";"11";"2";"[11,12,14,15]";"0";"7";"1"
"1072";"18";"12";"1";"11";"1";"1";"11";"2";"[12,13,14,15]";"0";"10";"1"
"1073";"25";"12";"1";"15";"1";"1";"11";"1";"[11,12,13,14,23,30]";"1";"12";"1"
"1074";"21";"12";"1";"19";"1";"1";"11";"1";"[2,9,16,17,18,20]";"1";"0";"1"
"1075";"18";"13";"1";"11";"1";"1";"11";"2";"[12,13,14,15]";"0";"12";"1"
"1076";"24";"13";"1";"13";"1";"1";"11";"2";"[11,12,14,15]";"0";"8";"1"
"1077";"30";"13";"1";"40";"1";"1";"11";"1";"[36,37,38,39]";"1";"0";"1"
"1078";"23";"13";"1";"8";"1";"1";"11";"1";"[4,6,7,9]";"1";"0";"1"
"1079";"24";"13";"1";"13";"1";"1";"11";"2";"[11,12,14,15]";"0";"10";"1"
"1080";"9";"13";"1";"27";"1";"1";"11";"1";"[26,28,29,30]";"2";"0";"1"
"1081";"30";"14";"1";"40";"1";"1";"11";"1";"[36,37,38,39]";"1";"0";"1"
"1082";"23";"14";"1";"8";"1";"1";"11";"1";"[4,6,7,9]";"1";"0";"1"
"1083";"9";"14";"1";"27";"1";"1";"11";"1";"[26,28,29,30]";"2";"0";"1"
"1084";"24";"15";"1";"13";"1";"1";"11";"2";"[11,12,14,15]";"0";"11";"1"
"1085";"18";"16";"1";"11";"1";"1";"11";"2";"[12,13,14,15]";"1";"12";"1"
"1086";"18";"17";"1";"11";"1";"1";"11";"2";"[12,13,14,15]";"1";"12";"1"
"1087";"20";"17";"1";"23";"1";"1";"11";"2";"[15,21,22,24,25]";"1";"0";"1"
"1088";"20";"18";"1";"23";"1";"1";"11";"2";"[15,21,22,24,25]";"1";"0";"1"
"1089";"24";"20";"1";"13";"1";"1";"11";"2";"[11,12,14,15]";"2";"11";"1"
"1090";"24";"21";"1";"13";"1";"1";"11";"2";"[11,12,14,15]";"2";"11";"1"
"1091";"35";"22";"1";"30";"1";"1";"11";"1";"[15,26,27]";"1";"0";"1"
"1092";"35";"23";"1";"30";"1";"1";"11";"1";"[15,26,27]";"1";"0";"1"
"1093";"36";"25";"1";"33";"1";"1";"11";"1";"[7,31,32,35]";"2";"0";"1"
"1094";"36";"26";"1";"33";"1";"1";"11";"1";"[7,31,32,35]";"2";"0";"1"
"1095";"2";"1";"1";"12";"1";"1";"12";"1";"[11,13,14,15]";"1";"0";"1"
"1096";"13";"2";"1";"18";"1";"1";"12";"1";"[5,16,17,19,20]";"1";"0";"1"
"1097";"28";"2";"1";"4";"1";"1";"12";"1";"[1,2,5,8,26,38]";"1";"0";"1"
"1098";"29";"2";"1";"32";"1";"1";"12";"2";"[17,31,33,34,35]";"2";"0";"1"
"1099";"39";"2";"1";"6";"1";"1";"12";"1";"[7,8,9]";"1";"0";"1"
"1100";"16";"2";"1";"31";"1";"1";"12";"1";"[32,33,34,35]";"1";"0";"1"
"1101";"2";"2";"1";"12";"1";"1";"12";"1";"[11,13,14,15]";"1";"0";"1"
"1102";"30";"2";"1";"40";"1";"1";"12";"1";"[36,37,38,39]";"1";"0";"1"
"1103";"31";"3";"1";"37";"1";"1";"12";"1";"[36,39,40]";"1";"0";"1"
"1104";"5";"3";"1";"34";"1";"1";"12";"2";"[31,32]";"2";"0";"1"
"1105";"22";"3";"1";"29";"1";"1";"12";"2";"[26,27,28]";"2";"0";"1"
"1106";"13";"3";"1";"18";"1";"1";"12";"1";"[5,16,17,19,20]";"1";"0";"1"
"1107";"26";"3";"1";"39";"1";"1";"12";"1";"[37,38,40]";"1";"0";"1"
"1108";"28";"3";"1";"4";"1";"1";"12";"1";"[1,2,5,8,26,38]";"1";"0";"1"
"1109";"29";"3";"1";"32";"1";"1";"12";"2";"[17,31,33,34,35]";"2";"0";"1"
"1110";"39";"3";"1";"6";"1";"1";"12";"1";"[7,8,9]";"1";"0";"1"
"1111";"17";"3";"1";"38";"1";"1";"12";"1";"[4,36,39,40]";"1";"0";"1"
"1112";"11";"3";"1";"14";"1";"1";"12";"2";"[11,12,13,15]";"1";"0";"1"
"1113";"25";"3";"1";"15";"1";"1";"12";"1";"[11,12,13,14,23,30]";"0";"12";"1"
"1114";"4";"3";"1";"28";"1";"1";"12";"1";"[26,27,29]";"1";"0";"1"
"1115";"14";"3";"1";"36";"1";"1";"12";"1";"[9,37,38,40]";"1";"0";"1"
"1116";"3";"3";"1";"16";"1";"1";"12";"1";"[17,18,19,20]";"1";"0";"1"
"1117";"16";"3";"1";"31";"1";"1";"12";"1";"[32,33,34,35]";"1";"0";"1"
"1118";"30";"3";"1";"40";"1";"1";"12";"1";"[36,37,38,39]";"1";"0";"1"
"1119";"31";"4";"1";"37";"1";"1";"12";"1";"[36,39,40]";"1";"0";"1"
"1120";"5";"4";"1";"34";"1";"1";"12";"2";"[31,32]";"2";"0";"1"
"1121";"22";"4";"1";"29";"1";"1";"12";"2";"[26,27,28]";"2";"0";"1"
"1122";"10";"4";"1";"1";"1";"1";"12";"1";"[2,3,4,5,22]";"1";"0";"1"
"1123";"26";"4";"1";"39";"1";"1";"12";"1";"[37,38,40]";"1";"0";"1"
"1124";"19";"4";"1";"22";"1";"1";"12";"1";"[1,21,23,24]";"1";"0";"1"
"1125";"37";"4";"1";"17";"1";"1";"12";"1";"[16,18,19,20,32]";"1";"0";"1"
"1126";"21";"4";"1";"19";"1";"1";"12";"1";"[2,9,16,17,18,20]";"1";"0";"1"
"1127";"17";"4";"1";"38";"1";"1";"12";"1";"[4,36,39,40]";"1";"0";"1"
"1128";"11";"4";"1";"14";"1";"1";"12";"2";"[11,12,13,15]";"1";"0";"1"
"1129";"4";"4";"1";"28";"1";"1";"12";"1";"[26,27,29]";"1";"0";"1"
"1130";"14";"4";"1";"36";"1";"1";"12";"1";"[9,37,38,40]";"1";"0";"1"
"1131";"3";"4";"1";"16";"1";"1";"12";"1";"[17,18,19,20]";"1";"0";"1"
"1132";"15";"4";"1";"10";"1";"1";"12";"1";"[9]";"1";"0";"1"
"1133";"23";"4";"1";"8";"1";"1";"12";"1";"[4,6,7,9]";"1";"0";"1"
"1134";"38";"5";"1";"5";"1";"1";"12";"1";"[1,2,4,18]";"2";"0";"1"
"1135";"18";"5";"1";"11";"1";"1";"12";"2";"[12,13,14,15]";"1";"0";"1"
"1136";"10";"5";"1";"1";"1";"1";"12";"1";"[2,3,4,5,22]";"1";"0";"1"
"1137";"32";"5";"1";"20";"1";"1";"12";"1";"[16,17,18,19]";"1";"0";"1"
"1138";"19";"5";"1";"22";"1";"1";"12";"1";"[1,21,23,24]";"1";"0";"1"
"1139";"37";"5";"1";"17";"1";"1";"12";"1";"[16,18,19,20,32]";"1";"0";"1"
"1140";"21";"5";"1";"19";"1";"1";"12";"1";"[2,9,16,17,18,20]";"1";"0";"1"
"1141";"15";"5";"1";"10";"1";"1";"12";"1";"[9]";"1";"0";"1"
"1142";"23";"5";"1";"8";"1";"1";"12";"1";"[4,6,7,9]";"1";"0";"1"
"1143";"27";"5";"1";"24";"1";"1";"12";"1";"[21,22,23,25]";"1";"0";"1"
"1144";"6";"5";"1";"21";"1";"1";"12";"1";"[22,23,24,25]";"1";"0";"1"
"1145";"7";"5";"1";"7";"1";"1";"12";"2";"[6,8,9,33]";"1";"0";"1"
"1146";"38";"6";"1";"5";"1";"1";"12";"1";"[1,2,4,18]";"2";"0";"1"
"1147";"24";"6";"1";"13";"1";"1";"12";"2";"[11,12,14,15]";"2";"0";"1"
"1148";"18";"6";"1";"11";"1";"1";"12";"2";"[12,13,14,15]";"1";"0";"1"
"1149";"32";"6";"1";"20";"1";"1";"12";"1";"[16,17,18,19]";"1";"0";"1"
"1150";"25";"6";"1";"15";"1";"1";"12";"1";"[11,12,13,14,23,30]";"1";"12";"1"
"1151";"1";"6";"1";"26";"1";"1";"12";"2";"[4,27,28,29,30]";"2";"0";"1"
"1152";"27";"6";"1";"24";"1";"1";"12";"1";"[21,22,23,25]";"1";"0";"1"
"1153";"6";"6";"1";"21";"1";"1";"12";"1";"[22,23,24,25]";"1";"0";"1"
"1154";"7";"6";"1";"7";"1";"1";"12";"2";"[6,8,9,33]";"1";"0";"1"
"1155";"24";"7";"1";"13";"1";"1";"12";"2";"[11,12,14,15]";"2";"0";"1"
"1156";"25";"7";"1";"15";"1";"1";"12";"1";"[11,12,13,14,23,30]";"1";"12";"1"
"1157";"1";"7";"1";"26";"1";"1";"12";"2";"[4,27,28,29,30]";"2";"0";"1"
"1158";"36";"8";"1";"33";"1";"1";"12";"1";"[7,31,32,35]";"0";"10";"1"
"1159";"40";"9";"1";"9";"1";"1";"12";"2";"[6,7,8,10,19,36]";"1";"0";"1"
"1160";"36";"9";"1";"33";"1";"1";"12";"1";"[7,31,32,35]";"0";"8";"1"
"1161";"40";"10";"1";"9";"1";"1";"12";"2";"[6,7,8,10,19,36]";"1";"0";"1"
"1162";"36";"10";"1";"33";"1";"1";"12";"1";"[7,31,32,35]";"0";"7";"1"
"1163";"20";"10";"1";"23";"1";"1";"12";"2";"[15,21,22,24,25]";"1";"0";"1"
"1164";"36";"11";"1";"33";"1";"1";"12";"1";"[7,31,32,35]";"0";"6";"1"
"1165";"20";"11";"1";"23";"1";"1";"12";"2";"[15,21,22,24,25]";"1";"0";"1"
"1166";"36";"12";"1";"33";"1";"1";"12";"1";"[7,31,32,35]";"0";"5";"1"
"1167";"36";"12";"1";"33";"1";"1";"12";"1";"[7,31,32,35]";"0";"4";"1"
"1168";"34";"13";"1";"2";"1";"1";"12";"1";"[1,3,4,5,19]";"2";"0";"1"
"1169";"36";"14";"1";"33";"1";"1";"12";"1";"[7,31,32,35]";"0";"3";"1"
"1170";"9";"14";"1";"27";"1";"1";"12";"1";"[26,28,29,30]";"2";"0";"1"
"1171";"34";"14";"1";"2";"1";"1";"12";"1";"[1,3,4,5,19]";"2";"0";"1"
"1172";"8";"15";"1";"25";"1";"1";"12";"2";"[21,23,24]";"2";"0";"1"
"1173";"36";"15";"1";"33";"1";"1";"12";"1";"[7,31,32,35]";"0";"2";"1"
"1174";"9";"15";"1";"27";"1";"1";"12";"1";"[26,28,29,30]";"2";"0";"1"
"1175";"8";"16";"1";"25";"1";"1";"12";"2";"[21,23,24]";"2";"0";"1"
"1176";"36";"16";"1";"33";"1";"1";"12";"1";"[7,31,32,35]";"0";"1";"1"
"1177";"12";"17";"1";"35";"1";"1";"12";"2";"[31,32,33]";"2";"0";"1"
"1178";"12";"18";"1";"35";"1";"1";"12";"2";"[31,32,33]";"2";"0";"1"
"1179";"36";"19";"1";"33";"1";"1";"12";"1";"[7,31,32,35]";"0";"2";"1"
"1180";"36";"19";"1";"33";"1";"1";"12";"1";"[7,31,32,35]";"1";"2";"1"
"1181";"35";"20";"1";"30";"1";"1";"12";"1";"[15,26,27]";"2";"0";"1"
"1182";"36";"20";"1";"33";"1";"1";"12";"1";"[7,31,32,35]";"1";"2";"1"
"1183";"35";"21";"1";"30";"1";"1";"12";"1";"[15,26,27]";"2";"0";"1"
"1184";"33";"24";"1";"3";"1";"1";"12";"1";"[1,2]";"1";"0";"1"
"1185";"10";"24";"1";"1";"1";"1";"12";"1";"[2,3,4,5,22]";"1";"10";"1"
"1186";"33";"25";"1";"3";"1";"1";"12";"1";"[1,2]";"1";"0";"1"
"1187";"3";"0";"1";"18";"1";"2";"12";"2";"[5,16,17,19,20]";"1";"0";"1"
"1188";"6";"0";"1";"35";"1";"2";"12";"2";"[31,32,33]";"2";"0";"1"
"1189";"2";"0";"1";"30";"1";"2";"12";"2";"[15,26,27]";"2";"0";"1"
"1190";"1";"0";"1";"4";"1";"2";"12";"2";"[1,2,5,8,26,38]";"1";"0";"1"
"1191";"14";"0";"1";"19";"1";"2";"12";"2";"[2,9,16,17,18,20]";"1";"0";"1"
"1192";"16";"0";"1";"1";"1";"2";"12";"2";"[2,3,4,5,22]";"1";"10";"1"
"1193";"10";"0";"1";"7";"1";"2";"12";"2";"[6,8,9,33]";"1";"0";"1"
"1194";"33";"0";"1";"6";"1";"2";"12";"2";"[7,8,9]";"1";"0";"1"
"1195";"18";"0";"1";"5";"1";"2";"12";"2";"[1,2,4,18]";"2";"0";"1"
"1196";"5";"0";"1";"22";"1";"2";"12";"1";"[1,21,23,24]";"1";"0";"1"
"1197";"19";"0";"1";"37";"1";"2";"12";"2";"[36,39,40]";"1";"0";"1"
"1198";"15";"0";"1";"17";"1";"2";"12";"2";"[16,18,19,20,32]";"1";"0";"1"
"1199";"17";"0";"1";"31";"1";"2";"12";"2";"[32,33,34,35]";"1";"0";"1"
"1200";"23";"0";"1";"8";"1";"2";"12";"1";"[4,6,7,9]";"1";"0";"1"
"1201";"20";"0";"1";"27";"1";"2";"12";"2";"[26,28,29,30]";"2";"0";"1"
"1202";"27";"0";"1";"32";"1";"2";"12";"2";"[17,31,33,34,35]";"2";"0";"1"
"1203";"29";"0";"1";"10";"1";"2";"12";"2";"[9]";"1";"0";"1"
"1204";"31";"0";"1";"2";"1";"2";"12";"2";"[1,3,4,5,19]";"2";"0";"1"
"1205";"30";"0";"1";"38";"1";"2";"12";"1";"[4,36,39,40]";"1";"0";"1"
"1206";"13";"0";"1";"25";"1";"2";"12";"2";"[21,23,24]";"2";"0";"1"
"1207";"7";"0";"1";"36";"1";"2";"12";"2";"[9,37,38,40]";"1";"0";"1"
"1208";"21";"0";"1";"15";"1";"2";"12";"1";"[11,12,13,14,23,30]";"1";"12";"1"
"1209";"26";"0";"1";"11";"1";"2";"12";"1";"[12,13,14,15]";"1";"0";"1"
"1210";"12";"0";"1";"28";"1";"2";"12";"1";"[26,27,29]";"1";"0";"1"
"1211";"4";"0";"1";"33";"1";"2";"12";"1";"[7,31,32,35]";"1";"2";"1"
"1212";"25";"0";"1";"40";"1";"2";"12";"1";"[36,37,38,39]";"1";"0";"1"
"1213";"24";"0";"1";"3";"1";"2";"12";"2";"[1,2]";"1";"0";"1"
"1214";"8";"0";"1";"29";"1";"2";"12";"1";"[26,27,28]";"2";"0";"1"
"1215";"37";"0";"1";"9";"1";"2";"12";"2";"[6,7,8,10,19,36]";"1";"0";"1"
"1216";"34";"0";"1";"13";"1";"2";"12";"2";"[11,12,14,15]";"2";"0";"1"
"1217";"28";"0";"1";"39";"1";"2";"12";"1";"[37,38,40]";"1";"0";"1"
"1218";"39";"0";"1";"20";"1";"2";"12";"2";"[16,17,18,19]";"1";"0";"1"
"1219";"11";"0";"1";"16";"1";"2";"12";"2";"[17,18,19,20]";"1";"0";"1"
"1220";"32";"0";"1";"34";"1";"2";"12";"1";"[31,32]";"2";"0";"1"
"1221";"22";"0";"1";"12";"1";"2";"12";"2";"[11,13,14,15]";"1";"0";"1"
"1222";"9";"0";"1";"23";"1";"2";"12";"1";"[15,21,22,24,25]";"1";"0";"1"
"1223";"40";"0";"1";"24";"1";"2";"12";"2";"[21,22,23,25]";"1";"0";"1"
"1224";"38";"0";"1";"26";"1";"2";"12";"1";"[4,27,28,29,30]";"2";"0";"1"
"1225";"36";"0";"1";"21";"1";"2";"12";"2";"[22,23,24,25]";"1";"0";"1"
"1226";"35";"0";"1";"14";"1";"2";"12";"2";"[11,12,13,15]";"1";"0";"1"
"1227";"37";"2";"1";"9";"1";"2";"1";"2";"[6,7,8,10,19,36]";"1";"0";"1"
"1228";"15";"3";"1";"17";"1";"2";"1";"2";"[16,18,19,20,32]";"2";"0";"1"
"1229";"8";"3";"1";"29";"1";"2";"1";"1";"[26,27,28]";"1";"0";"1"
"1230";"37";"3";"1";"9";"1";"2";"1";"2";"[6,7,8,10,19,36]";"1";"0";"1"
"1231";"13";"4";"1";"25";"1";"2";"1";"2";"[21,23,24]";"2";"0";"1"
"1232";"20";"4";"1";"27";"1";"2";"1";"2";"[26,28,29,30]";"2";"0";"1"
"1233";"26";"4";"1";"11";"1";"2";"1";"1";"[12,13,14,15]";"1";"0";"1"
"1234";"15";"4";"1";"17";"1";"2";"1";"2";"[16,18,19,20,32]";"2";"0";"1"
"1235";"8";"4";"1";"29";"1";"2";"1";"1";"[26,27,28]";"1";"0";"1"
"1236";"11";"4";"1";"16";"1";"2";"1";"2";"[17,18,19,20]";"2";"0";"1"
"1237";"31";"4";"1";"2";"1";"2";"1";"2";"[1,3,4,5,19]";"2";"0";"1"
"1238";"39";"4";"1";"20";"1";"2";"1";"2";"[16,17,18,19]";"1";"0";"1"
"1239";"3";"4";"1";"18";"1";"2";"1";"2";"[5,16,17,19,20]";"2";"0";"1"
"1240";"19";"4";"1";"37";"1";"2";"1";"2";"[36,39,40]";"2";"0";"1"
"1241";"13";"5";"1";"25";"1";"2";"1";"2";"[21,23,24]";"2";"0";"1"
"1242";"23";"5";"1";"8";"1";"2";"1";"1";"[4,6,7,9]";"1";"0";"1"
"1243";"20";"5";"1";"27";"1";"2";"1";"2";"[26,28,29,30]";"2";"0";"1"
"1244";"21";"5";"1";"15";"1";"2";"1";"1";"[11,12,13,14,23,30]";"1";"0";"1"
"1245";"26";"5";"1";"11";"1";"2";"1";"1";"[12,13,14,15]";"1";"0";"1"
"1246";"18";"5";"1";"5";"1";"2";"1";"2";"[1,2,4,18]";"2";"0";"1"
"1247";"11";"5";"1";"16";"1";"2";"1";"2";"[17,18,19,20]";"2";"0";"1"
"1248";"31";"5";"1";"2";"1";"2";"1";"2";"[1,3,4,5,19]";"2";"0";"1"
"1249";"17";"5";"1";"31";"1";"2";"1";"2";"[32,33,34,35]";"2";"0";"1"
"1250";"28";"5";"1";"39";"1";"2";"1";"1";"[37,38,40]";"1";"0";"1"
"1251";"39";"5";"1";"20";"1";"2";"1";"2";"[16,17,18,19]";"1";"0";"1"
"1252";"4";"5";"1";"33";"1";"2";"1";"1";"[7,31,32,35]";"2";"0";"1"
"1253";"3";"5";"1";"18";"1";"2";"1";"2";"[5,16,17,19,20]";"2";"0";"1"
"1254";"19";"5";"1";"37";"1";"2";"1";"2";"[36,39,40]";"2";"0";"1"
"1255";"5";"5";"1";"22";"1";"2";"1";"1";"[1,21,23,24]";"1";"0";"1"
"1256";"6";"6";"1";"35";"1";"2";"1";"2";"[31,32,33]";"2";"0";"1"
"1257";"23";"6";"1";"8";"1";"2";"1";"1";"[4,6,7,9]";"1";"0";"1"
"1258";"21";"6";"1";"15";"1";"2";"1";"1";"[11,12,13,14,23,30]";"1";"0";"1"
"1259";"18";"6";"1";"5";"1";"2";"1";"2";"[1,2,4,18]";"2";"0";"1"
"1260";"29";"6";"1";"10";"1";"2";"1";"2";"[9]";"2";"0";"1"
"1261";"10";"6";"1";"7";"1";"2";"1";"2";"[6,8,9,33]";"2";"0";"1"
"1262";"2";"6";"1";"30";"1";"2";"1";"2";"[15,26,27]";"2";"0";"1"
"1263";"17";"6";"1";"31";"1";"2";"1";"2";"[32,33,34,35]";"2";"0";"1"
"1264";"28";"6";"1";"39";"1";"2";"1";"1";"[37,38,40]";"1";"0";"1"
"1265";"9";"6";"1";"23";"1";"2";"1";"1";"[15,21,22,24,25]";"1";"0";"1"
"1266";"22";"6";"1";"12";"1";"2";"1";"2";"[11,13,14,15]";"2";"0";"1"
"1267";"4";"6";"1";"33";"1";"2";"1";"1";"[7,31,32,35]";"2";"0";"1"
"1268";"5";"6";"1";"22";"1";"2";"1";"1";"[1,21,23,24]";"1";"0";"1"
"1269";"6";"7";"1";"35";"1";"2";"1";"2";"[31,32,33]";"2";"0";"1"
"1270";"33";"7";"1";"6";"1";"2";"1";"2";"[7,8,9]";"2";"0";"1"
"1271";"29";"7";"1";"10";"1";"2";"1";"2";"[9]";"2";"0";"1"
"1272";"10";"7";"1";"7";"1";"2";"1";"2";"[6,8,9,33]";"2";"0";"1"
"1273";"2";"7";"1";"30";"1";"2";"1";"2";"[15,26,27]";"2";"0";"1"
"1274";"30";"7";"1";"38";"1";"2";"1";"1";"[4,36,39,40]";"1";"0";"1"
"1275";"9";"7";"1";"23";"1";"2";"1";"1";"[15,21,22,24,25]";"1";"0";"1"
"1276";"22";"7";"1";"12";"1";"2";"1";"2";"[11,13,14,15]";"2";"0";"1"
"1277";"33";"8";"1";"6";"1";"2";"1";"2";"[7,8,9]";"2";"0";"1"
"1278";"12";"8";"1";"28";"1";"2";"1";"1";"[26,27,29]";"2";"0";"1"
"1279";"1";"8";"1";"4";"1";"2";"1";"2";"[1,2,5,8,26,38]";"2";"0";"1"
"1280";"30";"8";"1";"38";"1";"2";"1";"1";"[4,36,39,40]";"1";"0";"1"
"1281";"25";"8";"1";"40";"1";"2";"1";"1";"[36,37,38,39]";"1";"0";"1"
"1282";"35";"8";"1";"14";"1";"2";"1";"2";"[11,12,13,15]";"2";"0";"1"
"1283";"12";"9";"1";"28";"1";"2";"1";"1";"[26,27,29]";"2";"0";"1"
"1284";"27";"9";"1";"32";"1";"2";"1";"2";"[17,31,33,34,35]";"2";"0";"1"
"1285";"1";"9";"1";"4";"1";"2";"1";"2";"[1,2,5,8,26,38]";"2";"0";"1"
"1286";"25";"9";"1";"40";"1";"2";"1";"1";"[36,37,38,39]";"1";"0";"1"
"1287";"35";"9";"1";"14";"1";"2";"1";"2";"[11,12,13,15]";"2";"0";"1"
"1288";"16";"9";"1";"1";"1";"2";"1";"2";"[2,3,4,5,22]";"2";"0";"1"
"1289";"14";"10";"1";"19";"1";"2";"1";"2";"[2,9,16,17,18,20]";"2";"0";"1"
"1290";"40";"10";"1";"24";"1";"2";"1";"2";"[21,22,23,25]";"2";"0";"1"
"1291";"27";"10";"1";"32";"1";"2";"1";"2";"[17,31,33,34,35]";"2";"0";"1"
"1292";"16";"10";"1";"1";"1";"2";"1";"2";"[2,3,4,5,22]";"2";"0";"1"
"1293";"24";"10";"1";"3";"1";"2";"1";"2";"[1,2]";"2";"0";"1"
"1294";"14";"11";"1";"19";"1";"2";"1";"2";"[2,9,16,17,18,20]";"2";"0";"1"
"1295";"40";"11";"1";"24";"1";"2";"1";"2";"[21,22,23,25]";"2";"0";"1"
"1296";"7";"11";"1";"36";"1";"2";"1";"2";"[9,37,38,40]";"1";"0";"1"
"1297";"24";"11";"1";"3";"1";"2";"1";"2";"[1,2]";"2";"0";"1"
"1298";"32";"12";"1";"34";"1";"2";"1";"1";"[31,32]";"1";"0";"1"
"1299";"7";"12";"1";"36";"1";"2";"1";"2";"[9,37,38,40]";"1";"0";"1"
"1300";"32";"13";"1";"34";"1";"2";"1";"1";"[31,32]";"1";"0";"1"
"1301";"34";"13";"1";"13";"1";"2";"1";"2";"[11,12,14,15]";"1";"0";"1"
"1302";"38";"13";"1";"26";"1";"2";"1";"1";"[4,27,28,29,30]";"1";"0";"1"
"1303";"34";"14";"1";"13";"1";"2";"1";"2";"[11,12,14,15]";"1";"0";"1"
"1304";"38";"14";"1";"26";"1";"2";"1";"1";"[4,27,28,29,30]";"1";"0";"1"
"1305";"36";"27";"1";"21";"1";"2";"1";"2";"[22,23,24,25]";"2";"0";"1"
"1306";"36";"28";"1";"21";"1";"2";"1";"2";"[22,23,24,25]";"2";"0";"1"
"1307";"6";"2";"1";"35";"1";"2";"2";"2";"[31,32,33]";"2";"0";"1"
"1308";"22";"3";"1";"12";"1";"2";"2";"2";"[11,13,14,15]";"1";"0";"1"
"1309";"2";"3";"1";"30";"1";"2";"2";"2";"[15,26,27]";"2";"0";"1"
"1310";"8";"3";"1";"29";"1";"2";"2";"1";"[26,27,28]";"1";"0";"1"
"1311";"17";"3";"1";"31";"1";"2";"2";"2";"[32,33,34,35]";"2";"0";"1"
"1312";"6";"3";"1";"35";"1";"2";"2";"2";"[31,32,33]";"2";"0";"1"
"1313";"11";"3";"1";"16";"1";"2";"2";"2";"[17,18,19,20]";"2";"0";"1"
"1314";"16";"3";"1";"1";"1";"2";"2";"2";"[2,3,4,5,22]";"2";"0";"1"
"1315";"31";"4";"1";"2";"1";"2";"2";"2";"[1,3,4,5,19]";"2";"0";"1"
"1316";"22";"4";"1";"12";"1";"2";"2";"2";"[11,13,14,15]";"1";"0";"1"
"1317";"2";"4";"1";"30";"1";"2";"2";"2";"[15,26,27]";"2";"0";"1"
"1318";"8";"4";"1";"29";"1";"2";"2";"1";"[26,27,28]";"1";"0";"1"
"1319";"27";"4";"1";"32";"1";"2";"2";"2";"[17,31,33,34,35]";"2";"0";"1"
"1320";"14";"4";"1";"19";"1";"2";"2";"2";"[2,9,16,17,18,20]";"2";"0";"1"
"1321";"17";"4";"1";"31";"1";"2";"2";"2";"[32,33,34,35]";"2";"0";"1"
"1322";"39";"4";"1";"20";"1";"2";"2";"2";"[16,17,18,19]";"2";"0";"1"
"1323";"30";"4";"1";"38";"1";"2";"2";"1";"[4,36,39,40]";"1";"0";"1"
"1324";"11";"4";"1";"16";"1";"2";"2";"2";"[17,18,19,20]";"2";"0";"1"
"1325";"16";"4";"1";"1";"1";"2";"2";"2";"[2,3,4,5,22]";"2";"0";"1"
"1326";"13";"4";"1";"25";"1";"2";"2";"2";"[21,23,24]";"2";"0";"1"
"1327";"31";"5";"1";"2";"1";"2";"2";"2";"[1,3,4,5,19]";"2";"0";"1"
"1328";"23";"5";"1";"8";"1";"2";"2";"1";"[4,6,7,9]";"2";"0";"1"
"1329";"27";"5";"1";"32";"1";"2";"2";"2";"[17,31,33,34,35]";"2";"0";"1"
"1330";"14";"5";"1";"19";"1";"2";"2";"2";"[2,9,16,17,18,20]";"2";"0";"1"
"1331";"15";"5";"1";"17";"1";"2";"2";"2";"[16,18,19,20,32]";"2";"0";"1"
"1332";"39";"5";"1";"20";"1";"2";"2";"2";"[16,17,18,19]";"2";"0";"1"
"1333";"30";"5";"1";"38";"1";"2";"2";"1";"[4,36,39,40]";"1";"0";"1"
"1334";"13";"5";"1";"25";"1";"2";"2";"2";"[21,23,24]";"2";"0";"1"
"1335";"40";"6";"1";"24";"1";"2";"2";"2";"[21,22,23,25]";"2";"0";"1"
"1336";"20";"6";"1";"27";"1";"2";"2";"2";"[26,28,29,30]";"2";"0";"1"
"1337";"23";"6";"1";"8";"1";"2";"2";"1";"[4,6,7,9]";"2";"0";"1"
"1338";"3";"6";"1";"18";"1";"2";"2";"2";"[5,16,17,19,20]";"2";"0";"1"
"1339";"38";"6";"1";"26";"1";"2";"2";"1";"[4,27,28,29,30]";"2";"0";"1"
"1340";"19";"6";"1";"37";"1";"2";"2";"2";"[36,39,40]";"2";"0";"1"
"1341";"15";"6";"1";"17";"1";"2";"2";"2";"[16,18,19,20,32]";"2";"0";"1"
"1342";"26";"6";"1";"11";"1";"2";"2";"1";"[12,13,14,15]";"1";"0";"1"
"1343";"20";"7";"1";"27";"1";"2";"2";"2";"[26,28,29,30]";"2";"0";"1"
"1344";"40";"7";"1";"24";"1";"2";"2";"2";"[21,22,23,25]";"2";"0";"1"
"1345";"3";"7";"1";"18";"1";"2";"2";"2";"[5,16,17,19,20]";"2";"0";"1"
"1346";"25";"7";"1";"40";"1";"2";"2";"1";"[36,37,38,39]";"1";"0";"1"
"1347";"33";"7";"1";"6";"1";"2";"2";"2";"[7,8,9]";"2";"0";"1"
"1348";"38";"7";"1";"26";"1";"2";"2";"1";"[4,27,28,29,30]";"2";"0";"1"
"1349";"18";"7";"1";"5";"1";"2";"2";"2";"[1,2,4,18]";"2";"0";"1"
"1350";"19";"7";"1";"37";"1";"2";"2";"2";"[36,39,40]";"2";"0";"1"
"1351";"26";"7";"1";"11";"1";"2";"2";"1";"[12,13,14,15]";"1";"0";"1"
"1352";"4";"7";"1";"33";"1";"2";"2";"1";"[7,31,32,35]";"1";"0";"1"
"1353";"10";"7";"1";"7";"1";"2";"2";"2";"[6,8,9,33]";"2";"0";"1"
"1354";"24";"8";"1";"3";"1";"2";"2";"2";"[1,2]";"2";"0";"1"
"1355";"25";"8";"1";"40";"1";"2";"2";"1";"[36,37,38,39]";"1";"0";"1"
"1356";"33";"8";"1";"6";"1";"2";"2";"2";"[7,8,9]";"2";"0";"1"
"1357";"18";"8";"1";"5";"1";"2";"2";"2";"[1,2,4,18]";"2";"0";"1"
"1358";"4";"8";"1";"33";"1";"2";"2";"1";"[7,31,32,35]";"1";"0";"1"
"1359";"7";"8";"1";"36";"1";"2";"2";"2";"[9,37,38,40]";"1";"0";"1"
"1360";"10";"8";"1";"7";"1";"2";"2";"2";"[6,8,9,33]";"2";"0";"1"
"1361";"28";"9";"1";"39";"1";"2";"2";"1";"[37,38,40]";"1";"0";"1"
"1362";"35";"9";"1";"14";"1";"2";"2";"2";"[11,12,13,15]";"1";"0";"1"
"1363";"24";"9";"1";"3";"1";"2";"2";"2";"[1,2]";"2";"0";"1"
"1364";"37";"9";"1";"9";"1";"2";"2";"2";"[6,7,8,10,19,36]";"2";"0";"1"
"1365";"7";"9";"1";"36";"1";"2";"2";"2";"[9,37,38,40]";"1";"0";"1"
"1366";"5";"10";"1";"22";"1";"2";"2";"1";"[1,21,23,24]";"1";"0";"1"
"1367";"28";"10";"1";"39";"1";"2";"2";"1";"[37,38,40]";"1";"0";"1"
"1368";"35";"10";"1";"14";"1";"2";"2";"2";"[11,12,13,15]";"1";"0";"1"
"1369";"37";"10";"1";"9";"1";"2";"2";"2";"[6,7,8,10,19,36]";"2";"0";"1"
"1370";"9";"10";"1";"23";"1";"2";"2";"1";"[15,21,22,24,25]";"1";"0";"1"
"1371";"5";"11";"1";"22";"1";"2";"2";"1";"[1,21,23,24]";"1";"0";"1"
"1372";"9";"11";"1";"23";"1";"2";"2";"1";"[15,21,22,24,25]";"1";"0";"1"
"1373";"12";"12";"1";"28";"1";"2";"2";"1";"[26,27,29]";"2";"0";"1"
"1374";"21";"13";"1";"15";"1";"2";"2";"1";"[11,12,13,14,23,30]";"1";"0";"1"
"1375";"12";"13";"1";"28";"1";"2";"2";"1";"[26,27,29]";"2";"0";"1"
"1376";"34";"14";"1";"13";"1";"2";"2";"2";"[11,12,14,15]";"2";"0";"1"
"1377";"21";"14";"1";"15";"1";"2";"2";"1";"[11,12,13,14,23,30]";"1";"0";"1"
"1378";"34";"15";"1";"13";"1";"2";"2";"2";"[11,12,14,15]";"2";"0";"1"
"1379";"36";"16";"1";"21";"1";"2";"2";"2";"[22,23,24,25]";"2";"0";"1"
"1380";"36";"17";"1";"21";"1";"2";"2";"2";"[22,23,24,25]";"2";"0";"1"
"1381";"29";"17";"1";"10";"1";"2";"2";"2";"[9]";"2";"0";"1"
"1382";"1";"18";"1";"4";"1";"2";"2";"2";"[1,2,5,8,26,38]";"2";"0";"1"
"1383";"29";"18";"1";"10";"1";"2";"2";"2";"[9]";"2";"0";"1"
"1384";"1";"19";"1";"4";"1";"2";"2";"2";"[1,2,5,8,26,38]";"2";"0";"1"
"1385";"32";"20";"1";"34";"1";"2";"2";"1";"[31,32]";"1";"0";"1"
"1386";"32";"21";"1";"34";"1";"2";"2";"1";"[31,32]";"1";"0";"1"
"1387";"11";"1";"1";"16";"1";"2";"3";"2";"[17,18,19,20]";"2";"0";"1"
"1388";"14";"2";"1";"19";"1";"2";"3";"2";"[2,9,16,17,18,20]";"2";"0";"1"
"1389";"16";"2";"1";"1";"1";"2";"3";"2";"[2,3,4,5,22]";"2";"0";"1"
"1390";"20";"2";"1";"27";"1";"2";"3";"2";"[26,28,29,30]";"2";"0";"1"
"1391";"28";"2";"1";"39";"1";"2";"3";"1";"[37,38,40]";"1";"0";"1"
"1392";"11";"2";"1";"16";"1";"2";"3";"2";"[17,18,19,20]";"2";"0";"1"
"1393";"2";"2";"1";"30";"1";"2";"3";"2";"[15,26,27]";"2";"0";"1"
"1394";"38";"2";"1";"26";"1";"2";"3";"1";"[4,27,28,29,30]";"2";"0";"1"
"1395";"13";"2";"1";"25";"1";"2";"3";"2";"[21,23,24]";"2";"0";"1"
"1396";"14";"3";"1";"19";"1";"2";"3";"2";"[2,9,16,17,18,20]";"2";"0";"1"
"1397";"8";"3";"1";"29";"1";"2";"3";"1";"[26,27,28]";"2";"0";"1"
"1398";"37";"3";"1";"9";"1";"2";"3";"2";"[6,7,8,10,19,36]";"2";"0";"1"
"1399";"31";"3";"1";"2";"1";"2";"3";"2";"[1,3,4,5,19]";"2";"0";"1"
"1400";"16";"3";"1";"1";"1";"2";"3";"2";"[2,3,4,5,22]";"2";"0";"1"
"1401";"20";"3";"1";"27";"1";"2";"3";"2";"[26,28,29,30]";"2";"0";"1"
"1402";"28";"3";"1";"39";"1";"2";"3";"1";"[37,38,40]";"1";"0";"1"
"1403";"2";"3";"1";"30";"1";"2";"3";"2";"[15,26,27]";"2";"0";"1"
"1404";"38";"3";"1";"26";"1";"2";"3";"1";"[4,27,28,29,30]";"2";"0";"1"
"1405";"13";"3";"1";"25";"1";"2";"3";"2";"[21,23,24]";"2";"0";"1"
"1406";"10";"3";"1";"7";"1";"2";"3";"2";"[6,8,9,33]";"2";"0";"1"
"1407";"8";"4";"1";"29";"1";"2";"3";"1";"[26,27,28]";"2";"0";"1"
"1408";"37";"4";"1";"9";"1";"2";"3";"2";"[6,7,8,10,19,36]";"2";"0";"1"
"1409";"31";"4";"1";"2";"1";"2";"3";"2";"[1,3,4,5,19]";"2";"0";"1"
"1410";"26";"4";"1";"11";"1";"2";"3";"1";"[12,13,14,15]";"1";"0";"1"
"1411";"34";"4";"1";"13";"1";"2";"3";"2";"[11,12,14,15]";"1";"0";"1"
"1412";"23";"4";"1";"8";"1";"2";"3";"1";"[4,6,7,9]";"2";"0";"1"
"1413";"15";"4";"1";"17";"1";"2";"3";"2";"[16,18,19,20,32]";"2";"0";"1"
"1414";"32";"4";"1";"34";"1";"2";"3";"1";"[31,32]";"1";"0";"1"
"1415";"3";"4";"1";"18";"1";"2";"3";"2";"[5,16,17,19,20]";"2";"0";"1"
"1416";"10";"4";"1";"7";"1";"2";"3";"2";"[6,8,9,33]";"2";"0";"1"
"1417";"29";"4";"1";"10";"1";"2";"3";"2";"[9]";"2";"0";"1"
"1418";"33";"5";"1";"6";"1";"2";"3";"2";"[7,8,9]";"2";"0";"1"
"1419";"26";"5";"1";"11";"1";"2";"3";"1";"[12,13,14,15]";"1";"0";"1"
"1420";"40";"5";"1";"24";"1";"2";"3";"2";"[21,22,23,25]";"2";"0";"1"
"1421";"34";"5";"1";"13";"1";"2";"3";"2";"[11,12,14,15]";"1";"0";"1"
"1422";"23";"5";"1";"8";"1";"2";"3";"1";"[4,6,7,9]";"2";"0";"1"
"1423";"15";"5";"1";"17";"1";"2";"3";"2";"[16,18,19,20,32]";"2";"0";"1"
"1424";"32";"5";"1";"34";"1";"2";"3";"1";"[31,32]";"1";"0";"1"
"1425";"7";"5";"1";"36";"1";"2";"3";"2";"[9,37,38,40]";"1";"0";"1"
"1426";"21";"5";"1";"15";"1";"2";"3";"1";"[11,12,13,14,23,30]";"1";"0";"1"
"1427";"3";"5";"1";"18";"1";"2";"3";"2";"[5,16,17,19,20]";"2";"0";"1"
"1428";"29";"5";"1";"10";"1";"2";"3";"2";"[9]";"2";"0";"1"
"1429";"24";"6";"1";"3";"1";"2";"3";"2";"[1,2]";"2";"0";"1"
"1430";"33";"6";"1";"6";"1";"2";"3";"2";"[7,8,9]";"2";"0";"1"
"1431";"6";"6";"1";"35";"1";"2";"3";"2";"[31,32,33]";"2";"0";"1"
"1432";"25";"6";"1";"40";"1";"2";"3";"1";"[36,37,38,39]";"1";"0";"1"
"1433";"36";"6";"1";"21";"1";"2";"3";"2";"[22,23,24,25]";"0";"1";"1"
"1434";"40";"6";"1";"24";"1";"2";"3";"2";"[21,22,23,25]";"2";"0";"1"
"1435";"4";"6";"1";"33";"1";"2";"3";"1";"[7,31,32,35]";"1";"0";"1"
"1436";"7";"6";"1";"36";"1";"2";"3";"2";"[9,37,38,40]";"1";"0";"1"
"1437";"5";"6";"1";"22";"1";"2";"3";"1";"[1,21,23,24]";"1";"0";"1"
"1438";"17";"6";"1";"31";"1";"2";"3";"2";"[32,33,34,35]";"2";"0";"1"
"1439";"1";"6";"1";"4";"1";"2";"3";"2";"[1,2,5,8,26,38]";"2";"0";"1"
"1440";"21";"6";"1";"15";"1";"2";"3";"1";"[11,12,13,14,23,30]";"1";"0";"1"
"1441";"30";"7";"1";"38";"1";"2";"3";"1";"[4,36,39,40]";"1";"0";"1"
"1442";"39";"7";"1";"20";"1";"2";"3";"2";"[16,17,18,19]";"2";"0";"1"
"1443";"24";"7";"1";"3";"1";"2";"3";"2";"[1,2]";"2";"0";"1"
"1444";"22";"7";"1";"12";"1";"2";"3";"2";"[11,13,14,15]";"1";"0";"1"
"1445";"6";"7";"1";"35";"1";"2";"3";"2";"[31,32,33]";"2";"0";"1"
"1446";"27";"7";"1";"32";"1";"2";"3";"2";"[17,31,33,34,35]";"2";"0";"1"
"1447";"25";"7";"1";"40";"1";"2";"3";"1";"[36,37,38,39]";"1";"0";"1"
"1448";"19";"7";"1";"37";"1";"2";"3";"2";"[36,39,40]";"2";"0";"1"
"1449";"4";"7";"1";"33";"1";"2";"3";"1";"[7,31,32,35]";"1";"0";"1"
"1450";"5";"7";"1";"22";"1";"2";"3";"1";"[1,21,23,24]";"1";"0";"1"
"1451";"17";"7";"1";"31";"1";"2";"3";"2";"[32,33,34,35]";"2";"0";"1"
"1452";"1";"7";"1";"4";"1";"2";"3";"2";"[1,2,5,8,26,38]";"2";"0";"1"
"1453";"30";"8";"1";"38";"1";"2";"3";"1";"[4,36,39,40]";"1";"0";"1"
"1454";"39";"8";"1";"20";"1";"2";"3";"2";"[16,17,18,19]";"2";"0";"1"
"1455";"22";"8";"1";"12";"1";"2";"3";"2";"[11,13,14,15]";"1";"0";"1"
