"id";"id_subj";"time";"session";"id_grp";"grp";"round";"period";"sig";"links";"choice";"hist";"active"
"1";"1";"0";"1";"16";"1";"1";"1";"1";"[1,3,8,21,24]";"0";"0";"1"
"2";"40";"0";"1";"23";"1";"1";"1";"1";"[18,27,40]";"0";"0";"1"
"3";"21";"0";"1";"24";"1";"1";"1";"1";"[16,27,28,36]";"0";"0";"1"
"4";"28";"0";"1";"30";"1";"1";"1";"2";"[13]";"0";"0";"1"
"5";"25";"0";"1";"5";"1";"1";"1";"1";"[6,11,21,31]";"0";"0";"1"
"6";"15";"0";"1";"25";"1";"1";"1";"1";"[4,15,17,20,26]";"0";"0";"1"
"7";"33";"0";"1";"6";"1";"1";"1";"1";"[5,26,32]";"0";"0";"1"
"8";"3";"0";"1";"32";"1";"1";"1";"1";"[6,21,26,33,36]";"0";"0";"1"
"9";"17";"0";"1";"15";"1";"1";"1";"2";"[2,3,11,25]";"0";"0";"1"
"10";"6";"0";"1";"21";"1";"1";"1";"1";"[5,13,16,26,28,31,32,33,36]";"0";"0";"1"
"11";"31";"0";"1";"33";"1";"1";"1";"1";"[10,21,32,37]";"0";"0";"1"
"12";"37";"0";"1";"26";"1";"1";"1";"1";"[6,11,19,21,22,25,28,32,40]";"0";"0";"1"
"13";"23";"0";"1";"29";"1";"1";"1";"1";"[3,9,12,31,39]";"0";"0";"1"
"14";"30";"0";"1";"11";"1";"1";"1";"1";"[5,15,26,35]";"0";"0";"1"
"15";"11";"0";"1";"12";"1";"1";"1";"1";"[10,29]";"0";"0";"1"
"16";"10";"0";"1";"4";"1";"1";"1";"2";"[1,14,17,25]";"0";"0";"1"
"17";"9";"0";"1";"31";"1";"1";"1";"2";"[5,21,29]";"0";"0";"1"
"18";"27";"0";"1";"27";"1";"1";"1";"1";"[19,22,23,24,37]";"0";"0";"1"
"19";"5";"0";"1";"38";"1";"1";"1";"1";"[10,17]";"0";"0";"1"
"20";"7";"0";"1";"22";"1";"1";"1";"2";"[14,26,27,39]";"0";"0";"1"
"21";"32";"0";"1";"17";"1";"1";"1";"1";"[1,4,7,14,18,25,28,38]";"0";"0";"1"
"22";"38";"0";"1";"8";"1";"1";"1";"2";"[7,14,16]";"0";"0";"1"
"23";"29";"0";"1";"20";"1";"1";"1";"2";"[3,7,25]";"0";"0";"1"
"24";"20";"0";"1";"1";"1";"1";"1";"1";"[4,16,17]";"0";"0";"1"
"25";"12";"0";"1";"14";"1";"1";"1";"1";"[4,8,17,22,37,40]";"0";"0";"1"
"26";"18";"0";"1";"10";"1";"1";"1";"1";"[12,19,28,33,38]";"0";"0";"1"
"27";"19";"0";"1";"34";"1";"1";"1";"1";"[28]";"0";"0";"1"
"28";"14";"0";"1";"36";"1";"1";"1";"1";"[2,21,24,32]";"0";"0";"1"
"29";"8";"0";"1";"18";"1";"1";"1";"1";"[17,23]";"0";"0";"1"
"30";"24";"0";"1";"7";"1";"1";"1";"1";"[3,8,17,20]";"0";"0";"1"
"31";"26";"0";"1";"2";"1";"1";"1";"1";"[15,36,39]";"0";"0";"1"
"32";"34";"0";"1";"39";"1";"1";"1";"2";"[2,19,22,29]";"0";"0";"1"
"33";"36";"0";"1";"40";"1";"1";"1";"2";"[3,14,23,26]";"0";"0";"1"
"34";"35";"0";"1";"9";"1";"1";"1";"1";"[29,35]";"0";"0";"1"
"35";"4";"0";"1";"28";"1";"1";"1";"1";"[10,17,21,24,26,34]";"0";"0";"1"
"36";"39";"0";"1";"37";"1";"1";"1";"1";"[14,27,33]";"0";"0";"1"
"37";"22";"0";"1";"13";"1";"1";"1";"2";"[21,30]";"0";"0";"1"
"38";"13";"0";"1";"35";"1";"1";"1";"1";"[9,11]";"0";"0";"1"
"39";"16";"0";"1";"19";"1";"1";"1";"2";"[10,26,27,39]";"0";"0";"1"
"40";"2";"0";"1";"3";"1";"1";"1";"2";"[7,15,16,20,29,40]";"0";"0";"1"
"41";"40";"3";"1";"23";"1";"1";"1";"1";"[18,27,40]";"1";"0";"1"
"42";"40";"4";"1";"23";"1";"1";"1";"1";"[18,27,40]";"1";"0";"1"
"43";"15";"4";"1";"25";"1";"1";"1";"1";"[4,15,17,20,26]";"1";"0";"1"
"44";"10";"4";"1";"4";"1";"1";"1";"2";"[1,14,17,25]";"1";"0";"1"
"45";"15";"5";"1";"25";"1";"1";"1";"1";"[4,15,17,20,26]";"1";"0";"1"
"46";"21";"5";"1";"24";"1";"1";"1";"1";"[16,27,28,36]";"1";"0";"1"
"47";"10";"5";"1";"4";"1";"1";"1";"2";"[1,14,17,25]";"1";"0";"1"
"48";"39";"5";"1";"37";"1";"1";"1";"1";"[14,27,33]";"1";"0";"1"
"49";"34";"5";"1";"39";"1";"1";"1";"2";"[2,19,22,29]";"2";"0";"1"
"50";"23";"5";"1";"29";"1";"1";"1";"1";"[3,9,12,31,39]";"1";"0";"1"
"51";"9";"6";"1";"31";"1";"1";"1";"2";"[5,21,29]";"2";"0";"1"
"52";"2";"6";"1";"3";"1";"1";"1";"2";"[7,15,16,20,29,40]";"1";"0";"1"
"53";"21";"6";"1";"24";"1";"1";"1";"1";"[16,27,28,36]";"1";"0";"1"
"54";"3";"6";"1";"32";"1";"1";"1";"1";"[6,21,26,33,36]";"1";"0";"1"
"55";"38";"6";"1";"8";"1";"1";"1";"2";"[7,14,16]";"2";"0";"1"
"56";"39";"6";"1";"37";"1";"1";"1";"1";"[14,27,33]";"1";"0";"1"
"57";"34";"6";"1";"39";"1";"1";"1";"2";"[2,19,22,29]";"2";"0";"1"
"58";"23";"6";"1";"29";"1";"1";"1";"1";"[3,9,12,31,39]";"1";"0";"1"
"59";"32";"7";"1";"17";"1";"1";"1";"1";"[1,4,7,14,18,25,28,38]";"1";"0";"1"
"60";"9";"7";"1";"31";"1";"1";"1";"2";"[5,21,29]";"2";"0";"1"
"61";"2";"7";"1";"3";"1";"1";"1";"2";"[7,15,16,20,29,40]";"1";"0";"1"
"62";"3";"7";"1";"32";"1";"1";"1";"1";"[6,21,26,33,36]";"1";"0";"1"
"63";"38";"7";"1";"8";"1";"1";"1";"2";"[7,14,16]";"2";"0";"1"
"64";"35";"7";"1";"9";"1";"1";"1";"1";"[29,35]";"1";"0";"1"
"65";"27";"7";"1";"27";"1";"1";"1";"1";"[19,22,23,24,37]";"1";"0";"1"
"66";"20";"7";"1";"1";"1";"1";"1";"1";"[4,16,17]";"1";"0";"1"
"67";"31";"8";"1";"33";"1";"1";"1";"1";"[10,21,32,37]";"1";"0";"1"
"68";"32";"8";"1";"17";"1";"1";"1";"1";"[1,4,7,14,18,25,28,38]";"1";"0";"1"
"69";"30";"8";"1";"11";"1";"1";"1";"1";"[5,15,26,35]";"1";"0";"1"
"70";"35";"8";"1";"9";"1";"1";"1";"1";"[29,35]";"1";"0";"1"
"71";"27";"8";"1";"27";"1";"1";"1";"1";"[19,22,23,24,37]";"1";"0";"1"
"72";"20";"8";"1";"1";"1";"1";"1";"1";"[4,16,17]";"1";"0";"1"
"73";"4";"9";"1";"28";"1";"1";"1";"1";"[10,17,21,24,26,34]";"1";"0";"1"
"74";"31";"9";"1";"33";"1";"1";"1";"1";"[10,21,32,37]";"1";"0";"1"
"75";"30";"9";"1";"11";"1";"1";"1";"1";"[5,15,26,35]";"1";"0";"1"
"76";"12";"9";"1";"14";"1";"1";"1";"1";"[4,8,17,22,37,40]";"1";"0";"1"
"77";"1";"9";"1";"16";"1";"1";"1";"1";"[1,3,8,21,24]";"1";"0";"1"
"78";"18";"9";"1";"10";"1";"1";"1";"1";"[12,19,28,33,38]";"1";"0";"1"
"79";"33";"9";"1";"6";"1";"1";"1";"1";"[5,26,32]";"1";"0";"1"
"80";"4";"10";"1";"28";"1";"1";"1";"1";"[10,17,21,24,26,34]";"1";"0";"1"
"81";"17";"10";"1";"15";"1";"1";"1";"2";"[2,3,11,25]";"2";"0";"1"
"82";"11";"10";"1";"12";"1";"1";"1";"1";"[10,29]";"1";"0";"1"
"83";"26";"10";"1";"2";"1";"1";"1";"1";"[15,36,39]";"1";"0";"1"
"84";"12";"10";"1";"14";"1";"1";"1";"1";"[4,8,17,22,37,40]";"1";"0";"1"
"85";"1";"10";"1";"16";"1";"1";"1";"1";"[1,3,8,21,24]";"1";"0";"1"
"86";"18";"10";"1";"10";"1";"1";"1";"1";"[12,19,28,33,38]";"1";"0";"1"
"87";"33";"10";"1";"6";"1";"1";"1";"1";"[5,26,32]";"1";"0";"1"
"88";"29";"10";"1";"20";"1";"1";"1";"2";"[3,7,25]";"2";"0";"1"
"89";"25";"11";"1";"5";"1";"1";"1";"1";"[6,11,21,31]";"1";"0";"1"
"90";"8";"11";"1";"18";"1";"1";"1";"1";"[17,23]";"1";"0";"1"
"91";"17";"11";"1";"15";"1";"1";"1";"2";"[2,3,11,25]";"2";"0";"1"
"92";"11";"11";"1";"12";"1";"1";"1";"1";"[10,29]";"1";"0";"1"
"93";"26";"11";"1";"2";"1";"1";"1";"1";"[15,36,39]";"1";"0";"1"
"94";"37";"11";"1";"26";"1";"1";"1";"1";"[6,11,19,21,22,25,28,32,40]";"1";"0";"1"
"95";"29";"11";"1";"20";"1";"1";"1";"2";"[3,7,25]";"2";"0";"1"
"96";"25";"12";"1";"5";"1";"1";"1";"1";"[6,11,21,31]";"1";"0";"1"
"97";"8";"12";"1";"18";"1";"1";"1";"1";"[17,23]";"1";"0";"1"
"98";"37";"12";"1";"26";"1";"1";"1";"1";"[6,11,19,21,22,25,28,32,40]";"1";"0";"1"
"99";"7";"14";"1";"22";"1";"1";"1";"2";"[14,26,27,39]";"2";"0";"1"
"100";"6";"15";"1";"21";"1";"1";"1";"1";"[5,13,16,26,28,31,32,33,36]";"1";"0";"1"
"101";"14";"15";"1";"36";"1";"1";"1";"1";"[2,21,24,32]";"1";"0";"1"
"102";"7";"15";"1";"22";"1";"1";"1";"2";"[14,26,27,39]";"2";"0";"1"
"103";"6";"16";"1";"21";"1";"1";"1";"1";"[5,13,16,26,28,31,32,33,36]";"1";"0";"1"
"104";"14";"16";"1";"36";"1";"1";"1";"1";"[2,21,24,32]";"1";"0";"1"
"105";"5";"16";"1";"38";"1";"1";"1";"1";"[10,17]";"1";"0";"1"
"106";"24";"16";"1";"7";"1";"1";"1";"1";"[3,8,17,20]";"2";"0";"1"
"107";"5";"17";"1";"38";"1";"1";"1";"1";"[10,17]";"1";"0";"1"
"108";"36";"17";"1";"40";"1";"1";"1";"2";"[3,14,23,26]";"1";"0";"1"
"109";"24";"17";"1";"7";"1";"1";"1";"1";"[3,8,17,20]";"2";"0";"1"
"110";"36";"18";"1";"40";"1";"1";"1";"2";"[3,14,23,26]";"1";"0";"1"
"111";"19";"20";"1";"34";"1";"1";"1";"1";"[28]";"1";"0";"1"
"112";"16";"21";"1";"19";"1";"1";"1";"2";"[10,26,27,39]";"2";"0";"1"
"113";"19";"21";"1";"34";"1";"1";"1";"1";"[28]";"1";"0";"1"
"114";"13";"21";"1";"35";"1";"1";"1";"1";"[9,11]";"1";"0";"1"
"115";"16";"22";"1";"19";"1";"1";"1";"2";"[10,26,27,39]";"2";"0";"1"
"116";"13";"22";"1";"35";"1";"1";"1";"1";"[9,11]";"1";"0";"1"
"117";"28";"25";"1";"30";"1";"1";"1";"2";"[13]";"2";"0";"1"
"118";"28";"26";"1";"30";"1";"1";"1";"2";"[13]";"2";"0";"1"
"119";"22";"26";"1";"13";"1";"1";"1";"2";"[21,30]";"1";"0";"1"
"120";"22";"27";"1";"13";"1";"1";"1";"2";"[21,30]";"1";"0";"1"
"121";"40";"3";"1";"23";"1";"1";"2";"1";"[18,27,40]";"1";"0";"1"
"122";"32";"3";"1";"17";"1";"1";"2";"1";"[1,4,7,14,18,25,28,38]";"1";"0";"1"
"123";"40";"4";"1";"23";"1";"1";"2";"1";"[18,27,40]";"1";"0";"1"
"124";"35";"4";"1";"9";"1";"1";"2";"1";"[29,35]";"1";"0";"1"
"125";"32";"4";"1";"17";"1";"1";"2";"1";"[1,4,7,14,18,25,28,38]";"1";"0";"1"
"126";"3";"5";"1";"32";"1";"1";"2";"1";"[6,21,26,33,36]";"1";"0";"1"
"127";"35";"5";"1";"9";"1";"1";"2";"1";"[29,35]";"1";"0";"1"
"128";"8";"6";"1";"18";"1";"1";"2";"1";"[17,23]";"1";"0";"1"
"129";"3";"6";"1";"32";"1";"1";"2";"1";"[6,21,26,33,36]";"1";"0";"1"
"130";"15";"6";"1";"25";"1";"1";"2";"1";"[4,15,17,20,26]";"1";"0";"1"
"131";"31";"6";"1";"33";"1";"1";"2";"1";"[10,21,32,37]";"1";"0";"1"
"132";"23";"7";"1";"29";"1";"1";"2";"1";"[3,9,12,31,39]";"1";"0";"1"
"133";"8";"7";"1";"18";"1";"1";"2";"1";"[17,23]";"1";"0";"1"
"134";"15";"7";"1";"25";"1";"1";"2";"1";"[4,15,17,20,26]";"1";"0";"1"
"135";"6";"7";"1";"21";"1";"1";"2";"1";"[5,13,16,26,28,31,32,33,36]";"1";"0";"1"
"136";"21";"7";"1";"24";"1";"1";"2";"1";"[16,27,28,36]";"1";"0";"1"
"137";"31";"7";"1";"33";"1";"1";"2";"1";"[10,21,32,37]";"1";"0";"1"
"138";"23";"8";"1";"29";"1";"1";"2";"1";"[3,9,12,31,39]";"1";"0";"1"
"139";"14";"8";"1";"36";"1";"1";"2";"1";"[2,21,24,32]";"1";"0";"1"
"140";"6";"8";"1";"21";"1";"1";"2";"1";"[5,13,16,26,28,31,32,33,36]";"1";"0";"1"
"141";"21";"8";"1";"24";"1";"1";"2";"1";"[16,27,28,36]";"1";"0";"1"
"142";"2";"9";"1";"3";"1";"1";"2";"2";"[7,15,16,20,29,40]";"2";"0";"1"
"143";"39";"9";"1";"37";"1";"1";"2";"1";"[14,27,33]";"1";"0";"1"
"144";"29";"9";"1";"20";"1";"1";"2";"2";"[3,7,25]";"1";"0";"1"
"145";"14";"9";"1";"36";"1";"1";"2";"1";"[2,21,24,32]";"1";"0";"1"
"146";"25";"9";"1";"5";"1";"1";"2";"1";"[6,11,21,31]";"1";"0";"1"
"147";"4";"9";"1";"28";"1";"1";"2";"1";"[10,17,21,24,26,34]";"1";"0";"1"
"148";"10";"9";"1";"4";"1";"1";"2";"2";"[1,14,17,25]";"1";"0";"1"
"149";"2";"10";"1";"3";"1";"1";"2";"2";"[7,15,16,20,29,40]";"2";"0";"1"
"150";"18";"10";"1";"10";"1";"1";"2";"1";"[12,19,28,33,38]";"1";"0";"1"
"151";"12";"10";"1";"14";"1";"1";"2";"1";"[4,8,17,22,37,40]";"1";"0";"1"
"152";"39";"10";"1";"37";"1";"1";"2";"1";"[14,27,33]";"1";"0";"1"
"153";"29";"10";"1";"20";"1";"1";"2";"2";"[3,7,25]";"1";"0";"1"
"154";"1";"10";"1";"16";"1";"1";"2";"1";"[1,3,8,21,24]";"1";"0";"1"
"155";"25";"10";"1";"5";"1";"1";"2";"1";"[6,11,21,31]";"1";"0";"1"
"156";"4";"10";"1";"28";"1";"1";"2";"1";"[10,17,21,24,26,34]";"1";"0";"1"
"157";"38";"10";"1";"8";"1";"1";"2";"2";"[7,14,16]";"2";"0";"1"
"158";"11";"10";"1";"12";"1";"1";"2";"1";"[10,29]";"1";"0";"1"
"159";"10";"10";"1";"4";"1";"1";"2";"2";"[1,14,17,25]";"1";"0";"1"
"160";"19";"10";"1";"34";"1";"1";"2";"1";"[28]";"1";"0";"1"
"161";"18";"11";"1";"10";"1";"1";"2";"1";"[12,19,28,33,38]";"1";"0";"1"
"162";"12";"11";"1";"14";"1";"1";"2";"1";"[4,8,17,22,37,40]";"1";"0";"1"
"163";"1";"11";"1";"16";"1";"1";"2";"1";"[1,3,8,21,24]";"1";"0";"1"
"164";"38";"11";"1";"8";"1";"1";"2";"2";"[7,14,16]";"2";"0";"1"
"165";"11";"11";"1";"12";"1";"1";"2";"1";"[10,29]";"1";"0";"1"
"166";"19";"11";"1";"34";"1";"1";"2";"1";"[28]";"1";"0";"1"
"167";"16";"12";"1";"19";"1";"1";"2";"2";"[10,26,27,39]";"1";"0";"1"
"168";"7";"12";"1";"22";"1";"1";"2";"2";"[14,26,27,39]";"1";"0";"1"
"169";"30";"12";"1";"11";"1";"1";"2";"1";"[5,15,26,35]";"1";"0";"1"
"170";"5";"12";"1";"38";"1";"1";"2";"1";"[10,17]";"1";"0";"1"
"171";"17";"12";"1";"15";"1";"1";"2";"2";"[2,3,11,25]";"1";"0";"1"
"172";"16";"13";"1";"19";"1";"1";"2";"2";"[10,26,27,39]";"1";"0";"1"
"173";"13";"13";"1";"35";"1";"1";"2";"1";"[9,11]";"1";"0";"1"
"174";"7";"13";"1";"22";"1";"1";"2";"2";"[14,26,27,39]";"1";"0";"1"
"175";"20";"13";"1";"1";"1";"1";"2";"1";"[4,16,17]";"1";"0";"1"
"176";"30";"13";"1";"11";"1";"1";"2";"1";"[5,15,26,35]";"1";"0";"1"
"177";"5";"13";"1";"38";"1";"1";"2";"1";"[10,17]";"1";"0";"1"
"178";"24";"13";"1";"7";"1";"1";"2";"1";"[3,8,17,20]";"1";"0";"1"
"179";"17";"13";"1";"15";"1";"1";"2";"2";"[2,3,11,25]";"1";"0";"1"
"180";"33";"13";"1";"6";"1";"1";"2";"1";"[5,26,32]";"1";"0";"1"
"181";"13";"14";"1";"35";"1";"1";"2";"1";"[9,11]";"1";"0";"1"
"182";"27";"14";"1";"27";"1";"1";"2";"1";"[19,22,23,24,37]";"1";"0";"1"
"183";"20";"14";"1";"1";"1";"1";"2";"1";"[4,16,17]";"1";"0";"1"
"184";"24";"14";"1";"7";"1";"1";"2";"1";"[3,8,17,20]";"1";"0";"1"
"185";"37";"14";"1";"26";"1";"1";"2";"1";"[6,11,19,21,22,25,28,32,40]";"1";"0";"1"
"186";"33";"14";"1";"6";"1";"1";"2";"1";"[5,26,32]";"1";"0";"1"
"187";"27";"15";"1";"27";"1";"1";"2";"1";"[19,22,23,24,37]";"1";"0";"1"
"188";"36";"15";"1";"40";"1";"1";"2";"2";"[3,14,23,26]";"1";"0";"1"
"189";"37";"15";"1";"26";"1";"1";"2";"1";"[6,11,19,21,22,25,28,32,40]";"1";"0";"1"
"190";"9";"15";"1";"31";"1";"1";"2";"2";"[5,21,29]";"1";"0";"1"
"191";"36";"16";"1";"40";"1";"1";"2";"2";"[3,14,23,26]";"1";"0";"1"
"192";"9";"16";"1";"31";"1";"1";"2";"2";"[5,21,29]";"1";"0";"1"
"193";"34";"17";"1";"39";"1";"1";"2";"2";"[2,19,22,29]";"2";"0";"1"
"194";"34";"18";"1";"39";"1";"1";"2";"2";"[2,19,22,29]";"2";"0";"1"
"195";"22";"19";"1";"13";"1";"1";"2";"2";"[21,30]";"2";"0";"1"
"196";"22";"20";"1";"13";"1";"1";"2";"2";"[21,30]";"2";"0";"1"
"197";"26";"22";"1";"2";"1";"1";"2";"1";"[15,36,39]";"2";"0";"1"
"198";"26";"23";"1";"2";"1";"1";"2";"1";"[15,36,39]";"2";"0";"1"
"199";"17";"26";"1";"15";"1";"1";"2";"2";"[2,3,11,25]";"1";"2";"1"
"200";"28";"26";"1";"30";"1";"1";"2";"2";"[13]";"1";"0";"1"
"201";"28";"27";"1";"30";"1";"1";"2";"2";"[13]";"1";"0";"1"
"202";"40";"2";"1";"23";"1";"1";"3";"1";"[18,27,40]";"1";"0";"1"
"203";"15";"2";"1";"25";"1";"1";"3";"1";"[4,15,17,20,26]";"1";"0";"1"
"204";"40";"3";"1";"23";"1";"1";"3";"1";"[18,27,40]";"1";"0";"1"
"205";"15";"3";"1";"25";"1";"1";"3";"1";"[4,15,17,20,26]";"1";"0";"1"
"206";"31";"3";"1";"33";"1";"1";"3";"1";"[10,21,32,37]";"1";"0";"1"
"207";"27";"4";"1";"27";"1";"1";"3";"1";"[19,22,23,24,37]";"1";"0";"1"
"208";"5";"4";"1";"38";"1";"1";"3";"1";"[10,17]";"0";"3";"1"
"209";"31";"4";"1";"33";"1";"1";"3";"1";"[10,21,32,37]";"1";"0";"1"
"210";"8";"4";"1";"18";"1";"1";"3";"1";"[17,23]";"1";"0";"1"
"211";"27";"5";"1";"27";"1";"1";"3";"1";"[19,22,23,24,37]";"1";"0";"1"
"212";"4";"5";"1";"28";"1";"1";"3";"1";"[10,17,21,24,26,34]";"1";"0";"1"
"213";"3";"5";"1";"32";"1";"1";"3";"1";"[6,21,26,33,36]";"1";"0";"1"
"214";"8";"5";"1";"18";"1";"1";"3";"1";"[17,23]";"1";"0";"1"
"215";"36";"5";"1";"40";"1";"1";"3";"2";"[3,14,23,26]";"2";"0";"1"
"216";"4";"6";"1";"28";"1";"1";"3";"1";"[10,17,21,24,26,34]";"1";"0";"1"
"217";"33";"6";"1";"6";"1";"1";"3";"1";"[5,26,32]";"1";"0";"1"
"218";"3";"6";"1";"32";"1";"1";"3";"1";"[6,21,26,33,36]";"1";"0";"1"
"219";"25";"6";"1";"5";"1";"1";"3";"1";"[6,11,21,31]";"1";"0";"1"
"220";"17";"6";"1";"15";"1";"1";"3";"2";"[2,3,11,25]";"2";"0";"1"
"221";"29";"6";"1";"20";"1";"1";"3";"2";"[3,7,25]";"1";"0";"1"
"222";"36";"6";"1";"40";"1";"1";"3";"2";"[3,14,23,26]";"2";"0";"1"
"223";"18";"7";"1";"10";"1";"1";"3";"1";"[12,19,28,33,38]";"1";"0";"1"
"224";"33";"7";"1";"6";"1";"1";"3";"1";"[5,26,32]";"1";"0";"1"
"225";"25";"7";"1";"5";"1";"1";"3";"1";"[6,11,21,31]";"1";"0";"1"
"226";"17";"7";"1";"15";"1";"1";"3";"2";"[2,3,11,25]";"2";"0";"1"
"227";"29";"7";"1";"20";"1";"1";"3";"2";"[3,7,25]";"1";"0";"1"
"228";"7";"7";"1";"22";"1";"1";"3";"2";"[14,26,27,39]";"1";"0";"1"
"229";"13";"8";"1";"35";"1";"1";"3";"1";"[9,11]";"2";"0";"1"
"230";"12";"8";"1";"14";"1";"1";"3";"1";"[4,8,17,22,37,40]";"1";"0";"1"
"231";"18";"8";"1";"10";"1";"1";"3";"1";"[12,19,28,33,38]";"1";"0";"1"
"232";"10";"8";"1";"4";"1";"1";"3";"2";"[1,14,17,25]";"2";"0";"1"
"233";"30";"8";"1";"11";"1";"1";"3";"1";"[5,15,26,35]";"1";"0";"1"
"234";"7";"8";"1";"22";"1";"1";"3";"2";"[14,26,27,39]";"1";"0";"1"
"235";"13";"9";"1";"35";"1";"1";"3";"1";"[9,11]";"2";"0";"1"
"236";"12";"9";"1";"14";"1";"1";"3";"1";"[4,8,17,22,37,40]";"1";"0";"1"
"237";"10";"9";"1";"4";"1";"1";"3";"2";"[1,14,17,25]";"2";"0";"1"
"238";"23";"9";"1";"29";"1";"1";"3";"1";"[3,9,12,31,39]";"1";"0";"1"
"239";"30";"9";"1";"11";"1";"1";"3";"1";"[5,15,26,35]";"1";"0";"1"
"240";"9";"9";"1";"31";"1";"1";"3";"2";"[5,21,29]";"1";"0";"1"
"241";"23";"10";"1";"29";"1";"1";"3";"1";"[3,9,12,31,39]";"1";"0";"1"
"242";"9";"10";"1";"31";"1";"1";"3";"2";"[5,21,29]";"1";"0";"1"
"243";"2";"10";"1";"3";"1";"1";"3";"2";"[7,15,16,20,29,40]";"2";"0";"1"
"244";"28";"11";"1";"30";"1";"1";"3";"2";"[13]";"1";"0";"1"
"245";"6";"11";"1";"21";"1";"1";"3";"1";"[5,13,16,26,28,31,32,33,36]";"1";"0";"1"
"246";"11";"11";"1";"12";"1";"1";"3";"1";"[10,29]";"1";"0";"1"
"247";"21";"11";"1";"24";"1";"1";"3";"1";"[16,27,28,36]";"1";"0";"1"
"248";"2";"11";"1";"3";"1";"1";"3";"2";"[7,15,16,20,29,40]";"2";"0";"1"
"249";"32";"12";"1";"17";"1";"1";"3";"1";"[1,4,7,14,18,25,28,38]";"1";"0";"1"
"250";"28";"12";"1";"30";"1";"1";"3";"2";"[13]";"1";"0";"1"
"251";"6";"12";"1";"21";"1";"1";"3";"1";"[5,13,16,26,28,31,32,33,36]";"1";"0";"1"
"252";"11";"12";"1";"12";"1";"1";"3";"1";"[10,29]";"1";"0";"1"
"253";"21";"12";"1";"24";"1";"1";"3";"1";"[16,27,28,36]";"1";"0";"1"
"254";"35";"12";"1";"9";"1";"1";"3";"1";"[29,35]";"1";"0";"1"
"255";"38";"13";"1";"8";"1";"1";"3";"2";"[7,14,16]";"2";"0";"1"
"256";"32";"13";"1";"17";"1";"1";"3";"1";"[1,4,7,14,18,25,28,38]";"1";"0";"1"
"257";"35";"13";"1";"9";"1";"1";"3";"1";"[29,35]";"1";"0";"1"
"258";"38";"14";"1";"8";"1";"1";"3";"2";"[7,14,16]";"2";"0";"1"
"259";"19";"14";"1";"34";"1";"1";"3";"1";"[28]";"1";"0";"1"
"260";"39";"14";"1";"37";"1";"1";"3";"1";"[14,27,33]";"1";"0";"1"
"261";"5";"15";"1";"38";"1";"1";"3";"1";"[10,17]";"0";"1";"1"
"262";"19";"15";"1";"34";"1";"1";"3";"1";"[28]";"1";"0";"1"
"263";"14";"15";"1";"36";"1";"1";"3";"1";"[2,21,24,32]";"2";"0";"1"
"264";"39";"15";"1";"37";"1";"1";"3";"1";"[14,27,33]";"1";"0";"1"
"265";"14";"16";"1";"36";"1";"1";"3";"1";"[2,21,24,32]";"2";"0";"1"
"266";"16";"16";"1";"19";"1";"1";"3";"2";"[10,26,27,39]";"1";"0";"1"
"267";"22";"16";"1";"13";"1";"1";"3";"2";"[21,30]";"1";"0";"1"
"268";"5";"17";"1";"38";"1";"1";"3";"1";"[10,17]";"0";"2";"1"
"269";"16";"17";"1";"19";"1";"1";"3";"2";"[10,26,27,39]";"1";"0";"1"
"270";"22";"17";"1";"13";"1";"1";"3";"2";"[21,30]";"1";"0";"1"
"271";"1";"18";"1";"16";"1";"1";"3";"1";"[1,3,8,21,24]";"1";"0";"1"
"272";"1";"19";"1";"16";"1";"1";"3";"1";"[1,3,8,21,24]";"1";"0";"1"
"273";"20";"20";"1";"1";"1";"1";"3";"1";"[4,16,17]";"1";"0";"1"
"274";"5";"20";"1";"38";"1";"1";"3";"1";"[10,17]";"0";"3";"1"
"275";"24";"20";"1";"7";"1";"1";"3";"1";"[3,8,17,20]";"1";"0";"1"
"276";"20";"21";"1";"1";"1";"1";"3";"1";"[4,16,17]";"1";"0";"1"
"277";"24";"21";"1";"7";"1";"1";"3";"1";"[3,8,17,20]";"1";"0";"1"
"278";"26";"21";"1";"2";"1";"1";"3";"1";"[15,36,39]";"2";"0";"1"
"279";"26";"22";"1";"2";"1";"1";"3";"1";"[15,36,39]";"2";"0";"1"
"280";"37";"22";"1";"26";"1";"1";"3";"1";"[6,11,19,21,22,25,28,32,40]";"1";"0";"1"
"281";"5";"22";"1";"38";"1";"1";"3";"1";"[10,17]";"1";"3";"1"
"282";"37";"23";"1";"26";"1";"1";"3";"1";"[6,11,19,21,22,25,28,32,40]";"1";"0";"1"
"283";"5";"23";"1";"38";"1";"1";"3";"1";"[10,17]";"1";"3";"1"
"284";"34";"23";"1";"39";"1";"1";"3";"2";"[2,19,22,29]";"1";"0";"1"
"285";"34";"24";"1";"39";"1";"1";"3";"2";"[2,19,22,29]";"1";"0";"1"
"286";"11";"3";"1";"12";"1";"1";"4";"1";"[10,29]";"0";"2";"1"
"287";"24";"3";"1";"7";"1";"1";"4";"1";"[3,8,17,20]";"0";"2";"1"
"288";"4";"3";"1";"28";"1";"1";"4";"1";"[10,17,21,24,26,34]";"1";"0";"1"
"289";"15";"3";"1";"25";"1";"1";"4";"1";"[4,15,17,20,26]";"1";"0";"1"
"290";"31";"4";"1";"33";"1";"1";"4";"1";"[10,21,32,37]";"1";"0";"1"
"291";"7";"4";"1";"22";"1";"1";"4";"2";"[14,26,27,39]";"1";"0";"1"
"292";"40";"4";"1";"23";"1";"1";"4";"1";"[18,27,40]";"1";"0";"1"
"293";"4";"4";"1";"28";"1";"1";"4";"1";"[10,17,21,24,26,34]";"1";"0";"1"
"294";"18";"4";"1";"10";"1";"1";"4";"1";"[12,19,28,33,38]";"1";"0";"1"
"295";"25";"4";"1";"5";"1";"1";"4";"1";"[6,11,21,31]";"1";"0";"1"
"296";"24";"4";"1";"7";"1";"1";"4";"1";"[3,8,17,20]";"0";"1";"1"
"297";"15";"4";"1";"25";"1";"1";"4";"1";"[4,15,17,20,26]";"1";"0";"1"
"298";"3";"4";"1";"32";"1";"1";"4";"1";"[6,21,26,33,36]";"1";"0";"1"
"299";"31";"5";"1";"33";"1";"1";"4";"1";"[10,21,32,37]";"1";"0";"1"
"300";"7";"5";"1";"22";"1";"1";"4";"2";"[14,26,27,39]";"1";"0";"1"
"301";"1";"5";"1";"16";"1";"1";"4";"1";"[1,3,8,21,24]";"1";"0";"1"
"302";"40";"5";"1";"23";"1";"1";"4";"1";"[18,27,40]";"1";"0";"1"
"303";"8";"5";"1";"18";"1";"1";"4";"1";"[17,23]";"1";"0";"1"
"304";"18";"5";"1";"10";"1";"1";"4";"1";"[12,19,28,33,38]";"1";"0";"1"
"305";"25";"5";"1";"5";"1";"1";"4";"1";"[6,11,21,31]";"1";"0";"1"
"306";"3";"5";"1";"32";"1";"1";"4";"1";"[6,21,26,33,36]";"1";"0";"1"
"307";"1";"6";"1";"16";"1";"1";"4";"1";"[1,3,8,21,24]";"1";"0";"1"
"308";"8";"6";"1";"18";"1";"1";"4";"1";"[17,23]";"1";"0";"1"
"309";"27";"6";"1";"27";"1";"1";"4";"1";"[19,22,23,24,37]";"1";"0";"1"
"310";"24";"6";"1";"7";"1";"1";"4";"1";"[3,8,17,20]";"0";"2";"1"
"311";"12";"6";"1";"14";"1";"1";"4";"1";"[4,8,17,22,37,40]";"1";"0";"1"
"312";"32";"7";"1";"17";"1";"1";"4";"1";"[1,4,7,14,18,25,28,38]";"1";"0";"1"
"313";"27";"7";"1";"27";"1";"1";"4";"1";"[19,22,23,24,37]";"1";"0";"1"
"314";"24";"7";"1";"7";"1";"1";"4";"1";"[3,8,17,20]";"0";"3";"1"
"315";"20";"7";"1";"1";"1";"1";"4";"1";"[4,16,17]";"1";"0";"1"
"316";"36";"7";"1";"40";"1";"1";"4";"2";"[3,14,23,26]";"1";"0";"1"
"317";"12";"7";"1";"14";"1";"1";"4";"1";"[4,8,17,22,37,40]";"1";"0";"1"
"318";"32";"8";"1";"17";"1";"1";"4";"1";"[1,4,7,14,18,25,28,38]";"1";"0";"1"
"319";"33";"8";"1";"6";"1";"1";"4";"1";"[5,26,32]";"1";"0";"1"
"320";"37";"8";"1";"26";"1";"1";"4";"1";"[6,11,19,21,22,25,28,32,40]";"2";"0";"1"
"321";"34";"8";"1";"39";"1";"1";"4";"2";"[2,19,22,29]";"1";"0";"1"
"322";"9";"8";"1";"31";"1";"1";"4";"2";"[5,21,29]";"1";"0";"1"
"323";"14";"8";"1";"36";"1";"1";"4";"1";"[2,21,24,32]";"2";"0";"1"
"324";"20";"8";"1";"1";"1";"1";"4";"1";"[4,16,17]";"1";"0";"1"
"325";"35";"8";"1";"9";"1";"1";"4";"1";"[29,35]";"1";"0";"1"
"326";"24";"8";"1";"7";"1";"1";"4";"1";"[3,8,17,20]";"0";"4";"1"
"327";"36";"8";"1";"40";"1";"1";"4";"2";"[3,14,23,26]";"1";"0";"1"
"328";"33";"9";"1";"6";"1";"1";"4";"1";"[5,26,32]";"1";"0";"1"
"329";"37";"9";"1";"26";"1";"1";"4";"1";"[6,11,19,21,22,25,28,32,40]";"2";"0";"1"
"330";"34";"9";"1";"39";"1";"1";"4";"2";"[2,19,22,29]";"1";"0";"1"
"331";"11";"9";"1";"12";"1";"1";"4";"1";"[10,29]";"0";"4";"1"
"332";"23";"9";"1";"29";"1";"1";"4";"1";"[3,9,12,31,39]";"1";"0";"1"
"333";"9";"9";"1";"31";"1";"1";"4";"2";"[5,21,29]";"1";"0";"1"
"334";"14";"9";"1";"36";"1";"1";"4";"1";"[2,21,24,32]";"2";"0";"1"
"335";"19";"9";"1";"34";"1";"1";"4";"1";"[28]";"1";"0";"1"
"336";"35";"9";"1";"9";"1";"1";"4";"1";"[29,35]";"1";"0";"1"
"337";"23";"10";"1";"29";"1";"1";"4";"1";"[3,9,12,31,39]";"1";"0";"1"
"338";"21";"10";"1";"24";"1";"1";"4";"1";"[16,27,28,36]";"1";"0";"1"
"339";"19";"10";"1";"34";"1";"1";"4";"1";"[28]";"1";"0";"1"
"340";"29";"10";"1";"20";"1";"1";"4";"2";"[3,7,25]";"1";"0";"1"
"341";"16";"11";"1";"19";"1";"1";"4";"2";"[10,26,27,39]";"1";"0";"1"
"342";"21";"11";"1";"24";"1";"1";"4";"1";"[16,27,28,36]";"1";"0";"1"
"343";"38";"11";"1";"8";"1";"1";"4";"2";"[7,14,16]";"2";"0";"1"
"344";"29";"11";"1";"20";"1";"1";"4";"2";"[3,7,25]";"1";"0";"1"
"345";"39";"12";"1";"37";"1";"1";"4";"1";"[14,27,33]";"2";"0";"1"
"346";"16";"12";"1";"19";"1";"1";"4";"2";"[10,26,27,39]";"1";"0";"1"
"347";"38";"12";"1";"8";"1";"1";"4";"2";"[7,14,16]";"2";"0";"1"
"348";"5";"12";"1";"38";"1";"1";"4";"1";"[10,17]";"0";"4";"1"
"349";"39";"13";"1";"37";"1";"1";"4";"1";"[14,27,33]";"2";"0";"1"
"350";"10";"13";"1";"4";"1";"1";"4";"2";"[1,14,17,25]";"2";"0";"1"
"351";"24";"13";"1";"7";"1";"1";"4";"1";"[3,8,17,20]";"1";"4";"1"
"352";"11";"13";"1";"12";"1";"1";"4";"1";"[10,29]";"2";"4";"1"
"353";"10";"14";"1";"4";"1";"1";"4";"2";"[1,14,17,25]";"2";"0";"1"
"354";"13";"14";"1";"35";"1";"1";"4";"1";"[9,11]";"2";"0";"1"
"355";"24";"14";"1";"7";"1";"1";"4";"1";"[3,8,17,20]";"1";"4";"1"
"356";"11";"14";"1";"12";"1";"1";"4";"1";"[10,29]";"2";"4";"1"
"357";"17";"15";"1";"15";"1";"1";"4";"2";"[2,3,11,25]";"2";"0";"1"
"358";"13";"15";"1";"35";"1";"1";"4";"1";"[9,11]";"2";"0";"1"
"359";"17";"16";"1";"15";"1";"1";"4";"2";"[2,3,11,25]";"2";"0";"1"
"360";"30";"16";"1";"11";"1";"1";"4";"1";"[5,15,26,35]";"1";"0";"1"
"361";"28";"17";"1";"30";"1";"1";"4";"2";"[13]";"2";"0";"1"
"362";"30";"17";"1";"11";"1";"1";"4";"1";"[5,15,26,35]";"1";"0";"1"
"363";"28";"18";"1";"30";"1";"1";"4";"2";"[13]";"2";"0";"1"
"364";"2";"18";"1";"3";"1";"1";"4";"2";"[7,15,16,20,29,40]";"2";"0";"1"
"365";"26";"19";"1";"2";"1";"1";"4";"1";"[15,36,39]";"1";"0";"1"
"366";"2";"19";"1";"3";"1";"1";"4";"2";"[7,15,16,20,29,40]";"2";"0";"1"
"367";"26";"20";"1";"2";"1";"1";"4";"1";"[15,36,39]";"1";"0";"1"
"368";"6";"20";"1";"21";"1";"1";"4";"1";"[5,13,16,26,28,31,32,33,36]";"1";"0";"1"
"369";"5";"21";"1";"38";"1";"1";"4";"1";"[10,17]";"1";"4";"1"
"370";"6";"21";"1";"21";"1";"1";"4";"1";"[5,13,16,26,28,31,32,33,36]";"1";"0";"1"
"371";"22";"22";"1";"13";"1";"1";"4";"2";"[21,30]";"1";"0";"1"
"372";"5";"22";"1";"38";"1";"1";"4";"1";"[10,17]";"1";"4";"1"
"373";"22";"23";"1";"13";"1";"1";"4";"2";"[21,30]";"1";"0";"1"
"374";"28";"1";"1";"30";"1";"1";"5";"2";"[13]";"2";"0";"1"
"375";"40";"1";"1";"23";"1";"1";"5";"1";"[18,27,40]";"1";"0";"1"
"376";"31";"1";"1";"33";"1";"1";"5";"1";"[10,21,32,37]";"1";"0";"1"
"377";"15";"1";"1";"25";"1";"1";"5";"1";"[4,15,17,20,26]";"1";"0";"1"
"378";"28";"2";"1";"30";"1";"1";"5";"2";"[13]";"2";"0";"1"
"379";"37";"2";"1";"26";"1";"1";"5";"1";"[6,11,19,21,22,25,28,32,40]";"1";"0";"1"
"380";"40";"2";"1";"23";"1";"1";"5";"1";"[18,27,40]";"1";"0";"1"
"381";"34";"2";"1";"39";"1";"1";"5";"2";"[2,19,22,29]";"1";"0";"1"
"382";"31";"2";"1";"33";"1";"1";"5";"1";"[10,21,32,37]";"1";"0";"1"
"383";"15";"2";"1";"25";"1";"1";"5";"1";"[4,15,17,20,26]";"1";"0";"1"
"384";"25";"3";"1";"5";"1";"1";"5";"1";"[6,11,21,31]";"1";"0";"1"
"385";"7";"3";"1";"22";"1";"1";"5";"2";"[14,26,27,39]";"1";"0";"1"
"386";"37";"3";"1";"26";"1";"1";"5";"1";"[6,11,19,21,22,25,28,32,40]";"1";"0";"1"
"387";"22";"3";"1";"13";"1";"1";"5";"2";"[21,30]";"2";"0";"1"
"388";"34";"3";"1";"39";"1";"1";"5";"2";"[2,19,22,29]";"1";"0";"1"
"389";"25";"4";"1";"5";"1";"1";"5";"1";"[6,11,21,31]";"1";"0";"1"
"390";"7";"4";"1";"22";"1";"1";"5";"2";"[14,26,27,39]";"1";"0";"1"
"391";"3";"4";"1";"32";"1";"1";"5";"1";"[6,21,26,33,36]";"1";"0";"1"
"392";"22";"4";"1";"13";"1";"1";"5";"2";"[21,30]";"2";"0";"1"
"393";"20";"4";"1";"1";"1";"1";"5";"1";"[4,16,17]";"0";"3";"1"
"394";"3";"5";"1";"32";"1";"1";"5";"1";"[6,21,26,33,36]";"1";"0";"1"
"395";"36";"5";"1";"40";"1";"1";"5";"2";"[3,14,23,26]";"1";"0";"1"
"396";"14";"5";"1";"36";"1";"1";"5";"1";"[2,21,24,32]";"2";"0";"1"
"397";"11";"5";"1";"12";"1";"1";"5";"1";"[10,29]";"1";"0";"1"
"398";"18";"6";"1";"10";"1";"1";"5";"1";"[12,19,28,33,38]";"1";"0";"1"
"399";"20";"6";"1";"1";"1";"1";"5";"1";"[4,16,17]";"0";"2";"1"
"400";"23";"6";"1";"29";"1";"1";"5";"1";"[3,9,12,31,39]";"2";"0";"1"
"401";"36";"6";"1";"40";"1";"1";"5";"2";"[3,14,23,26]";"1";"0";"1"
"402";"10";"6";"1";"4";"1";"1";"5";"2";"[1,14,17,25]";"2";"0";"1"
"403";"14";"6";"1";"36";"1";"1";"5";"1";"[2,21,24,32]";"2";"0";"1"
"404";"9";"6";"1";"31";"1";"1";"5";"2";"[5,21,29]";"1";"0";"1"
"405";"11";"6";"1";"12";"1";"1";"5";"1";"[10,29]";"1";"0";"1"
"406";"32";"6";"1";"17";"1";"1";"5";"1";"[1,4,7,14,18,25,28,38]";"2";"0";"1"
"407";"35";"7";"1";"9";"1";"1";"5";"1";"[29,35]";"1";"0";"1"
"408";"18";"7";"1";"10";"1";"1";"5";"1";"[12,19,28,33,38]";"1";"0";"1"
"409";"23";"7";"1";"29";"1";"1";"5";"1";"[3,9,12,31,39]";"2";"0";"1"
"410";"10";"7";"1";"4";"1";"1";"5";"2";"[1,14,17,25]";"2";"0";"1"
"411";"8";"7";"1";"18";"1";"1";"5";"1";"[17,23]";"1";"0";"1"
"412";"38";"7";"1";"8";"1";"1";"5";"2";"[7,14,16]";"2";"0";"1"
"413";"9";"7";"1";"31";"1";"1";"5";"2";"[5,21,29]";"1";"0";"1"
"414";"32";"8";"1";"17";"1";"1";"5";"1";"[1,4,7,14,18,25,28,38]";"2";"0";"1"
"415";"35";"8";"1";"9";"1";"1";"5";"1";"[29,35]";"1";"0";"1"
"416";"8";"8";"1";"18";"1";"1";"5";"1";"[17,23]";"1";"0";"1"
"417";"38";"8";"1";"8";"1";"1";"5";"2";"[7,14,16]";"2";"0";"1"
"418";"12";"8";"1";"14";"1";"1";"5";"1";"[4,8,17,22,37,40]";"1";"0";"1"
"419";"30";"8";"1";"11";"1";"1";"5";"1";"[5,15,26,35]";"2";"0";"1"
"420";"20";"8";"1";"1";"1";"1";"5";"1";"[4,16,17]";"0";"5";"1"
"421";"12";"9";"1";"14";"1";"1";"5";"1";"[4,8,17,22,37,40]";"1";"0";"1"
"422";"30";"9";"1";"11";"1";"1";"5";"1";"[5,15,26,35]";"2";"0";"1"
"423";"21";"10";"1";"24";"1";"1";"5";"1";"[16,27,28,36]";"1";"0";"1"
"424";"39";"10";"1";"37";"1";"1";"5";"1";"[14,27,33]";"1";"0";"1"
"425";"19";"10";"1";"34";"1";"1";"5";"1";"[28]";"1";"0";"1"
"426";"27";"10";"1";"27";"1";"1";"5";"1";"[19,22,23,24,37]";"1";"0";"1"
"427";"21";"11";"1";"24";"1";"1";"5";"1";"[16,27,28,36]";"1";"0";"1"
"428";"39";"11";"1";"37";"1";"1";"5";"1";"[14,27,33]";"1";"0";"1"
"429";"19";"11";"1";"34";"1";"1";"5";"1";"[28]";"1";"0";"1"
"430";"27";"11";"1";"27";"1";"1";"5";"1";"[19,22,23,24,37]";"1";"0";"1"
"431";"29";"12";"1";"20";"1";"1";"5";"2";"[3,7,25]";"1";"0";"1"
"432";"1";"13";"1";"16";"1";"1";"5";"1";"[1,3,8,21,24]";"1";"0";"1"
"433";"16";"13";"1";"19";"1";"1";"5";"2";"[10,26,27,39]";"1";"0";"1"
"434";"29";"13";"1";"20";"1";"1";"5";"2";"[3,7,25]";"1";"0";"1"
"435";"1";"14";"1";"16";"1";"1";"5";"1";"[1,3,8,21,24]";"1";"0";"1"
"436";"20";"14";"1";"1";"1";"1";"5";"1";"[4,16,17]";"1";"5";"1"
"437";"16";"14";"1";"19";"1";"1";"5";"2";"[10,26,27,39]";"1";"0";"1"
"438";"2";"14";"1";"3";"1";"1";"5";"2";"[7,15,16,20,29,40]";"2";"0";"1"
"439";"20";"15";"1";"1";"1";"1";"5";"1";"[4,16,17]";"1";"5";"1"
"440";"33";"15";"1";"6";"1";"1";"5";"1";"[5,26,32]";"2";"0";"1"
"441";"4";"15";"1";"28";"1";"1";"5";"1";"[10,17,21,24,26,34]";"1";"0";"1"
"442";"2";"15";"1";"3";"1";"1";"5";"2";"[7,15,16,20,29,40]";"2";"0";"1"
"443";"33";"16";"1";"6";"1";"1";"5";"1";"[5,26,32]";"2";"0";"1"
"444";"4";"16";"1";"28";"1";"1";"5";"1";"[10,17,21,24,26,34]";"1";"0";"1"
"445";"5";"17";"1";"38";"1";"1";"5";"1";"[10,17]";"1";"0";"1"
"446";"5";"18";"1";"38";"1";"1";"5";"1";"[10,17]";"1";"0";"1"
"447";"24";"18";"1";"7";"1";"1";"5";"1";"[3,8,17,20]";"2";"0";"1"
"448";"26";"18";"1";"2";"1";"1";"5";"1";"[15,36,39]";"1";"0";"1"
"449";"24";"19";"1";"7";"1";"1";"5";"1";"[3,8,17,20]";"2";"0";"1"
"450";"26";"19";"1";"2";"1";"1";"5";"1";"[15,36,39]";"1";"0";"1"
"451";"6";"19";"1";"21";"1";"1";"5";"1";"[5,13,16,26,28,31,32,33,36]";"1";"0";"1"
"452";"13";"20";"1";"35";"1";"1";"5";"1";"[9,11]";"1";"0";"1"
"453";"6";"20";"1";"21";"1";"1";"5";"1";"[5,13,16,26,28,31,32,33,36]";"1";"0";"1"
"454";"13";"21";"1";"35";"1";"1";"5";"1";"[9,11]";"1";"0";"1"
"455";"17";"26";"1";"15";"1";"1";"5";"2";"[2,3,11,25]";"2";"0";"1"
"456";"17";"27";"1";"15";"1";"1";"5";"2";"[2,3,11,25]";"2";"0";"1"
"457";"29";"2";"1";"20";"1";"1";"6";"2";"[3,7,25]";"2";"0";"1"
"458";"15";"2";"1";"25";"1";"1";"6";"1";"[4,15,17,20,26]";"1";"0";"1"
"459";"40";"2";"1";"23";"1";"1";"6";"1";"[18,27,40]";"1";"0";"1"
"460";"28";"3";"1";"30";"1";"1";"6";"2";"[13]";"2";"0";"1"
"461";"31";"3";"1";"33";"1";"1";"6";"1";"[10,21,32,37]";"1";"0";"1"
"462";"29";"3";"1";"20";"1";"1";"6";"2";"[3,7,25]";"2";"0";"1"
"463";"33";"3";"1";"6";"1";"1";"6";"1";"[5,26,32]";"1";"0";"1"
"464";"15";"3";"1";"25";"1";"1";"6";"1";"[4,15,17,20,26]";"1";"0";"1"
"465";"40";"3";"1";"23";"1";"1";"6";"1";"[18,27,40]";"1";"0";"1"
"466";"39";"3";"1";"37";"1";"1";"6";"1";"[14,27,33]";"1";"0";"1"
"467";"3";"4";"1";"32";"1";"1";"6";"1";"[6,21,26,33,36]";"1";"0";"1"
"468";"28";"4";"1";"30";"1";"1";"6";"2";"[13]";"2";"0";"1"
"469";"31";"4";"1";"33";"1";"1";"6";"1";"[10,21,32,37]";"1";"0";"1"
"470";"18";"4";"1";"10";"1";"1";"6";"1";"[12,19,28,33,38]";"1";"0";"1"
"471";"7";"4";"1";"22";"1";"1";"6";"2";"[14,26,27,39]";"1";"0";"1"
"472";"33";"4";"1";"6";"1";"1";"6";"1";"[5,26,32]";"1";"0";"1"
"473";"39";"4";"1";"37";"1";"1";"6";"1";"[14,27,33]";"1";"0";"1"
"474";"27";"4";"1";"27";"1";"1";"6";"1";"[19,22,23,24,37]";"1";"0";"1"
"475";"3";"5";"1";"32";"1";"1";"6";"1";"[6,21,26,33,36]";"1";"0";"1"
"476";"1";"5";"1";"16";"1";"1";"6";"1";"[1,3,8,21,24]";"1";"0";"1"
"477";"18";"5";"1";"10";"1";"1";"6";"1";"[12,19,28,33,38]";"1";"0";"1"
"478";"7";"5";"1";"22";"1";"1";"6";"2";"[14,26,27,39]";"1";"0";"1"
"479";"23";"5";"1";"29";"1";"1";"6";"1";"[3,9,12,31,39]";"1";"0";"1"
"480";"27";"5";"1";"27";"1";"1";"6";"1";"[19,22,23,24,37]";"1";"0";"1"
"481";"37";"6";"1";"26";"1";"1";"6";"1";"[6,11,19,21,22,25,28,32,40]";"1";"0";"1"
"482";"25";"6";"1";"5";"1";"1";"6";"1";"[6,11,21,31]";"1";"0";"1"
"483";"1";"6";"1";"16";"1";"1";"6";"1";"[1,3,8,21,24]";"1";"0";"1"
"484";"35";"6";"1";"9";"1";"1";"6";"1";"[29,35]";"2";"0";"1"
"485";"14";"6";"1";"36";"1";"1";"6";"1";"[2,21,24,32]";"2";"0";"1"
"486";"23";"6";"1";"29";"1";"1";"6";"1";"[3,9,12,31,39]";"1";"0";"1"
"487";"37";"7";"1";"26";"1";"1";"6";"1";"[6,11,19,21,22,25,28,32,40]";"1";"0";"1"
"488";"9";"7";"1";"31";"1";"1";"6";"2";"[5,21,29]";"1";"0";"1"
"489";"38";"7";"1";"8";"1";"1";"6";"2";"[7,14,16]";"2";"0";"1"
"490";"25";"7";"1";"5";"1";"1";"6";"1";"[6,11,21,31]";"1";"0";"1"
"491";"22";"7";"1";"13";"1";"1";"6";"2";"[21,30]";"0";"1";"1"
"492";"35";"7";"1";"9";"1";"1";"6";"1";"[29,35]";"2";"0";"1"
"493";"12";"7";"1";"14";"1";"1";"6";"1";"[4,8,17,22,37,40]";"1";"0";"1"
"494";"14";"7";"1";"36";"1";"1";"6";"1";"[2,21,24,32]";"2";"0";"1"
"495";"30";"8";"1";"11";"1";"1";"6";"1";"[5,15,26,35]";"1";"0";"1"
"496";"5";"8";"1";"38";"1";"1";"6";"1";"[10,17]";"0";"4";"1"
"497";"9";"8";"1";"31";"1";"1";"6";"2";"[5,21,29]";"1";"0";"1"
"498";"38";"8";"1";"8";"1";"1";"6";"2";"[7,14,16]";"2";"0";"1"
"499";"11";"8";"1";"12";"1";"1";"6";"1";"[10,29]";"1";"0";"1"
"500";"34";"8";"1";"39";"1";"1";"6";"2";"[2,19,22,29]";"1";"0";"1"
"501";"12";"8";"1";"14";"1";"1";"6";"1";"[4,8,17,22,37,40]";"1";"0";"1"
"502";"30";"9";"1";"11";"1";"1";"6";"1";"[5,15,26,35]";"1";"0";"1"
"503";"22";"9";"1";"13";"1";"1";"6";"2";"[21,30]";"0";"2";"1"
"504";"11";"9";"1";"12";"1";"1";"6";"1";"[10,29]";"1";"0";"1"
"505";"36";"9";"1";"40";"1";"1";"6";"2";"[3,14,23,26]";"1";"0";"1"
"506";"34";"9";"1";"39";"1";"1";"6";"2";"[2,19,22,29]";"1";"0";"1"
"507";"17";"9";"1";"15";"1";"1";"6";"2";"[2,3,11,25]";"2";"0";"1"
"508";"5";"9";"1";"38";"1";"1";"6";"1";"[10,17]";"0";"3";"1"
"509";"21";"10";"1";"24";"1";"1";"6";"1";"[16,27,28,36]";"1";"0";"1"
"510";"36";"10";"1";"40";"1";"1";"6";"2";"[3,14,23,26]";"1";"0";"1"
"511";"17";"10";"1";"15";"1";"1";"6";"2";"[2,3,11,25]";"2";"0";"1"
"512";"22";"10";"1";"13";"1";"1";"6";"2";"[21,30]";"0";"3";"1"
"513";"21";"11";"1";"24";"1";"1";"6";"1";"[16,27,28,36]";"1";"0";"1"
"514";"8";"11";"1";"18";"1";"1";"6";"1";"[17,23]";"1";"0";"1"
"515";"32";"11";"1";"17";"1";"1";"6";"1";"[1,4,7,14,18,25,28,38]";"1";"0";"1"
"516";"30";"12";"1";"11";"1";"1";"6";"1";"[5,15,26,35]";"1";"1";"1"
"517";"22";"12";"1";"13";"1";"1";"6";"2";"[21,30]";"0";"4";"1"
"518";"8";"12";"1";"18";"1";"1";"6";"1";"[17,23]";"1";"0";"1"
"519";"5";"12";"1";"38";"1";"1";"6";"1";"[10,17]";"0";"6";"1"
"520";"10";"12";"1";"4";"1";"1";"6";"2";"[1,14,17,25]";"2";"0";"1"
"521";"16";"12";"1";"19";"1";"1";"6";"2";"[10,26,27,39]";"1";"0";"1"
"522";"32";"13";"1";"17";"1";"1";"6";"1";"[1,4,7,14,18,25,28,38]";"1";"0";"1"
"523";"22";"13";"1";"13";"1";"1";"6";"2";"[21,30]";"0";"5";"1"
"524";"10";"13";"1";"4";"1";"1";"6";"2";"[1,14,17,25]";"2";"0";"1"
"525";"16";"13";"1";"19";"1";"1";"6";"2";"[10,26,27,39]";"1";"0";"1"
"526";"22";"13";"1";"13";"1";"1";"6";"2";"[21,30]";"0";"6";"1"
"527";"30";"14";"1";"11";"1";"1";"6";"1";"[5,15,26,35]";"1";"2";"1"
"528";"20";"14";"1";"1";"1";"1";"6";"1";"[4,16,17]";"1";"0";"1"
"529";"20";"15";"1";"1";"1";"1";"6";"1";"[4,16,17]";"1";"0";"1"
"530";"30";"15";"1";"11";"1";"1";"6";"1";"[5,15,26,35]";"1";"3";"1"
"531";"6";"16";"1";"21";"1";"1";"6";"1";"[5,13,16,26,28,31,32,33,36]";"1";"0";"1"
"532";"6";"17";"1";"21";"1";"1";"6";"1";"[5,13,16,26,28,31,32,33,36]";"1";"0";"1"
"533";"2";"17";"1";"3";"1";"1";"6";"2";"[7,15,16,20,29,40]";"1";"0";"1"
"534";"2";"18";"1";"3";"1";"1";"6";"2";"[7,15,16,20,29,40]";"1";"0";"1"
"535";"19";"19";"1";"34";"1";"1";"6";"1";"[28]";"1";"0";"1"
"536";"22";"19";"1";"13";"1";"1";"6";"2";"[21,30]";"1";"6";"1"
"537";"19";"20";"1";"34";"1";"1";"6";"1";"[28]";"1";"0";"1"
"538";"13";"20";"1";"35";"1";"1";"6";"1";"[9,11]";"2";"0";"1"
"539";"22";"20";"1";"13";"1";"1";"6";"2";"[21,30]";"1";"6";"1"
"540";"13";"21";"1";"35";"1";"1";"6";"1";"[9,11]";"2";"0";"1"
"541";"4";"22";"1";"28";"1";"1";"6";"1";"[10,17,21,24,26,34]";"1";"0";"1"
"542";"26";"22";"1";"2";"1";"1";"6";"1";"[15,36,39]";"1";"0";"1"
"543";"4";"23";"1";"28";"1";"1";"6";"1";"[10,17,21,24,26,34]";"1";"0";"1"
"544";"24";"23";"1";"7";"1";"1";"6";"1";"[3,8,17,20]";"2";"0";"1"
"545";"26";"23";"1";"2";"1";"1";"6";"1";"[15,36,39]";"1";"0";"1"
"546";"24";"24";"1";"7";"1";"1";"6";"1";"[3,8,17,20]";"2";"0";"1"
"547";"5";"25";"1";"38";"1";"1";"6";"1";"[10,17]";"1";"6";"1"
"548";"30";"26";"1";"11";"1";"1";"6";"1";"[5,15,26,35]";"1";"4";"1"
"549";"5";"26";"1";"38";"1";"1";"6";"1";"[10,17]";"1";"6";"1"
"550";"29";"2";"1";"20";"1";"1";"7";"2";"[3,7,25]";"2";"0";"1"
"551";"40";"2";"1";"23";"1";"1";"7";"1";"[18,27,40]";"1";"0";"1"
"552";"15";"2";"1";"25";"1";"1";"7";"1";"[4,15,17,20,26]";"1";"0";"1"
"553";"28";"3";"1";"30";"1";"1";"7";"2";"[13]";"2";"0";"1"
"554";"29";"3";"1";"20";"1";"1";"7";"2";"[3,7,25]";"2";"0";"1"
"555";"23";"3";"1";"29";"1";"1";"7";"1";"[3,9,12,31,39]";"1";"0";"1"
"556";"40";"3";"1";"23";"1";"1";"7";"1";"[18,27,40]";"1";"0";"1"
"557";"33";"3";"1";"6";"1";"1";"7";"1";"[5,26,32]";"1";"0";"1"
"558";"15";"3";"1";"25";"1";"1";"7";"1";"[4,15,17,20,26]";"1";"0";"1"
"559";"27";"4";"1";"27";"1";"1";"7";"1";"[19,22,23,24,37]";"1";"0";"1"
"560";"18";"4";"1";"10";"1";"1";"7";"1";"[12,19,28,33,38]";"1";"0";"1"
"561";"28";"4";"1";"30";"1";"1";"7";"2";"[13]";"2";"0";"1"
"562";"25";"4";"1";"5";"1";"1";"7";"1";"[6,11,21,31]";"1";"0";"1"
"563";"4";"4";"1";"28";"1";"1";"7";"1";"[10,17,21,24,26,34]";"1";"0";"1"
"564";"23";"4";"1";"29";"1";"1";"7";"1";"[3,9,12,31,39]";"1";"0";"1"
"565";"33";"4";"1";"6";"1";"1";"7";"1";"[5,26,32]";"1";"0";"1"
"566";"7";"5";"1";"22";"1";"1";"7";"2";"[14,26,27,39]";"1";"0";"1"
"567";"14";"5";"1";"36";"1";"1";"7";"1";"[2,21,24,32]";"2";"0";"1"
"568";"31";"5";"1";"33";"1";"1";"7";"1";"[10,21,32,37]";"1";"0";"1"
"569";"27";"5";"1";"27";"1";"1";"7";"1";"[19,22,23,24,37]";"1";"0";"1"
"570";"18";"5";"1";"10";"1";"1";"7";"1";"[12,19,28,33,38]";"1";"0";"1"
"571";"25";"5";"1";"5";"1";"1";"7";"1";"[6,11,21,31]";"1";"0";"1"
"572";"4";"5";"1";"28";"1";"1";"7";"1";"[10,17,21,24,26,34]";"1";"0";"1"
"573";"1";"5";"1";"16";"1";"1";"7";"1";"[1,3,8,21,24]";"1";"0";"1"
"574";"34";"5";"1";"39";"1";"1";"7";"2";"[2,19,22,29]";"1";"0";"1"
"575";"39";"6";"1";"37";"1";"1";"7";"1";"[14,27,33]";"1";"0";"1"
"576";"7";"6";"1";"22";"1";"1";"7";"2";"[14,26,27,39]";"1";"0";"1"
"577";"14";"6";"1";"36";"1";"1";"7";"1";"[2,21,24,32]";"2";"0";"1"
"578";"31";"6";"1";"33";"1";"1";"7";"1";"[10,21,32,37]";"1";"0";"1"
"579";"1";"6";"1";"16";"1";"1";"7";"1";"[1,3,8,21,24]";"1";"0";"1"
"580";"3";"6";"1";"32";"1";"1";"7";"1";"[6,21,26,33,36]";"1";"0";"1"
"581";"34";"6";"1";"39";"1";"1";"7";"2";"[2,19,22,29]";"1";"0";"1"
"582";"36";"6";"1";"40";"1";"1";"7";"2";"[3,14,23,26]";"1";"0";"1"
"583";"35";"7";"1";"9";"1";"1";"7";"1";"[29,35]";"1";"0";"1"
"584";"12";"7";"1";"14";"1";"1";"7";"1";"[4,8,17,22,37,40]";"1";"0";"1"
"585";"39";"7";"1";"37";"1";"1";"7";"1";"[14,27,33]";"1";"0";"1"
"586";"5";"7";"1";"38";"1";"1";"7";"1";"[10,17]";"0";"5";"1"
"587";"3";"7";"1";"32";"1";"1";"7";"1";"[6,21,26,33,36]";"1";"0";"1"
"588";"9";"7";"1";"31";"1";"1";"7";"2";"[5,21,29]";"1";"0";"1"
"589";"36";"7";"1";"40";"1";"1";"7";"2";"[3,14,23,26]";"1";"0";"1"
"590";"35";"8";"1";"9";"1";"1";"7";"1";"[29,35]";"1";"0";"1"
"591";"12";"8";"1";"14";"1";"1";"7";"1";"[4,8,17,22,37,40]";"1";"0";"1"
"592";"6";"8";"1";"21";"1";"1";"7";"1";"[5,13,16,26,28,31,32,33,36]";"1";"0";"1"
"593";"37";"8";"1";"26";"1";"1";"7";"1";"[6,11,19,21,22,25,28,32,40]";"1";"0";"1"
"594";"8";"8";"1";"18";"1";"1";"7";"1";"[17,23]";"1";"0";"1"
"595";"16";"8";"1";"19";"1";"1";"7";"2";"[10,26,27,39]";"1";"0";"1"
"596";"5";"8";"1";"38";"1";"1";"7";"1";"[10,17]";"0";"6";"1"
"597";"9";"8";"1";"31";"1";"1";"7";"2";"[5,21,29]";"1";"0";"1"
"598";"6";"9";"1";"21";"1";"1";"7";"1";"[5,13,16,26,28,31,32,33,36]";"1";"0";"1"
"599";"20";"9";"1";"1";"1";"1";"7";"1";"[4,16,17]";"1";"0";"1"
"600";"10";"9";"1";"4";"1";"1";"7";"2";"[1,14,17,25]";"2";"0";"1"
"601";"24";"9";"1";"7";"1";"1";"7";"1";"[3,8,17,20]";"0";"4";"1"
"602";"37";"9";"1";"26";"1";"1";"7";"1";"[6,11,19,21,22,25,28,32,40]";"1";"0";"1"
"603";"8";"9";"1";"18";"1";"1";"7";"1";"[17,23]";"1";"0";"1"
"604";"16";"9";"1";"19";"1";"1";"7";"2";"[10,26,27,39]";"1";"0";"1"
"605";"30";"9";"1";"11";"1";"1";"7";"1";"[5,15,26,35]";"1";"0";"1"
"606";"22";"9";"1";"13";"1";"1";"7";"2";"[21,30]";"1";"0";"1"
"607";"20";"10";"1";"1";"1";"1";"7";"1";"[4,16,17]";"1";"0";"1"
"608";"10";"10";"1";"4";"1";"1";"7";"2";"[1,14,17,25]";"2";"0";"1"
"609";"24";"10";"1";"7";"1";"1";"7";"1";"[3,8,17,20]";"0";"6";"1"
"610";"30";"10";"1";"11";"1";"1";"7";"1";"[5,15,26,35]";"1";"0";"1"
"611";"22";"10";"1";"13";"1";"1";"7";"2";"[21,30]";"1";"0";"1"
"612";"38";"11";"1";"8";"1";"1";"7";"2";"[7,14,16]";"1";"0";"1"
"613";"27";"11";"1";"27";"1";"1";"7";"1";"[19,22,23,24,37]";"1";"1";"1"
"614";"19";"11";"1";"34";"1";"1";"7";"1";"[28]";"1";"0";"1"
"615";"38";"12";"1";"8";"1";"1";"7";"2";"[7,14,16]";"1";"0";"1"
"616";"19";"12";"1";"34";"1";"1";"7";"1";"[28]";"1";"0";"1"
"617";"24";"12";"1";"7";"1";"1";"7";"1";"[3,8,17,20]";"0";"5";"1"
"618";"21";"12";"1";"24";"1";"1";"7";"1";"[16,27,28,36]";"1";"0";"1"
"619";"21";"13";"1";"24";"1";"1";"7";"1";"[16,27,28,36]";"1";"0";"1"
"620";"27";"13";"1";"27";"1";"1";"7";"1";"[19,22,23,24,37]";"1";"2";"1"
"621";"24";"13";"1";"7";"1";"1";"7";"1";"[3,8,17,20]";"0";"6";"1"
"622";"11";"15";"1";"12";"1";"1";"7";"1";"[10,29]";"1";"0";"1"
"623";"24";"16";"1";"7";"1";"1";"7";"1";"[3,8,17,20]";"0";"5";"1"
"624";"27";"16";"1";"27";"1";"1";"7";"1";"[19,22,23,24,37]";"1";"3";"1"
"625";"32";"16";"1";"17";"1";"1";"7";"1";"[1,4,7,14,18,25,28,38]";"1";"0";"1"
"626";"11";"16";"1";"12";"1";"1";"7";"1";"[10,29]";"1";"0";"1"
"627";"24";"17";"1";"7";"1";"1";"7";"1";"[3,8,17,20]";"0";"6";"1"
"628";"32";"17";"1";"17";"1";"1";"7";"1";"[1,4,7,14,18,25,28,38]";"1";"0";"1"
"629";"27";"17";"1";"27";"1";"1";"7";"1";"[19,22,23,24,37]";"1";"4";"1"
"630";"24";"18";"1";"7";"1";"1";"7";"1";"[3,8,17,20]";"0";"3";"1"
"631";"27";"18";"1";"27";"1";"1";"7";"1";"[19,22,23,24,37]";"1";"5";"1"
"632";"24";"19";"1";"7";"1";"1";"7";"1";"[3,8,17,20]";"0";"6";"1"
"633";"27";"20";"1";"27";"1";"1";"7";"1";"[19,22,23,24,37]";"1";"6";"1"
"634";"26";"20";"1";"2";"1";"1";"7";"1";"[15,36,39]";"1";"0";"1"
"635";"24";"20";"1";"7";"1";"1";"7";"1";"[3,8,17,20]";"1";"6";"1"
"636";"26";"21";"1";"2";"1";"1";"7";"1";"[15,36,39]";"1";"0";"1"
"637";"27";"21";"1";"27";"1";"1";"7";"1";"[19,22,23,24,37]";"1";"7";"1"
"638";"24";"21";"1";"7";"1";"1";"7";"1";"[3,8,17,20]";"1";"6";"1"
"639";"23";"22";"1";"29";"1";"1";"7";"1";"[3,9,12,31,39]";"1";"5";"1"
"640";"2";"22";"1";"3";"1";"1";"7";"2";"[7,15,16,20,29,40]";"1";"0";"1"
"641";"23";"23";"1";"29";"1";"1";"7";"1";"[3,9,12,31,39]";"1";"7";"1"
"642";"13";"23";"1";"35";"1";"1";"7";"1";"[9,11]";"1";"0";"1"
"643";"17";"23";"1";"15";"1";"1";"7";"2";"[2,3,11,25]";"2";"0";"1"
"644";"2";"23";"1";"3";"1";"1";"7";"2";"[7,15,16,20,29,40]";"1";"0";"1"
"645";"13";"24";"1";"35";"1";"1";"7";"1";"[9,11]";"1";"0";"1"
"646";"17";"24";"1";"15";"1";"1";"7";"2";"[2,3,11,25]";"2";"0";"1"
"647";"5";"24";"1";"38";"1";"1";"7";"1";"[10,17]";"1";"6";"1"
"648";"5";"25";"1";"38";"1";"1";"7";"1";"[10,17]";"1";"6";"1"
"649";"15";"2";"1";"25";"1";"1";"8";"1";"[4,15,17,20,26]";"1";"0";"1"
"650";"40";"2";"1";"23";"1";"1";"8";"1";"[18,27,40]";"1";"0";"1"
"651";"35";"2";"1";"9";"1";"1";"8";"1";"[29,35]";"1";"0";"1"
"652";"25";"3";"1";"5";"1";"1";"8";"1";"[6,11,21,31]";"1";"0";"1"
"653";"36";"3";"1";"40";"1";"1";"8";"2";"[3,14,23,26]";"1";"0";"1"
"654";"8";"3";"1";"18";"1";"1";"8";"1";"[17,23]";"1";"0";"1"
"655";"15";"3";"1";"25";"1";"1";"8";"1";"[4,15,17,20,26]";"1";"0";"1"
"656";"40";"3";"1";"23";"1";"1";"8";"1";"[18,27,40]";"1";"0";"1"
"657";"18";"3";"1";"10";"1";"1";"8";"1";"[12,19,28,33,38]";"1";"0";"1"
"658";"35";"3";"1";"9";"1";"1";"8";"1";"[29,35]";"1";"0";"1"
"659";"23";"4";"1";"29";"1";"1";"8";"1";"[3,9,12,31,39]";"1";"0";"1"
"660";"4";"4";"1";"28";"1";"1";"8";"1";"[10,17,21,24,26,34]";"1";"0";"1"
"661";"25";"4";"1";"5";"1";"1";"8";"1";"[6,11,21,31]";"1";"0";"1"
"662";"36";"4";"1";"40";"1";"1";"8";"2";"[3,14,23,26]";"1";"0";"1"
"663";"3";"4";"1";"32";"1";"1";"8";"1";"[6,21,26,33,36]";"1";"0";"1"
"664";"1";"4";"1";"16";"1";"1";"8";"1";"[1,3,8,21,24]";"1";"0";"1"
"665";"38";"4";"1";"8";"1";"1";"8";"2";"[7,14,16]";"1";"0";"1"
"666";"8";"4";"1";"18";"1";"1";"8";"1";"[17,23]";"1";"0";"1"
"667";"27";"4";"1";"27";"1";"1";"8";"1";"[19,22,23,24,37]";"1";"0";"1"
"668";"18";"4";"1";"10";"1";"1";"8";"1";"[12,19,28,33,38]";"1";"0";"1"
"669";"23";"5";"1";"29";"1";"1";"8";"1";"[3,9,12,31,39]";"1";"0";"1"
"670";"11";"5";"1";"12";"1";"1";"8";"1";"[10,29]";"0";"6";"1"
"671";"13";"5";"1";"35";"1";"1";"8";"1";"[9,11]";"1";"0";"1"
"672";"4";"5";"1";"28";"1";"1";"8";"1";"[10,17,21,24,26,34]";"1";"0";"1"
"673";"28";"5";"1";"30";"1";"1";"8";"2";"[13]";"0";"6";"1"
"674";"3";"5";"1";"32";"1";"1";"8";"1";"[6,21,26,33,36]";"1";"0";"1"
"675";"1";"5";"1";"16";"1";"1";"8";"1";"[1,3,8,21,24]";"1";"0";"1"
"676";"14";"5";"1";"36";"1";"1";"8";"1";"[2,21,24,32]";"1";"0";"1"
"677";"38";"5";"1";"8";"1";"1";"8";"2";"[7,14,16]";"1";"0";"1"
"678";"27";"5";"1";"27";"1";"1";"8";"1";"[19,22,23,24,37]";"1";"0";"1"
"679";"6";"5";"1";"21";"1";"1";"8";"1";"[5,13,16,26,28,31,32,33,36]";"1";"0";"1"
"680";"11";"5";"1";"12";"1";"1";"8";"1";"[10,29]";"0";"4";"1"
"681";"9";"5";"1";"31";"1";"1";"8";"2";"[5,21,29]";"1";"0";"1"
"682";"13";"6";"1";"35";"1";"1";"8";"1";"[9,11]";"1";"0";"1"
"683";"12";"6";"1";"14";"1";"1";"8";"1";"[4,8,17,22,37,40]";"1";"0";"1"
"684";"10";"6";"1";"4";"1";"1";"8";"2";"[1,14,17,25]";"2";"0";"1"
"685";"7";"6";"1";"22";"1";"1";"8";"2";"[14,26,27,39]";"1";"0";"1"
"686";"14";"6";"1";"36";"1";"1";"8";"1";"[2,21,24,32]";"1";"0";"1"
"687";"11";"6";"1";"12";"1";"1";"8";"1";"[10,29]";"0";"6";"1"
"688";"34";"6";"1";"39";"1";"1";"8";"2";"[2,19,22,29]";"1";"0";"1"
"689";"6";"6";"1";"21";"1";"1";"8";"1";"[5,13,16,26,28,31,32,33,36]";"1";"0";"1"
"690";"24";"6";"1";"7";"1";"1";"8";"1";"[3,8,17,20]";"1";"0";"1"
"691";"9";"6";"1";"31";"1";"1";"8";"2";"[5,21,29]";"1";"0";"1"
"692";"11";"7";"1";"12";"1";"1";"8";"1";"[10,29]";"0";"7";"1"
"693";"22";"7";"1";"13";"1";"1";"8";"2";"[21,30]";"1";"0";"1"
"694";"12";"7";"1";"14";"1";"1";"8";"1";"[4,8,17,22,37,40]";"1";"0";"1"
"695";"10";"7";"1";"4";"1";"1";"8";"2";"[1,14,17,25]";"2";"0";"1"
"696";"7";"7";"1";"22";"1";"1";"8";"2";"[14,26,27,39]";"1";"0";"1"
"697";"28";"7";"1";"30";"1";"1";"8";"2";"[13]";"0";"5";"1"
"698";"34";"7";"1";"39";"1";"1";"8";"2";"[2,19,22,29]";"1";"0";"1"
"699";"24";"7";"1";"7";"1";"1";"8";"1";"[3,8,17,20]";"1";"0";"1"
"700";"11";"8";"1";"12";"1";"1";"8";"1";"[10,29]";"0";"8";"1"
"701";"22";"8";"1";"13";"1";"1";"8";"2";"[21,30]";"1";"0";"1"
"702";"16";"8";"1";"19";"1";"1";"8";"2";"[10,26,27,39]";"1";"0";"1"
"703";"39";"8";"1";"37";"1";"1";"8";"1";"[14,27,33]";"1";"0";"1"
"704";"19";"9";"1";"34";"1";"1";"8";"1";"[28]";"1";"0";"1"
"705";"28";"9";"1";"30";"1";"1";"8";"2";"[13]";"0";"4";"1"
"706";"16";"9";"1";"19";"1";"1";"8";"2";"[10,26,27,39]";"1";"0";"1"
"707";"39";"9";"1";"37";"1";"1";"8";"1";"[14,27,33]";"1";"0";"1"
"708";"19";"10";"1";"34";"1";"1";"8";"1";"[28]";"1";"0";"1"
"709";"33";"11";"1";"6";"1";"1";"8";"1";"[5,26,32]";"1";"0";"1"
"710";"28";"11";"1";"30";"1";"1";"8";"2";"[13]";"0";"3";"1"
"711";"2";"11";"1";"3";"1";"1";"8";"2";"[7,15,16,20,29,40]";"2";"0";"1"
"712";"33";"12";"1";"6";"1";"1";"8";"1";"[5,26,32]";"1";"0";"1"
"713";"37";"12";"1";"26";"1";"1";"8";"1";"[6,11,19,21,22,25,28,32,40]";"2";"0";"1"
"714";"28";"12";"1";"30";"1";"1";"8";"2";"[13]";"0";"2";"1"
"715";"2";"12";"1";"3";"1";"1";"8";"2";"[7,15,16,20,29,40]";"2";"0";"1"
"716";"21";"13";"1";"24";"1";"1";"8";"1";"[16,27,28,36]";"1";"0";"1"
"717";"32";"13";"1";"17";"1";"1";"8";"1";"[1,4,7,14,18,25,28,38]";"1";"0";"1"
"718";"37";"13";"1";"26";"1";"1";"8";"1";"[6,11,19,21,22,25,28,32,40]";"2";"0";"1"
"719";"28";"13";"1";"30";"1";"1";"8";"2";"[13]";"0";"1";"1"
"720";"31";"14";"1";"33";"1";"1";"8";"1";"[10,21,32,37]";"1";"0";"1"
"721";"21";"14";"1";"24";"1";"1";"8";"1";"[16,27,28,36]";"1";"0";"1"
"722";"32";"14";"1";"17";"1";"1";"8";"1";"[1,4,7,14,18,25,28,38]";"1";"0";"1"
"723";"28";"14";"1";"30";"1";"1";"8";"2";"[13]";"0";"9";"1"
"724";"31";"15";"1";"33";"1";"1";"8";"1";"[10,21,32,37]";"1";"0";"1"
"725";"5";"15";"1";"38";"1";"1";"8";"1";"[10,17]";"0";"6";"1"
"726";"28";"15";"1";"30";"1";"1";"8";"2";"[13]";"2";"9";"1"
"727";"29";"15";"1";"20";"1";"1";"8";"2";"[3,7,25]";"1";"0";"1"
"728";"20";"16";"1";"1";"1";"1";"8";"1";"[4,16,17]";"1";"0";"1"
"729";"5";"16";"1";"38";"1";"1";"8";"1";"[10,17]";"0";"5";"1"
"730";"11";"16";"1";"12";"1";"1";"8";"1";"[10,29]";"1";"8";"1"
"731";"28";"16";"1";"30";"1";"1";"8";"2";"[13]";"2";"9";"1"
"732";"29";"16";"1";"20";"1";"1";"8";"2";"[3,7,25]";"1";"0";"1"
"733";"20";"17";"1";"1";"1";"1";"8";"1";"[4,16,17]";"1";"0";"1"
"734";"11";"17";"1";"12";"1";"1";"8";"1";"[10,29]";"1";"8";"1"
"735";"5";"17";"1";"38";"1";"1";"8";"1";"[10,17]";"0";"7";"1"
"736";"30";"19";"1";"11";"1";"1";"8";"1";"[5,15,26,35]";"1";"0";"1"
"737";"5";"19";"1";"38";"1";"1";"8";"1";"[10,17]";"1";"7";"1"
"738";"30";"20";"1";"11";"1";"1";"8";"1";"[5,15,26,35]";"1";"0";"1"
"739";"5";"20";"1";"38";"1";"1";"8";"1";"[10,17]";"1";"7";"1"
"740";"24";"21";"1";"7";"1";"1";"8";"1";"[3,8,17,20]";"1";"1";"1"
"741";"17";"21";"1";"15";"1";"1";"8";"2";"[2,3,11,25]";"1";"0";"1"
"742";"26";"22";"1";"2";"1";"1";"8";"1";"[15,36,39]";"1";"0";"1"
"743";"17";"22";"1";"15";"1";"1";"8";"2";"[2,3,11,25]";"1";"0";"1"
"744";"26";"23";"1";"2";"1";"1";"8";"1";"[15,36,39]";"1";"0";"1"
"745";"24";"0";"1";"7";"1";"1";"9";"1";"[3,8,17,20]";"0";"8";"1"
"746";"15";"1";"1";"25";"1";"1";"9";"1";"[4,15,17,20,26]";"1";"0";"1"
"747";"24";"1";"1";"7";"1";"1";"9";"1";"[3,8,17,20]";"0";"1";"1"
"748";"9";"1";"1";"31";"1";"1";"9";"2";"[5,21,29]";"1";"0";"1"
"749";"40";"1";"1";"23";"1";"1";"9";"1";"[18,27,40]";"1";"0";"1"
"750";"31";"1";"1";"33";"1";"1";"9";"1";"[10,21,32,37]";"1";"0";"1"
"751";"14";"2";"1";"36";"1";"1";"9";"1";"[2,21,24,32]";"1";"0";"1"
"752";"18";"2";"1";"10";"1";"1";"9";"1";"[12,19,28,33,38]";"1";"0";"1"
"753";"15";"2";"1";"25";"1";"1";"9";"1";"[4,15,17,20,26]";"1";"0";"1"
"754";"9";"2";"1";"31";"1";"1";"9";"2";"[5,21,29]";"1";"0";"1"
"755";"40";"2";"1";"23";"1";"1";"9";"1";"[18,27,40]";"1";"0";"1"
"756";"3";"2";"1";"32";"1";"1";"9";"1";"[6,21,26,33,36]";"1";"0";"1"
"757";"35";"2";"1";"9";"1";"1";"9";"1";"[29,35]";"1";"0";"1"
"758";"19";"2";"1";"34";"1";"1";"9";"1";"[28]";"1";"0";"1"
"759";"2";"2";"1";"3";"1";"1";"9";"2";"[7,15,16,20,29,40]";"1";"0";"1"
"760";"31";"2";"1";"33";"1";"1";"9";"1";"[10,21,32,37]";"1";"0";"1"
"761";"7";"3";"1";"22";"1";"1";"9";"2";"[14,26,27,39]";"1";"0";"1"
"762";"14";"3";"1";"36";"1";"1";"9";"1";"[2,21,24,32]";"1";"0";"1"
"763";"25";"3";"1";"5";"1";"1";"9";"1";"[6,11,21,31]";"1";"0";"1"
"764";"18";"3";"1";"10";"1";"1";"9";"1";"[12,19,28,33,38]";"1";"0";"1"
"765";"24";"3";"1";"7";"1";"1";"9";"1";"[3,8,17,20]";"0";"2";"1"
"766";"20";"3";"1";"1";"1";"1";"9";"1";"[4,16,17]";"1";"0";"1"
"767";"3";"3";"1";"32";"1";"1";"9";"1";"[6,21,26,33,36]";"1";"0";"1"
"768";"37";"3";"1";"26";"1";"1";"9";"1";"[6,11,19,21,22,25,28,32,40]";"1";"0";"1"
"769";"35";"3";"1";"9";"1";"1";"9";"1";"[29,35]";"1";"0";"1"
"770";"27";"3";"1";"27";"1";"1";"9";"1";"[19,22,23,24,37]";"1";"0";"1"
"771";"19";"3";"1";"34";"1";"1";"9";"1";"[28]";"1";"0";"1"
"772";"38";"3";"1";"8";"1";"1";"9";"2";"[7,14,16]";"1";"0";"1"
"773";"2";"3";"1";"3";"1";"1";"9";"2";"[7,15,16,20,29,40]";"1";"0";"1"
"774";"7";"4";"1";"22";"1";"1";"9";"2";"[14,26,27,39]";"1";"0";"1"
"775";"25";"4";"1";"5";"1";"1";"9";"1";"[6,11,21,31]";"1";"0";"1"
"776";"34";"4";"1";"39";"1";"1";"9";"2";"[2,19,22,29]";"1";"0";"1"
"777";"20";"4";"1";"1";"1";"1";"9";"1";"[4,16,17]";"1";"0";"1"
"778";"24";"4";"1";"7";"1";"1";"9";"1";"[3,8,17,20]";"0";"1";"1"
"779";"37";"4";"1";"26";"1";"1";"9";"1";"[6,11,19,21,22,25,28,32,40]";"1";"0";"1"
"780";"27";"4";"1";"27";"1";"1";"9";"1";"[19,22,23,24,37]";"1";"0";"1"
"781";"12";"4";"1";"14";"1";"1";"9";"1";"[4,8,17,22,37,40]";"1";"0";"1"
"782";"38";"4";"1";"8";"1";"1";"9";"2";"[7,14,16]";"1";"0";"1"
"783";"34";"5";"1";"39";"1";"1";"9";"2";"[2,19,22,29]";"1";"0";"1"
"784";"28";"5";"1";"30";"1";"1";"9";"2";"[13]";"2";"0";"1"
"785";"24";"5";"1";"7";"1";"1";"9";"1";"[3,8,17,20]";"0";"2";"1"
"786";"12";"5";"1";"14";"1";"1";"9";"1";"[4,8,17,22,37,40]";"1";"0";"1"
"787";"21";"6";"1";"24";"1";"1";"9";"1";"[16,27,28,36]";"1";"0";"1"
"788";"28";"6";"1";"30";"1";"1";"9";"2";"[13]";"2";"0";"1"
"789";"23";"7";"1";"29";"1";"1";"9";"1";"[3,9,12,31,39]";"1";"0";"1"
"790";"36";"7";"1";"40";"1";"1";"9";"2";"[3,14,23,26]";"1";"0";"1"
"791";"10";"7";"1";"4";"1";"1";"9";"2";"[1,14,17,25]";"1";"0";"1"
"792";"21";"7";"1";"24";"1";"1";"9";"1";"[16,27,28,36]";"1";"0";"1"
"793";"16";"7";"1";"19";"1";"1";"9";"2";"[10,26,27,39]";"2";"0";"1"
"794";"33";"7";"1";"6";"1";"1";"9";"1";"[5,26,32]";"2";"0";"1"
"795";"8";"8";"1";"18";"1";"1";"9";"1";"[17,23]";"2";"0";"1"
"796";"23";"8";"1";"29";"1";"1";"9";"1";"[3,9,12,31,39]";"1";"0";"1"
"797";"36";"8";"1";"40";"1";"1";"9";"2";"[3,14,23,26]";"1";"0";"1"
"798";"10";"8";"1";"4";"1";"1";"9";"2";"[1,14,17,25]";"1";"0";"1"
"799";"24";"8";"1";"7";"1";"1";"9";"1";"[3,8,17,20]";"0";"1";"1"
"800";"29";"8";"1";"20";"1";"1";"9";"2";"[3,7,25]";"1";"0";"1"
"801";"16";"8";"1";"19";"1";"1";"9";"2";"[10,26,27,39]";"2";"0";"1"
"802";"33";"8";"1";"6";"1";"1";"9";"1";"[5,26,32]";"2";"0";"1"
"803";"8";"9";"1";"18";"1";"1";"9";"1";"[17,23]";"2";"0";"1"
"804";"29";"9";"1";"20";"1";"1";"9";"2";"[3,7,25]";"1";"0";"1"
"805";"24";"9";"1";"7";"1";"1";"9";"1";"[3,8,17,20]";"0";"2";"1"
"806";"22";"10";"1";"13";"1";"1";"9";"2";"[21,30]";"0";"7";"1"
"807";"32";"10";"1";"17";"1";"1";"9";"1";"[1,4,7,14,18,25,28,38]";"1";"0";"1"
"808";"6";"10";"1";"21";"1";"1";"9";"1";"[5,13,16,26,28,31,32,33,36]";"1";"0";"1"
"809";"13";"11";"1";"35";"1";"1";"9";"1";"[9,11]";"2";"0";"1"
"810";"22";"11";"1";"13";"1";"1";"9";"2";"[21,30]";"0";"6";"1"
"811";"32";"11";"1";"17";"1";"1";"9";"1";"[1,4,7,14,18,25,28,38]";"1";"0";"1"
"812";"6";"11";"1";"21";"1";"1";"9";"1";"[5,13,16,26,28,31,32,33,36]";"1";"0";"1"
"813";"13";"12";"1";"35";"1";"1";"9";"1";"[9,11]";"2";"0";"1"
"814";"24";"12";"1";"7";"1";"1";"9";"1";"[3,8,17,20]";"0";"6";"1"
"815";"22";"12";"1";"13";"1";"1";"9";"2";"[21,30]";"0";"7";"1"
"816";"22";"12";"1";"13";"1";"1";"9";"2";"[21,30]";"0";"8";"1"
"817";"24";"13";"1";"7";"1";"1";"9";"1";"[3,8,17,20]";"0";"7";"1"
"818";"30";"13";"1";"11";"1";"1";"9";"1";"[5,15,26,35]";"2";"0";"1"
"819";"24";"13";"1";"7";"1";"1";"9";"1";"[3,8,17,20]";"0";"8";"1"
"820";"30";"14";"1";"11";"1";"1";"9";"1";"[5,15,26,35]";"2";"0";"1"
"821";"22";"14";"1";"13";"1";"1";"9";"2";"[21,30]";"1";"8";"1"
"822";"39";"15";"1";"37";"1";"1";"9";"1";"[14,27,33]";"1";"0";"1"
"823";"22";"15";"1";"13";"1";"1";"9";"2";"[21,30]";"1";"8";"1"
"824";"39";"16";"1";"37";"1";"1";"9";"1";"[14,27,33]";"1";"0";"1"
"825";"1";"16";"1";"16";"1";"1";"9";"1";"[1,3,8,21,24]";"1";"0";"1"
"826";"26";"17";"1";"2";"1";"1";"9";"1";"[15,36,39]";"1";"0";"1"
"827";"4";"17";"1";"28";"1";"1";"9";"1";"[10,17,21,24,26,34]";"1";"0";"1"
"828";"5";"17";"1";"38";"1";"1";"9";"1";"[10,17]";"1";"0";"1"
"829";"24";"17";"1";"7";"1";"1";"9";"1";"[3,8,17,20]";"0";"9";"1"
"830";"11";"17";"1";"12";"1";"1";"9";"1";"[10,29]";"2";"0";"1"
"831";"1";"17";"1";"16";"1";"1";"9";"1";"[1,3,8,21,24]";"1";"0";"1"
"832";"26";"18";"1";"2";"1";"1";"9";"1";"[15,36,39]";"1";"0";"1"
"833";"4";"18";"1";"28";"1";"1";"9";"1";"[10,17,21,24,26,34]";"1";"0";"1"
"834";"5";"18";"1";"38";"1";"1";"9";"1";"[10,17]";"1";"0";"1"
"835";"11";"18";"1";"12";"1";"1";"9";"1";"[10,29]";"2";"0";"1"
"836";"24";"19";"1";"7";"1";"1";"9";"1";"[3,8,17,20]";"1";"9";"1"
"837";"24";"20";"1";"7";"1";"1";"9";"1";"[3,8,17,20]";"1";"9";"1"
"838";"17";"23";"1";"15";"1";"1";"9";"2";"[2,3,11,25]";"2";"0";"1"
"839";"17";"24";"1";"15";"1";"1";"9";"2";"[2,3,11,25]";"2";"0";"1"
"840";"1";"2";"1";"16";"1";"1";"10";"1";"[1,3,8,21,24]";"1";"0";"1"
"841";"4";"2";"1";"28";"1";"1";"10";"1";"[10,17,21,24,26,34]";"1";"0";"1"
"842";"39";"2";"1";"37";"1";"1";"10";"1";"[14,27,33]";"2";"0";"1"
"843";"21";"2";"1";"24";"1";"1";"10";"1";"[16,27,28,36]";"1";"0";"1"
"844";"15";"2";"1";"25";"1";"1";"10";"1";"[4,15,17,20,26]";"1";"0";"1"
"845";"3";"2";"1";"32";"1";"1";"10";"1";"[6,21,26,33,36]";"1";"0";"1"
"846";"40";"3";"1";"23";"1";"1";"10";"1";"[18,27,40]";"1";"0";"1"
"847";"1";"3";"1";"16";"1";"1";"10";"1";"[1,3,8,21,24]";"1";"0";"1"
"848";"33";"3";"1";"6";"1";"1";"10";"1";"[5,26,32]";"1";"0";"1"
"849";"25";"3";"1";"5";"1";"1";"10";"1";"[6,11,21,31]";"1";"0";"1"
"850";"34";"3";"1";"39";"1";"1";"10";"2";"[2,19,22,29]";"2";"0";"1"
"851";"8";"3";"1";"18";"1";"1";"10";"1";"[17,23]";"1";"0";"1"
"852";"4";"3";"1";"28";"1";"1";"10";"1";"[10,17,21,24,26,34]";"1";"0";"1"
"853";"39";"3";"1";"37";"1";"1";"10";"1";"[14,27,33]";"2";"0";"1"
"854";"31";"3";"1";"33";"1";"1";"10";"1";"[10,21,32,37]";"1";"0";"1"
"855";"20";"3";"1";"1";"1";"1";"10";"1";"[4,16,17]";"1";"0";"1"
"856";"21";"3";"1";"24";"1";"1";"10";"1";"[16,27,28,36]";"1";"0";"1"
"857";"38";"3";"1";"8";"1";"1";"10";"2";"[7,14,16]";"1";"0";"1"
"858";"7";"3";"1";"22";"1";"1";"10";"2";"[14,26,27,39]";"1";"0";"1"
"859";"15";"3";"1";"25";"1";"1";"10";"1";"[4,15,17,20,26]";"1";"0";"1"
"860";"6";"3";"1";"21";"1";"1";"10";"1";"[5,13,16,26,28,31,32,33,36]";"1";"0";"1"
"861";"3";"3";"1";"32";"1";"1";"10";"1";"[6,21,26,33,36]";"1";"0";"1"
"862";"37";"4";"1";"26";"1";"1";"10";"1";"[6,11,19,21,22,25,28,32,40]";"1";"0";"1"
"863";"40";"4";"1";"23";"1";"1";"10";"1";"[18,27,40]";"1";"0";"1"
"864";"29";"4";"1";"20";"1";"1";"10";"2";"[3,7,25]";"1";"0";"1"
"865";"36";"4";"1";"40";"1";"1";"10";"2";"[3,14,23,26]";"1";"0";"1"
"866";"33";"4";"1";"6";"1";"1";"10";"1";"[5,26,32]";"1";"0";"1"
"867";"25";"4";"1";"5";"1";"1";"10";"1";"[6,11,21,31]";"1";"0";"1"
"868";"34";"4";"1";"39";"1";"1";"10";"2";"[2,19,22,29]";"2";"0";"1"
"869";"8";"4";"1";"18";"1";"1";"10";"1";"[17,23]";"1";"0";"1"
"870";"16";"4";"1";"19";"1";"1";"10";"2";"[10,26,27,39]";"1";"0";"1"
"871";"14";"4";"1";"36";"1";"1";"10";"1";"[2,21,24,32]";"1";"0";"1"
"872";"28";"4";"1";"30";"1";"1";"10";"2";"[13]";"2";"0";"1"
"873";"2";"4";"1";"3";"1";"1";"10";"2";"[7,15,16,20,29,40]";"2";"0";"1"
"874";"31";"4";"1";"33";"1";"1";"10";"1";"[10,21,32,37]";"1";"0";"1"
"875";"30";"4";"1";"11";"1";"1";"10";"1";"[5,15,26,35]";"1";"0";"1"
"876";"20";"4";"1";"1";"1";"1";"10";"1";"[4,16,17]";"1";"0";"1"
"877";"38";"4";"1";"8";"1";"1";"10";"2";"[7,14,16]";"1";"0";"1"
"878";"7";"4";"1";"22";"1";"1";"10";"2";"[14,26,27,39]";"1";"0";"1"
"879";"6";"4";"1";"21";"1";"1";"10";"1";"[5,13,16,26,28,31,32,33,36]";"1";"0";"1"
"880";"37";"5";"1";"26";"1";"1";"10";"1";"[6,11,19,21,22,25,28,32,40]";"1";"0";"1"
"881";"29";"5";"1";"20";"1";"1";"10";"2";"[3,7,25]";"1";"0";"1"
"882";"36";"5";"1";"40";"1";"1";"10";"2";"[3,14,23,26]";"1";"0";"1"
"883";"16";"5";"1";"19";"1";"1";"10";"2";"[10,26,27,39]";"1";"0";"1"
"884";"9";"5";"1";"31";"1";"1";"10";"2";"[5,21,29]";"1";"0";"1"
"885";"18";"5";"1";"10";"1";"1";"10";"1";"[12,19,28,33,38]";"1";"0";"1"
"886";"14";"5";"1";"36";"1";"1";"10";"1";"[2,21,24,32]";"1";"0";"1"
"887";"28";"5";"1";"30";"1";"1";"10";"2";"[13]";"2";"0";"1"
"888";"2";"5";"1";"3";"1";"1";"10";"2";"[7,15,16,20,29,40]";"2";"0";"1"
"889";"30";"5";"1";"11";"1";"1";"10";"1";"[5,15,26,35]";"1";"0";"1"
"890";"13";"5";"1";"35";"1";"1";"10";"1";"[9,11]";"2";"0";"1"
"891";"9";"6";"1";"31";"1";"1";"10";"2";"[5,21,29]";"1";"0";"1"
"892";"18";"6";"1";"10";"1";"1";"10";"1";"[12,19,28,33,38]";"1";"0";"1"
"893";"22";"6";"1";"13";"1";"1";"10";"2";"[21,30]";"1";"0";"1"
"894";"13";"6";"1";"35";"1";"1";"10";"1";"[9,11]";"2";"0";"1"
"895";"19";"7";"1";"34";"1";"1";"10";"1";"[28]";"1";"0";"1"
"896";"11";"7";"1";"12";"1";"1";"10";"1";"[10,29]";"1";"0";"1"
"897";"12";"7";"1";"14";"1";"1";"10";"1";"[4,8,17,22,37,40]";"1";"0";"1"
"898";"22";"7";"1";"13";"1";"1";"10";"2";"[21,30]";"1";"0";"1"
"899";"27";"7";"1";"27";"1";"1";"10";"1";"[19,22,23,24,37]";"1";"0";"1"
"900";"10";"7";"1";"4";"1";"1";"10";"2";"[1,14,17,25]";"1";"0";"1"
"901";"19";"8";"1";"34";"1";"1";"10";"1";"[28]";"1";"0";"1"
"902";"11";"8";"1";"12";"1";"1";"10";"1";"[10,29]";"1";"0";"1"
"903";"12";"8";"1";"14";"1";"1";"10";"1";"[4,8,17,22,37,40]";"1";"0";"1"
"904";"24";"8";"1";"7";"1";"1";"10";"1";"[3,8,17,20]";"1";"0";"1"
"905";"27";"8";"1";"27";"1";"1";"10";"1";"[19,22,23,24,37]";"1";"0";"1"
"906";"10";"8";"1";"4";"1";"1";"10";"2";"[1,14,17,25]";"1";"0";"1"
"907";"32";"8";"1";"17";"1";"1";"10";"1";"[1,4,7,14,18,25,28,38]";"2";"0";"1"
"908";"23";"8";"1";"29";"1";"1";"10";"1";"[3,9,12,31,39]";"1";"0";"1"
"909";"24";"9";"1";"7";"1";"1";"10";"1";"[3,8,17,20]";"1";"0";"1"
"910";"32";"9";"1";"17";"1";"1";"10";"1";"[1,4,7,14,18,25,28,38]";"2";"0";"1"
"911";"23";"9";"1";"29";"1";"1";"10";"1";"[3,9,12,31,39]";"1";"0";"1"
"912";"17";"10";"1";"15";"1";"1";"10";"2";"[2,3,11,25]";"0";"10";"1"
"913";"17";"11";"1";"15";"1";"1";"10";"2";"[2,3,11,25]";"0";"8";"1"
"914";"24";"12";"1";"7";"1";"1";"10";"1";"[3,8,17,20]";"1";"1";"1"
"915";"17";"12";"1";"15";"1";"1";"10";"2";"[2,3,11,25]";"0";"9";"1"
"916";"24";"15";"1";"7";"1";"1";"10";"1";"[3,8,17,20]";"1";"2";"1"
"917";"17";"15";"1";"15";"1";"1";"10";"2";"[2,3,11,25]";"2";"9";"1"
"918";"17";"16";"1";"15";"1";"1";"10";"2";"[2,3,11,25]";"2";"9";"1"
"919";"24";"16";"1";"7";"1";"1";"10";"1";"[3,8,17,20]";"1";"1";"1"
"920";"35";"17";"1";"9";"1";"1";"10";"1";"[29,35]";"1";"0";"1"
"921";"17";"17";"1";"15";"1";"1";"10";"2";"[2,3,11,25]";"2";"8";"1"
"922";"5";"18";"1";"38";"1";"1";"10";"1";"[10,17]";"1";"0";"1"
"923";"35";"18";"1";"9";"1";"1";"10";"1";"[29,35]";"1";"0";"1"
"924";"24";"18";"1";"7";"1";"1";"10";"1";"[3,8,17,20]";"1";"2";"1"
"925";"17";"19";"1";"15";"1";"1";"10";"2";"[2,3,11,25]";"2";"7";"1"
"926";"5";"19";"1";"38";"1";"1";"10";"1";"[10,17]";"1";"0";"1"
"927";"17";"20";"1";"15";"1";"1";"10";"2";"[2,3,11,25]";"2";"6";"1"
"928";"17";"21";"1";"15";"1";"1";"10";"2";"[2,3,11,25]";"2";"1";"1"
"929";"17";"22";"1";"15";"1";"1";"10";"2";"[2,3,11,25]";"2";"2";"1"
"930";"24";"23";"1";"7";"1";"1";"10";"1";"[3,8,17,20]";"1";"3";"1"
"931";"17";"24";"1";"15";"1";"1";"10";"2";"[2,3,11,25]";"2";"3";"1"
"932";"24";"25";"1";"7";"1";"1";"10";"1";"[3,8,17,20]";"1";"4";"1"
"933";"26";"26";"1";"2";"1";"1";"10";"1";"[15,36,39]";"1";"0";"1"
"934";"17";"26";"1";"15";"1";"1";"10";"2";"[2,3,11,25]";"2";"2";"1"
"935";"17";"26";"1";"15";"1";"1";"10";"2";"[2,3,11,25]";"2";"3";"1"
"936";"26";"27";"1";"2";"1";"1";"10";"1";"[15,36,39]";"1";"0";"1"
"937";"17";"0";"1";"15";"1";"1";"11";"2";"[2,3,11,25]";"0";"11";"1"
"938";"24";"0";"1";"7";"1";"1";"11";"1";"[3,8,17,20]";"0";"5";"1"
"939";"17";"0";"1";"15";"1";"1";"11";"2";"[2,3,11,25]";"0";"11";"1"
"940";"17";"1";"1";"15";"1";"1";"11";"2";"[2,3,11,25]";"0";"11";"1"
"941";"40";"1";"1";"23";"1";"1";"11";"1";"[18,27,40]";"1";"0";"1"
"942";"15";"1";"1";"25";"1";"1";"11";"1";"[4,15,17,20,26]";"1";"0";"1"
"943";"28";"2";"1";"30";"1";"1";"11";"2";"[13]";"2";"0";"1"
"944";"34";"2";"1";"39";"1";"1";"11";"2";"[2,19,22,29]";"1";"0";"1"
"945";"33";"2";"1";"6";"1";"1";"11";"1";"[5,26,32]";"1";"0";"1"
"946";"40";"2";"1";"23";"1";"1";"11";"1";"[18,27,40]";"1";"0";"1"
"947";"31";"2";"1";"33";"1";"1";"11";"1";"[10,21,32,37]";"1";"0";"1"
"948";"24";"2";"1";"7";"1";"1";"11";"1";"[3,8,17,20]";"0";"7";"1"
"949";"15";"2";"1";"25";"1";"1";"11";"1";"[4,15,17,20,26]";"1";"0";"1"
"950";"38";"3";"1";"8";"1";"1";"11";"2";"[7,14,16]";"1";"0";"1"
"951";"6";"3";"1";"21";"1";"1";"11";"1";"[5,13,16,26,28,31,32,33,36]";"1";"0";"1"
"952";"7";"3";"1";"22";"1";"1";"11";"2";"[14,26,27,39]";"1";"0";"1"
"953";"25";"3";"1";"5";"1";"1";"11";"1";"[6,11,21,31]";"1";"0";"1"
"954";"3";"3";"1";"32";"1";"1";"11";"1";"[6,21,26,33,36]";"1";"0";"1"
"955";"28";"3";"1";"30";"1";"1";"11";"2";"[13]";"2";"0";"1"
"956";"34";"3";"1";"39";"1";"1";"11";"2";"[2,19,22,29]";"1";"0";"1"
"957";"33";"3";"1";"6";"1";"1";"11";"1";"[5,26,32]";"1";"0";"1"
"958";"2";"3";"1";"3";"1";"1";"11";"2";"[7,15,16,20,29,40]";"2";"0";"1"
"959";"32";"3";"1";"17";"1";"1";"11";"1";"[1,4,7,14,18,25,28,38]";"1";"0";"1"
"960";"35";"3";"1";"9";"1";"1";"11";"1";"[29,35]";"1";"0";"1"
"961";"17";"3";"1";"15";"1";"1";"11";"2";"[2,3,11,25]";"2";"11";"1"
"962";"31";"3";"1";"33";"1";"1";"11";"1";"[10,21,32,37]";"1";"0";"1"
"963";"24";"3";"1";"7";"1";"1";"11";"1";"[3,8,17,20]";"0";"8";"1"
"964";"29";"4";"1";"20";"1";"1";"11";"2";"[3,7,25]";"1";"0";"1"
"965";"6";"4";"1";"21";"1";"1";"11";"1";"[5,13,16,26,28,31,32,33,36]";"1";"0";"1"
"966";"38";"4";"1";"8";"1";"1";"11";"2";"[7,14,16]";"1";"0";"1"
"967";"8";"4";"1";"18";"1";"1";"11";"1";"[17,23]";"1";"0";"1"
"968";"11";"4";"1";"12";"1";"1";"11";"1";"[10,29]";"1";"0";"1"
"969";"7";"4";"1";"22";"1";"1";"11";"2";"[14,26,27,39]";"1";"0";"1"
"970";"25";"4";"1";"5";"1";"1";"11";"1";"[6,11,21,31]";"1";"0";"1"
"971";"3";"4";"1";"32";"1";"1";"11";"1";"[6,21,26,33,36]";"1";"0";"1"
"972";"12";"4";"1";"14";"1";"1";"11";"1";"[4,8,17,22,37,40]";"1";"0";"1"
"973";"1";"4";"1";"16";"1";"1";"11";"1";"[1,3,8,21,24]";"1";"0";"1"
"974";"24";"4";"1";"7";"1";"1";"11";"1";"[3,8,17,20]";"0";"9";"1"
"975";"37";"4";"1";"26";"1";"1";"11";"1";"[6,11,19,21,22,25,28,32,40]";"1";"0";"1"
"976";"2";"4";"1";"3";"1";"1";"11";"2";"[7,15,16,20,29,40]";"2";"0";"1"
"977";"32";"4";"1";"17";"1";"1";"11";"1";"[1,4,7,14,18,25,28,38]";"1";"0";"1"
"978";"35";"4";"1";"9";"1";"1";"11";"1";"[29,35]";"1";"0";"1"
"979";"17";"4";"1";"15";"1";"1";"11";"2";"[2,3,11,25]";"2";"11";"1"
"980";"29";"5";"1";"20";"1";"1";"11";"2";"[3,7,25]";"1";"0";"1"
"981";"21";"5";"1";"24";"1";"1";"11";"1";"[16,27,28,36]";"1";"0";"1"
"982";"8";"5";"1";"18";"1";"1";"11";"1";"[17,23]";"1";"0";"1"
"983";"11";"5";"1";"12";"1";"1";"11";"1";"[10,29]";"1";"0";"1"
"984";"12";"5";"1";"14";"1";"1";"11";"1";"[4,8,17,22,37,40]";"1";"0";"1"
"985";"1";"5";"1";"16";"1";"1";"11";"1";"[1,3,8,21,24]";"1";"0";"1"
"986";"14";"5";"1";"36";"1";"1";"11";"1";"[2,21,24,32]";"1";"0";"1"
"987";"18";"5";"1";"10";"1";"1";"11";"1";"[12,19,28,33,38]";"1";"0";"1"
"988";"37";"5";"1";"26";"1";"1";"11";"1";"[6,11,19,21,22,25,28,32,40]";"1";"0";"1"
"989";"39";"5";"1";"37";"1";"1";"11";"1";"[14,27,33]";"1";"0";"1"
"990";"24";"6";"1";"7";"1";"1";"11";"1";"[3,8,17,20]";"0";"10";"1"
"991";"21";"6";"1";"24";"1";"1";"11";"1";"[16,27,28,36]";"1";"0";"1"
"992";"22";"6";"1";"13";"1";"1";"11";"2";"[21,30]";"2";"0";"1"
"993";"36";"6";"1";"40";"1";"1";"11";"2";"[3,14,23,26]";"1";"0";"1"
"994";"14";"6";"1";"36";"1";"1";"11";"1";"[2,21,24,32]";"1";"0";"1"
"995";"18";"6";"1";"10";"1";"1";"11";"1";"[12,19,28,33,38]";"1";"0";"1"
"996";"39";"6";"1";"37";"1";"1";"11";"1";"[14,27,33]";"1";"0";"1"
"997";"27";"6";"1";"27";"1";"1";"11";"1";"[19,22,23,24,37]";"1";"0";"1"
"998";"22";"7";"1";"13";"1";"1";"11";"2";"[21,30]";"2";"0";"1"
"999";"36";"7";"1";"40";"1";"1";"11";"2";"[3,14,23,26]";"1";"0";"1"
"1000";"27";"7";"1";"27";"1";"1";"11";"1";"[19,22,23,24,37]";"1";"0";"1"
"1001";"19";"8";"1";"34";"1";"1";"11";"1";"[28]";"1";"0";"1"
"1002";"9";"8";"1";"31";"1";"1";"11";"2";"[5,21,29]";"1";"0";"1"
"1003";"19";"9";"1";"34";"1";"1";"11";"1";"[28]";"1";"0";"1"
"1004";"20";"9";"1";"1";"1";"1";"11";"1";"[4,16,17]";"1";"0";"1"
"1005";"9";"9";"1";"31";"1";"1";"11";"2";"[5,21,29]";"1";"0";"1"
"1006";"26";"9";"1";"2";"1";"1";"11";"1";"[15,36,39]";"2";"0";"1"
"1007";"17";"9";"1";"15";"1";"1";"11";"2";"[2,3,11,25]";"2";"9";"1"
"1008";"16";"9";"1";"19";"1";"1";"11";"2";"[10,26,27,39]";"1";"0";"1"
"1009";"20";"10";"1";"1";"1";"1";"11";"1";"[4,16,17]";"1";"0";"1"
"1010";"23";"10";"1";"29";"1";"1";"11";"1";"[3,9,12,31,39]";"2";"0";"1"
"1011";"10";"10";"1";"4";"1";"1";"11";"2";"[1,14,17,25]";"1";"0";"1"
"1012";"26";"10";"1";"2";"1";"1";"11";"1";"[15,36,39]";"2";"0";"1"
"1013";"17";"10";"1";"15";"1";"1";"11";"2";"[2,3,11,25]";"2";"10";"1"
"1014";"16";"10";"1";"19";"1";"1";"11";"2";"[10,26,27,39]";"1";"0";"1"
"1015";"23";"11";"1";"29";"1";"1";"11";"1";"[3,9,12,31,39]";"2";"0";"1"
"1016";"10";"11";"1";"4";"1";"1";"11";"2";"[1,14,17,25]";"1";"0";"1"
"1017";"17";"12";"1";"15";"1";"1";"11";"2";"[2,3,11,25]";"2";"9";"1"
"1018";"17";"12";"1";"15";"1";"1";"11";"2";"[2,3,11,25]";"2";"8";"1"
"1019";"17";"13";"1";"15";"1";"1";"11";"2";"[2,3,11,25]";"2";"7";"1"
"1020";"17";"13";"1";"15";"1";"1";"11";"2";"[2,3,11,25]";"2";"6";"1"
"1021";"17";"14";"1";"15";"1";"1";"11";"2";"[2,3,11,25]";"2";"5";"1"
"1022";"17";"14";"1";"15";"1";"1";"11";"2";"[2,3,11,25]";"2";"4";"1"
"1023";"17";"15";"1";"15";"1";"1";"11";"2";"[2,3,11,25]";"2";"3";"1"
"1024";"4";"15";"1";"28";"1";"1";"11";"1";"[10,17,21,24,26,34]";"1";"0";"1"
"1025";"17";"15";"1";"15";"1";"1";"11";"2";"[2,3,11,25]";"2";"2";"1"
"1026";"17";"15";"1";"15";"1";"1";"11";"2";"[2,3,11,25]";"2";"1";"1"
"1027";"24";"16";"1";"7";"1";"1";"11";"1";"[3,8,17,20]";"0";"11";"1"
"1028";"4";"16";"1";"28";"1";"1";"11";"1";"[10,17,21,24,26,34]";"1";"0";"1"
"1029";"30";"16";"1";"11";"1";"1";"11";"1";"[5,15,26,35]";"1";"0";"1"
"1030";"17";"17";"1";"15";"1";"1";"11";"2";"[2,3,11,25]";"2";"2";"1"
"1031";"30";"17";"1";"11";"1";"1";"11";"1";"[5,15,26,35]";"1";"0";"1"
"1032";"24";"18";"1";"7";"1";"1";"11";"1";"[3,8,17,20]";"0";"1";"1"
"1033";"17";"18";"1";"15";"1";"1";"11";"2";"[2,3,11,25]";"2";"3";"1"
"1034";"17";"18";"1";"15";"1";"1";"11";"2";"[2,3,11,25]";"2";"4";"1"
"1035";"17";"19";"1";"15";"1";"1";"11";"2";"[2,3,11,25]";"2";"5";"1"
"1036";"17";"19";"1";"15";"1";"1";"11";"2";"[2,3,11,25]";"2";"6";"1"
"1037";"5";"19";"1";"38";"1";"1";"11";"1";"[10,17]";"1";"0";"1"
"1038";"17";"20";"1";"15";"1";"1";"11";"2";"[2,3,11,25]";"2";"7";"1"
"1039";"17";"20";"1";"15";"1";"1";"11";"2";"[2,3,11,25]";"2";"8";"1"
"1040";"17";"20";"1";"15";"1";"1";"11";"2";"[2,3,11,25]";"2";"9";"1"
"1041";"5";"20";"1";"38";"1";"1";"11";"1";"[10,17]";"1";"0";"1"
"1042";"17";"21";"1";"15";"1";"1";"11";"2";"[2,3,11,25]";"2";"10";"1"
"1043";"24";"21";"1";"7";"1";"1";"11";"1";"[3,8,17,20]";"0";"11";"1"
"1044";"17";"21";"1";"15";"1";"1";"11";"2";"[2,3,11,25]";"2";"11";"1"
"1045";"24";"26";"1";"7";"1";"1";"11";"1";"[3,8,17,20]";"1";"11";"1"
"1046";"24";"27";"1";"7";"1";"1";"11";"1";"[3,8,17,20]";"1";"11";"1"
"1047";"13";"27";"1";"35";"1";"1";"11";"1";"[9,11]";"1";"0";"1"
"1048";"13";"28";"1";"35";"1";"1";"11";"1";"[9,11]";"1";"0";"1"
"1049";"15";"1";"1";"25";"1";"1";"12";"1";"[4,15,17,20,26]";"1";"0";"1"
"1050";"40";"2";"1";"23";"1";"1";"12";"1";"[18,27,40]";"1";"0";"1"
"1051";"31";"2";"1";"33";"1";"1";"12";"1";"[10,21,32,37]";"1";"0";"1"
"1052";"1";"2";"1";"16";"1";"1";"12";"1";"[1,3,8,21,24]";"1";"0";"1"
"1053";"23";"2";"1";"29";"1";"1";"12";"1";"[3,9,12,31,39]";"1";"0";"1"
"1054";"15";"2";"1";"25";"1";"1";"12";"1";"[4,15,17,20,26]";"1";"0";"1"
"1055";"36";"3";"1";"40";"1";"1";"12";"2";"[3,14,23,26]";"1";"0";"1"
"1056";"4";"3";"1";"28";"1";"1";"12";"1";"[10,17,21,24,26,34]";"1";"0";"1"
"1057";"37";"3";"1";"26";"1";"1";"12";"1";"[6,11,19,21,22,25,28,32,40]";"1";"0";"1"
"1058";"32";"3";"1";"17";"1";"1";"12";"1";"[1,4,7,14,18,25,28,38]";"1";"0";"1"
"1059";"40";"3";"1";"23";"1";"1";"12";"1";"[18,27,40]";"1";"0";"1"
"1060";"35";"3";"1";"9";"1";"1";"12";"1";"[29,35]";"2";"0";"1"
"1061";"25";"3";"1";"5";"1";"1";"12";"1";"[6,11,21,31]";"1";"0";"1"
"1062";"29";"3";"1";"20";"1";"1";"12";"2";"[3,7,25]";"1";"0";"1"
"1063";"20";"3";"1";"1";"1";"1";"12";"1";"[4,16,17]";"1";"0";"1"
"1064";"19";"3";"1";"34";"1";"1";"12";"1";"[28]";"1";"0";"1"
"1065";"18";"3";"1";"10";"1";"1";"12";"1";"[12,19,28,33,38]";"1";"0";"1"
"1066";"14";"3";"1";"36";"1";"1";"12";"1";"[2,21,24,32]";"1";"0";"1"
"1067";"8";"3";"1";"18";"1";"1";"12";"1";"[17,23]";"1";"0";"1"
"1068";"24";"3";"1";"7";"1";"1";"12";"1";"[3,8,17,20]";"0";"1";"1"
"1069";"12";"3";"1";"14";"1";"1";"12";"1";"[4,8,17,22,37,40]";"1";"0";"1"
"1070";"38";"3";"1";"8";"1";"1";"12";"2";"[7,14,16]";"1";"0";"1"
"1071";"31";"3";"1";"33";"1";"1";"12";"1";"[10,21,32,37]";"1";"0";"1"
"1072";"9";"3";"1";"31";"1";"1";"12";"2";"[5,21,29]";"2";"0";"1"
"1073";"1";"3";"1";"16";"1";"1";"12";"1";"[1,3,8,21,24]";"1";"0";"1"
"1074";"23";"3";"1";"29";"1";"1";"12";"1";"[3,9,12,31,39]";"1";"0";"1"
"1075";"36";"4";"1";"40";"1";"1";"12";"2";"[3,14,23,26]";"1";"0";"1"
"1076";"4";"4";"1";"28";"1";"1";"12";"1";"[10,17,21,24,26,34]";"1";"0";"1"
"1077";"37";"4";"1";"26";"1";"1";"12";"1";"[6,11,19,21,22,25,28,32,40]";"1";"0";"1"
"1078";"32";"4";"1";"17";"1";"1";"12";"1";"[1,4,7,14,18,25,28,38]";"1";"0";"1"
"1079";"7";"4";"1";"22";"1";"1";"12";"2";"[14,26,27,39]";"1";"0";"1"
"1080";"3";"4";"1";"32";"1";"1";"12";"1";"[6,21,26,33,36]";"1";"0";"1"
"1081";"35";"4";"1";"9";"1";"1";"12";"1";"[29,35]";"2";"0";"1"
"1082";"25";"4";"1";"5";"1";"1";"12";"1";"[6,11,21,31]";"1";"0";"1"
"1083";"29";"4";"1";"20";"1";"1";"12";"2";"[3,7,25]";"1";"0";"1"
"1084";"20";"4";"1";"1";"1";"1";"12";"1";"[4,16,17]";"1";"0";"1"
"1085";"13";"4";"1";"35";"1";"1";"12";"1";"[9,11]";"1";"0";"1"
"1086";"19";"4";"1";"34";"1";"1";"12";"1";"[28]";"1";"0";"1"
"1087";"17";"4";"1";"15";"1";"1";"12";"2";"[2,3,11,25]";"2";"0";"1"
"1088";"18";"4";"1";"10";"1";"1";"12";"1";"[12,19,28,33,38]";"1";"0";"1"
"1089";"14";"4";"1";"36";"1";"1";"12";"1";"[2,21,24,32]";"1";"0";"1"
"1090";"22";"4";"1";"13";"1";"1";"12";"2";"[21,30]";"2";"0";"1"
"1091";"8";"4";"1";"18";"1";"1";"12";"1";"[17,23]";"1";"0";"1"
"1092";"12";"4";"1";"14";"1";"1";"12";"1";"[4,8,17,22,37,40]";"1";"0";"1"
"1093";"38";"4";"1";"8";"1";"1";"12";"2";"[7,14,16]";"1";"0";"1"
"1094";"9";"4";"1";"31";"1";"1";"12";"2";"[5,21,29]";"2";"0";"1"
"1095";"28";"4";"1";"30";"1";"1";"12";"2";"[13]";"2";"0";"1"
"1096";"27";"5";"1";"27";"1";"1";"12";"1";"[19,22,23,24,37]";"1";"0";"1"
"1097";"7";"5";"1";"22";"1";"1";"12";"2";"[14,26,27,39]";"1";"0";"1"
"1098";"3";"5";"1";"32";"1";"1";"12";"1";"[6,21,26,33,36]";"1";"0";"1"
"1099";"13";"5";"1";"35";"1";"1";"12";"1";"[9,11]";"1";"0";"1"
"1100";"17";"5";"1";"15";"1";"1";"12";"2";"[2,3,11,25]";"2";"0";"1"
"1101";"16";"5";"1";"19";"1";"1";"12";"2";"[10,26,27,39]";"1";"0";"1"
"1102";"22";"5";"1";"13";"1";"1";"12";"2";"[21,30]";"2";"0";"1"
"1103";"10";"5";"1";"4";"1";"1";"12";"2";"[1,14,17,25]";"2";"0";"1"
"1104";"28";"5";"1";"30";"1";"1";"12";"2";"[13]";"2";"0";"1"
"1105";"27";"6";"1";"27";"1";"1";"12";"1";"[19,22,23,24,37]";"1";"0";"1"
"1106";"16";"6";"1";"19";"1";"1";"12";"2";"[10,26,27,39]";"1";"0";"1"
"1107";"10";"6";"1";"4";"1";"1";"12";"2";"[1,14,17,25]";"2";"0";"1"
"1108";"24";"7";"1";"7";"1";"1";"12";"1";"[3,8,17,20]";"0";"11";"1"
"1109";"33";"7";"1";"6";"1";"1";"12";"1";"[5,26,32]";"1";"0";"1"
"1110";"33";"8";"1";"6";"1";"1";"12";"1";"[5,26,32]";"1";"0";"1"
"1111";"2";"9";"1";"3";"1";"1";"12";"2";"[7,15,16,20,29,40]";"2";"0";"1"
"1112";"39";"9";"1";"37";"1";"1";"12";"1";"[14,27,33]";"1";"0";"1"
"1113";"21";"9";"1";"24";"1";"1";"12";"1";"[16,27,28,36]";"1";"0";"1"
"1114";"2";"10";"1";"3";"1";"1";"12";"2";"[7,15,16,20,29,40]";"2";"0";"1"
"1115";"24";"10";"1";"7";"1";"1";"12";"1";"[3,8,17,20]";"1";"11";"1"
"1116";"39";"10";"1";"37";"1";"1";"12";"1";"[14,27,33]";"1";"0";"1"
"1117";"21";"10";"1";"24";"1";"1";"12";"1";"[16,27,28,36]";"1";"0";"1"
"1118";"24";"11";"1";"7";"1";"1";"12";"1";"[3,8,17,20]";"1";"11";"1"
"1119";"6";"11";"1";"21";"1";"1";"12";"1";"[5,13,16,26,28,31,32,33,36]";"1";"0";"1"
"1120";"11";"12";"1";"12";"1";"1";"12";"1";"[10,29]";"2";"0";"1"
"1121";"6";"12";"1";"21";"1";"1";"12";"1";"[5,13,16,26,28,31,32,33,36]";"1";"0";"1"
"1122";"11";"13";"1";"12";"1";"1";"12";"1";"[10,29]";"2";"0";"1"
"1123";"5";"17";"1";"38";"1";"1";"12";"1";"[10,17]";"1";"0";"1"
"1124";"5";"18";"1";"38";"1";"1";"12";"1";"[10,17]";"1";"0";"1"
"1125";"30";"21";"1";"11";"1";"1";"12";"1";"[5,15,26,35]";"1";"0";"1"
"1126";"26";"22";"1";"2";"1";"1";"12";"1";"[15,36,39]";"1";"0";"1"
"1127";"30";"22";"1";"11";"1";"1";"12";"1";"[5,15,26,35]";"1";"0";"1"
"1128";"26";"23";"1";"2";"1";"1";"12";"1";"[15,36,39]";"1";"0";"1"
"1129";"9";"23";"1";"31";"1";"1";"12";"2";"[5,21,29]";"2";"7";"1"
"1130";"9";"25";"1";"31";"1";"1";"12";"2";"[5,21,29]";"2";"4";"1"
"1131";"9";"26";"1";"31";"1";"1";"12";"2";"[5,21,29]";"2";"12";"1"
"1132";"34";"28";"1";"39";"1";"1";"12";"2";"[2,19,22,29]";"2";"0";"1"
"1133";"34";"29";"1";"39";"1";"1";"12";"2";"[2,19,22,29]";"2";"0";"1"
"1134";"40";"0";"1";"24";"1";"2";"12";"2";"[16,27,28,36]";"1";"0";"1"
"1135";"19";"0";"1";"29";"1";"2";"12";"2";"[3,9,12,31,39]";"1";"0";"1"
"1136";"20";"0";"1";"14";"1";"2";"12";"2";"[4,8,17,22,37,40]";"1";"0";"1"
"1137";"13";"0";"1";"31";"1";"2";"12";"2";"[5,21,29]";"2";"12";"1"
"1138";"1";"0";"1";"1";"1";"2";"12";"2";"[4,16,17]";"1";"0";"1"
"1139";"25";"0";"1";"33";"1";"2";"12";"2";"[10,21,32,37]";"1";"0";"1"
"1140";"15";"0";"1";"22";"1";"2";"12";"2";"[14,26,27,39]";"1";"0";"1"
"1141";"23";"0";"1";"18";"1";"2";"12";"2";"[17,23]";"1";"0";"1"
"1142";"12";"0";"1";"11";"1";"2";"12";"2";"[5,15,26,35]";"1";"0";"1"
"1143";"30";"0";"1";"27";"1";"2";"12";"1";"[19,22,23,24,37]";"1";"0";"1"
"1144";"14";"0";"1";"10";"1";"2";"12";"2";"[12,19,28,33,38]";"1";"0";"1"
"1145";"17";"0";"1";"4";"1";"2";"12";"2";"[1,14,17,25]";"2";"0";"1"
"1146";"33";"0";"1";"16";"1";"2";"12";"1";"[1,3,8,21,24]";"1";"0";"1"
"1147";"18";"0";"1";"26";"1";"2";"12";"2";"[6,11,19,21,22,25,28,32,40]";"1";"0";"1"
"1148";"3";"0";"1";"37";"1";"2";"12";"2";"[14,27,33]";"1";"0";"1"
"1149";"2";"0";"1";"38";"1";"2";"12";"2";"[10,17]";"1";"0";"1"
"1150";"5";"0";"1";"6";"1";"2";"12";"1";"[5,26,32]";"1";"0";"1"
"1151";"9";"0";"1";"21";"1";"2";"12";"2";"[5,13,16,26,28,31,32,33,36]";"1";"0";"1"
"1152";"32";"0";"1";"40";"1";"2";"12";"2";"[3,14,23,26]";"1";"0";"1"
"1153";"7";"0";"1";"25";"1";"2";"12";"1";"[4,15,17,20,26]";"1";"0";"1"
"1154";"22";"0";"1";"39";"1";"2";"12";"2";"[2,19,22,29]";"2";"0";"1"
"1155";"11";"0";"1";"13";"1";"2";"12";"1";"[21,30]";"2";"0";"1"
"1156";"6";"0";"1";"28";"1";"2";"12";"1";"[10,17,21,24,26,34]";"1";"0";"1"
"1157";"28";"0";"1";"34";"1";"2";"12";"1";"[28]";"1";"0";"1"
"1158";"31";"0";"1";"3";"1";"2";"12";"2";"[7,15,16,20,29,40]";"2";"0";"1"
"1159";"21";"0";"1";"12";"1";"2";"12";"2";"[10,29]";"2";"0";"1"
"1160";"10";"0";"1";"35";"1";"2";"12";"1";"[9,11]";"1";"0";"1"
"1161";"4";"0";"1";"7";"1";"2";"12";"2";"[3,8,17,20]";"1";"11";"1"
"1162";"29";"0";"1";"23";"1";"2";"12";"2";"[18,27,40]";"1";"0";"1"
"1163";"39";"0";"1";"17";"1";"2";"12";"2";"[1,4,7,14,18,25,28,38]";"1";"0";"1"
"1164";"34";"0";"1";"36";"1";"2";"12";"2";"[2,21,24,32]";"1";"0";"1"
"1165";"35";"0";"1";"2";"1";"2";"12";"1";"[15,36,39]";"1";"0";"1"
"1166";"27";"0";"1";"32";"1";"2";"12";"1";"[6,21,26,33,36]";"1";"0";"1"
"1167";"8";"0";"1";"8";"1";"2";"12";"2";"[7,14,16]";"1";"0";"1"
"1168";"24";"0";"1";"9";"1";"2";"12";"2";"[29,35]";"2";"0";"1"
"1169";"37";"0";"1";"15";"1";"2";"12";"1";"[2,3,11,25]";"2";"0";"1"
"1170";"36";"0";"1";"20";"1";"2";"12";"1";"[3,7,25]";"1";"0";"1"
"1171";"26";"0";"1";"5";"1";"2";"12";"2";"[6,11,21,31]";"1";"0";"1"
"1172";"16";"0";"1";"30";"1";"2";"12";"2";"[13]";"2";"0";"1"
"1173";"38";"0";"1";"19";"1";"2";"12";"1";"[10,26,27,39]";"1";"0";"1"
"1174";"40";"2";"1";"24";"1";"2";"1";"2";"[16,27,28,36]";"2";"0";"1"
"1175";"23";"2";"1";"18";"1";"2";"1";"2";"[17,23]";"2";"0";"1"
"1176";"35";"3";"1";"2";"1";"2";"1";"1";"[15,36,39]";"1";"0";"1"
"1177";"4";"3";"1";"7";"1";"2";"1";"2";"[3,8,17,20]";"2";"0";"1"
"1178";"40";"3";"1";"24";"1";"2";"1";"2";"[16,27,28,36]";"2";"0";"1"
"1179";"3";"3";"1";"37";"1";"2";"1";"2";"[14,27,33]";"2";"0";"1"
"1180";"24";"3";"1";"9";"1";"2";"1";"2";"[29,35]";"2";"0";"1"
"1181";"23";"3";"1";"18";"1";"2";"1";"2";"[17,23]";"2";"0";"1"
"1182";"12";"4";"1";"11";"1";"2";"1";"2";"[5,15,26,35]";"2";"0";"1"
"1183";"34";"4";"1";"36";"1";"2";"1";"2";"[2,21,24,32]";"2";"0";"1"
"1184";"30";"4";"1";"27";"1";"2";"1";"1";"[19,22,23,24,37]";"1";"0";"1"
"1185";"20";"4";"1";"14";"1";"2";"1";"2";"[4,8,17,22,37,40]";"2";"0";"1"
"1186";"35";"4";"1";"2";"1";"2";"1";"1";"[15,36,39]";"1";"0";"1"
"1187";"4";"4";"1";"7";"1";"2";"1";"2";"[3,8,17,20]";"2";"0";"1"
"1188";"6";"4";"1";"28";"1";"2";"1";"1";"[10,17,21,24,26,34]";"1";"0";"1"
"1189";"3";"4";"1";"37";"1";"2";"1";"2";"[14,27,33]";"2";"0";"1"
"1190";"24";"4";"1";"9";"1";"2";"1";"2";"[29,35]";"2";"0";"1"
"1191";"25";"4";"1";"33";"1";"2";"1";"2";"[10,21,32,37]";"2";"0";"1"
"1192";"1";"4";"1";"1";"1";"2";"1";"2";"[4,16,17]";"2";"0";"1"
"1193";"9";"4";"1";"21";"1";"2";"1";"2";"[5,13,16,26,28,31,32,33,36]";"2";"0";"1"
"1194";"12";"5";"1";"11";"1";"2";"1";"2";"[5,15,26,35]";"2";"0";"1"
"1195";"34";"5";"1";"36";"1";"2";"1";"2";"[2,21,24,32]";"2";"0";"1"
"1196";"30";"5";"1";"27";"1";"2";"1";"1";"[19,22,23,24,37]";"1";"0";"1"
"1197";"20";"5";"1";"14";"1";"2";"1";"2";"[4,8,17,22,37,40]";"2";"0";"1"
"1198";"8";"5";"1";"8";"1";"2";"1";"2";"[7,14,16]";"2";"0";"1"
"1199";"33";"5";"1";"16";"1";"2";"1";"1";"[1,3,8,21,24]";"1";"0";"1"
"1200";"39";"5";"1";"17";"1";"2";"1";"2";"[1,4,7,14,18,25,28,38]";"2";"0";"1"
"1201";"27";"5";"1";"32";"1";"2";"1";"1";"[6,21,26,33,36]";"1";"0";"1"
"1202";"6";"5";"1";"28";"1";"2";"1";"1";"[10,17,21,24,26,34]";"1";"0";"1"
"1203";"15";"5";"1";"22";"1";"2";"1";"2";"[14,26,27,39]";"2";"0";"1"
"1204";"31";"5";"1";"3";"1";"2";"1";"2";"[7,15,16,20,29,40]";"2";"0";"1"
"1205";"25";"5";"1";"33";"1";"2";"1";"2";"[10,21,32,37]";"2";"0";"1"
"1206";"1";"5";"1";"1";"1";"2";"1";"2";"[4,16,17]";"2";"0";"1"
"1207";"9";"5";"1";"21";"1";"2";"1";"2";"[5,13,16,26,28,31,32,33,36]";"2";"0";"1"
"1208";"5";"6";"1";"6";"1";"2";"1";"1";"[5,26,32]";"1";"0";"1"
"1209";"8";"6";"1";"8";"1";"2";"1";"2";"[7,14,16]";"2";"0";"1"
"1210";"33";"6";"1";"16";"1";"2";"1";"1";"[1,3,8,21,24]";"1";"0";"1"
"1211";"39";"6";"1";"17";"1";"2";"1";"2";"[1,4,7,14,18,25,28,38]";"2";"0";"1"
"1212";"27";"6";"1";"32";"1";"2";"1";"1";"[6,21,26,33,36]";"1";"0";"1"
"1213";"15";"6";"1";"22";"1";"2";"1";"2";"[14,26,27,39]";"2";"0";"1"
"1214";"31";"6";"1";"3";"1";"2";"1";"2";"[7,15,16,20,29,40]";"2";"0";"1"
"1215";"2";"6";"1";"38";"1";"2";"1";"2";"[10,17]";"1";"0";"1"
"1216";"5";"7";"1";"6";"1";"2";"1";"1";"[5,26,32]";"1";"0";"1"
"1217";"32";"7";"1";"40";"1";"2";"1";"2";"[3,14,23,26]";"2";"0";"1"
"1218";"18";"7";"1";"26";"1";"2";"1";"2";"[6,11,19,21,22,25,28,32,40]";"2";"0";"1"
"1219";"7";"7";"1";"25";"1";"2";"1";"1";"[4,15,17,20,26]";"1";"0";"1"
"1220";"21";"7";"1";"12";"1";"2";"1";"2";"[10,29]";"2";"0";"1"
"1221";"2";"7";"1";"38";"1";"2";"1";"2";"[10,17]";"1";"0";"1"
"1222";"19";"8";"1";"29";"1";"2";"1";"2";"[3,9,12,31,39]";"2";"0";"1"
"1223";"32";"8";"1";"40";"1";"2";"1";"2";"[3,14,23,26]";"2";"0";"1"
"1224";"18";"8";"1";"26";"1";"2";"1";"2";"[6,11,19,21,22,25,28,32,40]";"2";"0";"1"
"1225";"10";"8";"1";"35";"1";"2";"1";"1";"[9,11]";"1";"0";"1"
"1226";"14";"8";"1";"10";"1";"2";"1";"2";"[12,19,28,33,38]";"2";"0";"1"
"1227";"7";"8";"1";"25";"1";"2";"1";"1";"[4,15,17,20,26]";"1";"0";"1"
"1228";"21";"8";"1";"12";"1";"2";"1";"2";"[10,29]";"2";"0";"1"
"1229";"38";"9";"1";"19";"1";"2";"1";"1";"[10,26,27,39]";"1";"0";"1"
"1230";"29";"9";"1";"23";"1";"2";"1";"2";"[18,27,40]";"2";"0";"1"
"1231";"11";"9";"1";"13";"1";"2";"1";"1";"[21,30]";"1";"0";"1"
"1232";"19";"9";"1";"29";"1";"2";"1";"2";"[3,9,12,31,39]";"2";"0";"1"
"1233";"36";"9";"1";"20";"1";"2";"1";"1";"[3,7,25]";"2";"0";"1"
"1234";"10";"9";"1";"35";"1";"2";"1";"1";"[9,11]";"1";"0";"1"
"1235";"14";"9";"1";"10";"1";"2";"1";"2";"[12,19,28,33,38]";"2";"0";"1"
"1236";"38";"10";"1";"19";"1";"2";"1";"1";"[10,26,27,39]";"1";"0";"1"
"1237";"26";"10";"1";"5";"1";"2";"1";"2";"[6,11,21,31]";"2";"0";"1"
"1238";"29";"10";"1";"23";"1";"2";"1";"2";"[18,27,40]";"2";"0";"1"
"1239";"11";"10";"1";"13";"1";"2";"1";"1";"[21,30]";"1";"0";"1"
"1240";"36";"10";"1";"20";"1";"2";"1";"1";"[3,7,25]";"2";"0";"1"
"1241";"26";"11";"1";"5";"1";"2";"1";"2";"[6,11,21,31]";"2";"0";"1"
"1242";"16";"11";"1";"30";"1";"2";"1";"2";"[13]";"2";"0";"1"
"1243";"22";"11";"1";"39";"1";"2";"1";"2";"[2,19,22,29]";"2";"0";"1"
"1244";"28";"12";"1";"34";"1";"2";"1";"1";"[28]";"1";"0";"1"
"1245";"16";"12";"1";"30";"1";"2";"1";"2";"[13]";"2";"0";"1"
"1246";"22";"12";"1";"39";"1";"2";"1";"2";"[2,19,22,29]";"2";"0";"1"
"1247";"28";"13";"1";"34";"1";"2";"1";"1";"[28]";"1";"0";"1"
"1248";"37";"15";"1";"15";"1";"2";"1";"1";"[2,3,11,25]";"1";"0";"1"
"1249";"37";"16";"1";"15";"1";"2";"1";"1";"[2,3,11,25]";"1";"0";"1"
"1250";"13";"19";"1";"31";"1";"2";"1";"2";"[5,21,29]";"2";"0";"1"
"1251";"13";"20";"1";"31";"1";"2";"1";"2";"[5,21,29]";"2";"0";"1"
"1252";"17";"24";"1";"4";"1";"2";"1";"2";"[1,14,17,25]";"2";"0";"1"
"1253";"17";"25";"1";"4";"1";"2";"1";"2";"[1,14,17,25]";"2";"0";"1"
"1254";"29";"3";"1";"23";"1";"2";"2";"2";"[18,27,40]";"2";"0";"1"
"1255";"3";"3";"1";"37";"1";"2";"2";"2";"[14,27,33]";"2";"0";"1"
"1256";"30";"3";"1";"27";"1";"2";"2";"1";"[19,22,23,24,37]";"2";"0";"1"
"1257";"40";"3";"1";"24";"1";"2";"2";"2";"[16,27,28,36]";"1";"0";"1"
"1258";"23";"3";"1";"18";"1";"2";"2";"2";"[17,23]";"2";"0";"1"
"1259";"29";"4";"1";"23";"1";"2";"2";"2";"[18,27,40]";"2";"0";"1"
"1260";"3";"4";"1";"37";"1";"2";"2";"2";"[14,27,33]";"2";"0";"1"
"1261";"30";"4";"1";"27";"1";"2";"2";"1";"[19,22,23,24,37]";"2";"0";"1"
"1262";"31";"4";"1";"3";"1";"2";"2";"2";"[7,15,16,20,29,40]";"2";"0";"1"
"1263";"40";"4";"1";"24";"1";"2";"2";"2";"[16,27,28,36]";"1";"0";"1"
"1264";"25";"4";"1";"33";"1";"2";"2";"2";"[10,21,32,37]";"2";"0";"1"
"1265";"13";"4";"1";"31";"1";"2";"2";"2";"[5,21,29]";"2";"0";"1"
"1266";"23";"4";"1";"18";"1";"2";"2";"2";"[17,23]";"2";"0";"1"
"1267";"38";"4";"1";"19";"1";"2";"2";"1";"[10,26,27,39]";"1";"0";"1"
"1268";"14";"4";"1";"10";"1";"2";"2";"2";"[12,19,28,33,38]";"1";"0";"1"
"1269";"7";"5";"1";"25";"1";"2";"2";"1";"[4,15,17,20,26]";"2";"0";"1"
"1270";"1";"5";"1";"1";"1";"2";"2";"2";"[4,16,17]";"2";"0";"1"
"1271";"36";"5";"1";"20";"1";"2";"2";"1";"[3,7,25]";"2";"0";"1"
"1272";"12";"5";"1";"11";"1";"2";"2";"2";"[5,15,26,35]";"2";"0";"1"
"1273";"31";"5";"1";"3";"1";"2";"2";"2";"[7,15,16,20,29,40]";"2";"0";"1"
"1274";"25";"5";"1";"33";"1";"2";"2";"2";"[10,21,32,37]";"2";"0";"1"
"1275";"13";"5";"1";"31";"1";"2";"2";"2";"[5,21,29]";"2";"0";"1"
"1276";"38";"5";"1";"19";"1";"2";"2";"1";"[10,26,27,39]";"1";"0";"1"
"1277";"14";"5";"1";"10";"1";"2";"2";"2";"[12,19,28,33,38]";"1";"0";"1"
"1278";"7";"6";"1";"25";"1";"2";"2";"1";"[4,15,17,20,26]";"2";"0";"1"
"1279";"1";"6";"1";"1";"1";"2";"2";"2";"[4,16,17]";"2";"0";"1"
"1280";"36";"6";"1";"20";"1";"2";"2";"1";"[3,7,25]";"2";"0";"1"
"1281";"12";"6";"1";"11";"1";"2";"2";"2";"[5,15,26,35]";"2";"0";"1"
"1282";"15";"6";"1";"22";"1";"2";"2";"2";"[14,26,27,39]";"2";"0";"1"
"1283";"32";"7";"1";"40";"1";"2";"2";"2";"[3,14,23,26]";"2";"0";"1"
"1284";"34";"7";"1";"36";"1";"2";"2";"2";"[2,21,24,32]";"2";"0";"1"
"1285";"35";"7";"1";"2";"1";"2";"2";"1";"[15,36,39]";"2";"0";"1"
"1286";"15";"7";"1";"22";"1";"2";"2";"2";"[14,26,27,39]";"2";"0";"1"
"1287";"32";"8";"1";"40";"1";"2";"2";"2";"[3,14,23,26]";"2";"0";"1"
"1288";"34";"8";"1";"36";"1";"2";"2";"2";"[2,21,24,32]";"2";"0";"1"
"1289";"35";"8";"1";"2";"1";"2";"2";"1";"[15,36,39]";"2";"0";"1"
"1290";"4";"8";"1";"7";"1";"2";"2";"2";"[3,8,17,20]";"2";"0";"1"
"1291";"37";"9";"1";"15";"1";"2";"2";"1";"[2,3,11,25]";"1";"0";"1"
"1292";"11";"9";"1";"13";"1";"2";"2";"1";"[21,30]";"2";"0";"1"
"1293";"4";"9";"1";"7";"1";"2";"2";"2";"[3,8,17,20]";"2";"0";"1"
"1294";"6";"9";"1";"28";"1";"2";"2";"1";"[10,17,21,24,26,34]";"2";"0";"1"
"1295";"22";"10";"1";"39";"1";"2";"2";"2";"[2,19,22,29]";"2";"0";"1"
"1296";"16";"10";"1";"30";"1";"2";"2";"2";"[13]";"2";"0";"1"
"1297";"37";"10";"1";"15";"1";"2";"2";"1";"[2,3,11,25]";"1";"0";"1"
"1298";"33";"10";"1";"16";"1";"2";"2";"1";"[1,3,8,21,24]";"2";"0";"1"
"1299";"11";"10";"1";"13";"1";"2";"2";"1";"[21,30]";"2";"0";"1"
"1300";"6";"10";"1";"28";"1";"2";"2";"1";"[10,17,21,24,26,34]";"2";"0";"1"
"1301";"22";"11";"1";"39";"1";"2";"2";"2";"[2,19,22,29]";"2";"0";"1"
"1302";"16";"11";"1";"30";"1";"2";"2";"2";"[13]";"2";"0";"1"
"1303";"9";"11";"1";"21";"1";"2";"2";"2";"[5,13,16,26,28,31,32,33,36]";"2";"0";"1"
"1304";"33";"11";"1";"16";"1";"2";"2";"1";"[1,3,8,21,24]";"2";"0";"1"
"1305";"24";"11";"1";"9";"1";"2";"2";"2";"[29,35]";"2";"0";"1"
"1306";"20";"12";"1";"14";"1";"2";"2";"2";"[4,8,17,22,37,40]";"2";"0";"1"
"1307";"9";"12";"1";"21";"1";"2";"2";"2";"[5,13,16,26,28,31,32,33,36]";"2";"0";"1"
"1308";"27";"12";"1";"32";"1";"2";"2";"1";"[6,21,26,33,36]";"1";"0";"1"
"1309";"24";"12";"1";"9";"1";"2";"2";"2";"[29,35]";"2";"0";"1"
"1310";"20";"13";"1";"14";"1";"2";"2";"2";"[4,8,17,22,37,40]";"2";"0";"1"
"1311";"27";"13";"1";"32";"1";"2";"2";"1";"[6,21,26,33,36]";"1";"0";"1"
"1312";"8";"14";"1";"8";"1";"2";"2";"2";"[7,14,16]";"1";"0";"1"
"1313";"26";"14";"1";"5";"1";"2";"2";"2";"[6,11,21,31]";"2";"0";"1"
"1314";"8";"15";"1";"8";"1";"2";"2";"2";"[7,14,16]";"1";"0";"1"
"1315";"26";"15";"1";"5";"1";"2";"2";"2";"[6,11,21,31]";"2";"0";"1"
"1316";"28";"15";"1";"34";"1";"2";"2";"1";"[28]";"1";"0";"1"
"1317";"2";"16";"1";"38";"1";"2";"2";"2";"[10,17]";"2";"0";"1"
"1318";"28";"16";"1";"34";"1";"2";"2";"1";"[28]";"1";"0";"1"
"1319";"17";"16";"1";"4";"1";"2";"2";"2";"[1,14,17,25]";"2";"0";"1"
"1320";"10";"16";"1";"35";"1";"2";"2";"1";"[9,11]";"1";"0";"1"
"1321";"2";"17";"1";"38";"1";"2";"2";"2";"[10,17]";"2";"0";"1"
"1322";"17";"17";"1";"4";"1";"2";"2";"2";"[1,14,17,25]";"2";"0";"1"
"1323";"10";"17";"1";"35";"1";"2";"2";"1";"[9,11]";"1";"0";"1"
"1324";"39";"18";"1";"17";"1";"2";"2";"2";"[1,4,7,14,18,25,28,38]";"2";"0";"1"
"1325";"21";"18";"1";"12";"1";"2";"2";"2";"[10,29]";"2";"0";"1"
"1326";"18";"18";"1";"26";"1";"2";"2";"2";"[6,11,19,21,22,25,28,32,40]";"2";"0";"1"
"1327";"39";"19";"1";"17";"1";"2";"2";"2";"[1,4,7,14,18,25,28,38]";"2";"0";"1"
"1328";"21";"19";"1";"12";"1";"2";"2";"2";"[10,29]";"2";"0";"1"
"1329";"18";"19";"1";"26";"1";"2";"2";"2";"[6,11,19,21,22,25,28,32,40]";"2";"0";"1"
"1330";"5";"22";"1";"6";"1";"2";"2";"1";"[5,26,32]";"1";"0";"1"
"1331";"19";"22";"1";"29";"1";"2";"2";"2";"[3,9,12,31,39]";"2";"0";"1"
"1332";"5";"23";"1";"6";"1";"2";"2";"1";"[5,26,32]";"1";"0";"1"
"1333";"19";"23";"1";"29";"1";"2";"2";"2";"[3,9,12,31,39]";"2";"0";"1"
"1334";"23";"1";"1";"18";"1";"2";"3";"2";"[17,23]";"2";"0";"1"
"1335";"15";"1";"1";"22";"1";"2";"3";"2";"[14,26,27,39]";"2";"0";"1"
"1336";"38";"2";"1";"19";"1";"2";"3";"1";"[10,26,27,39]";"1";"0";"1"
"1337";"3";"2";"1";"37";"1";"2";"3";"2";"[14,27,33]";"2";"0";"1"
"1338";"20";"2";"1";"14";"1";"2";"3";"2";"[4,8,17,22,37,40]";"2";"0";"1"
"1339";"23";"2";"1";"18";"1";"2";"3";"2";"[17,23]";"2";"0";"1"
"1340";"1";"2";"1";"1";"1";"2";"3";"2";"[4,16,17]";"2";"0";"1"
"1341";"14";"2";"1";"10";"1";"2";"3";"2";"[12,19,28,33,38]";"2";"0";"1"
"1342";"15";"3";"1";"22";"1";"2";"3";"2";"[14,26,27,39]";"2";"0";"1"
"1343";"40";"3";"1";"24";"1";"2";"3";"2";"[16,27,28,36]";"2";"0";"1"
"1344";"38";"3";"1";"19";"1";"2";"3";"1";"[10,26,27,39]";"1";"0";"1"
"1345";"3";"3";"1";"37";"1";"2";"3";"2";"[14,27,33]";"2";"0";"1"
"1346";"20";"3";"1";"14";"1";"2";"3";"2";"[4,8,17,22,37,40]";"2";"0";"1"
"1347";"25";"3";"1";"33";"1";"2";"3";"2";"[10,21,32,37]";"2";"0";"1"
"1348";"1";"3";"1";"1";"1";"2";"3";"2";"[4,16,17]";"2";"0";"1"
"1349";"14";"3";"1";"10";"1";"2";"3";"2";"[12,19,28,33,38]";"2";"0";"1"
"1350";"13";"3";"1";"31";"1";"2";"3";"2";"[5,21,29]";"2";"0";"1"
"1351";"12";"3";"1";"11";"1";"2";"3";"2";"[5,15,26,35]";"2";"0";"1"
"1352";"40";"4";"1";"24";"1";"2";"3";"2";"[16,27,28,36]";"2";"0";"1"
"1353";"36";"4";"1";"20";"1";"2";"3";"1";"[3,7,25]";"2";"0";"1"
"1354";"22";"4";"1";"39";"1";"2";"3";"2";"[2,19,22,29]";"2";"0";"1"
"1355";"7";"4";"1";"25";"1";"2";"3";"1";"[4,15,17,20,26]";"2";"0";"1"
"1356";"29";"4";"1";"23";"1";"2";"3";"2";"[18,27,40]";"2";"0";"1"
"1357";"24";"4";"1";"9";"1";"2";"3";"2";"[29,35]";"2";"0";"1"
"1358";"25";"4";"1";"33";"1";"2";"3";"2";"[10,21,32,37]";"2";"0";"1"
"1359";"13";"4";"1";"31";"1";"2";"3";"2";"[5,21,29]";"2";"0";"1"
"1360";"12";"5";"1";"11";"1";"2";"3";"2";"[5,15,26,35]";"2";"0";"1"
"1361";"35";"5";"1";"2";"1";"2";"3";"1";"[15,36,39]";"2";"0";"1"
"1362";"36";"5";"1";"20";"1";"2";"3";"1";"[3,7,25]";"2";"0";"1"
"1363";"22";"5";"1";"39";"1";"2";"3";"2";"[2,19,22,29]";"2";"0";"1"
"1364";"7";"5";"1";"25";"1";"2";"3";"1";"[4,15,17,20,26]";"2";"0";"1"
"1365";"29";"5";"1";"23";"1";"2";"3";"2";"[18,27,40]";"2";"0";"1"
"1366";"24";"5";"1";"9";"1";"2";"3";"2";"[29,35]";"2";"0";"1"
"1367";"35";"6";"1";"2";"1";"2";"3";"1";"[15,36,39]";"2";"0";"1"
"1368";"31";"6";"1";"3";"1";"2";"3";"2";"[7,15,16,20,29,40]";"2";"0";"1"
"1369";"16";"6";"1";"30";"1";"2";"3";"2";"[13]";"2";"0";"1"
"1370";"6";"7";"1";"28";"1";"2";"3";"1";"[10,17,21,24,26,34]";"2";"0";"1"
"1371";"31";"7";"1";"3";"1";"2";"3";"2";"[7,15,16,20,29,40]";"2";"0";"1"
"1372";"16";"7";"1";"30";"1";"2";"3";"2";"[13]";"2";"0";"1"
"1373";"28";"7";"1";"34";"1";"2";"3";"1";"[28]";"2";"0";"1"
"1374";"10";"7";"1";"35";"1";"2";"3";"1";"[9,11]";"2";"0";"1"
"1375";"39";"7";"1";"17";"1";"2";"3";"2";"[1,4,7,14,18,25,28,38]";"2";"0";"1"
"1376";"8";"8";"1";"8";"1";"2";"3";"2";"[7,14,16]";"2";"0";"1"
"1377";"6";"8";"1";"28";"1";"2";"3";"1";"[10,17,21,24,26,34]";"2";"0";"1"
"1378";"37";"8";"1";"15";"1";"2";"3";"1";"[2,3,11,25]";"1";"0";"1"
"1379";"18";"8";"1";"26";"1";"2";"3";"2";"[6,11,19,21,22,25,28,32,40]";"2";"0";"1"
"1380";"28";"8";"1";"34";"1";"2";"3";"1";"[28]";"2";"0";"1"
"1381";"10";"8";"1";"35";"1";"2";"3";"1";"[9,11]";"2";"0";"1"
"1382";"39";"9";"1";"17";"1";"2";"3";"2";"[1,4,7,14,18,25,28,38]";"2";"0";"1"
"1383";"8";"9";"1";"8";"1";"2";"3";"2";"[7,14,16]";"2";"0";"1"
"1384";"11";"9";"1";"13";"1";"2";"3";"1";"[21,30]";"1";"0";"1"
"1385";"37";"9";"1";"15";"1";"2";"3";"1";"[2,3,11,25]";"1";"0";"1"
"1386";"18";"9";"1";"26";"1";"2";"3";"2";"[6,11,19,21,22,25,28,32,40]";"2";"0";"1"
"1387";"32";"9";"1";"40";"1";"2";"3";"2";"[3,14,23,26]";"2";"0";"1"
"1388";"11";"10";"1";"13";"1";"2";"3";"1";"[21,30]";"1";"0";"1"
"1389";"27";"10";"1";"32";"1";"2";"3";"1";"[6,21,26,33,36]";"1";"0";"1"
"1390";"32";"10";"1";"40";"1";"2";"3";"2";"[3,14,23,26]";"2";"0";"1"
"1391";"9";"10";"1";"21";"1";"2";"3";"2";"[5,13,16,26,28,31,32,33,36]";"2";"0";"1"
"1392";"33";"11";"1";"16";"1";"2";"3";"1";"[1,3,8,21,24]";"2";"0";"1"
"1393";"27";"11";"1";"32";"1";"2";"3";"1";"[6,21,26,33,36]";"1";"0";"1"
"1394";"9";"11";"1";"21";"1";"2";"3";"2";"[5,13,16,26,28,31,32,33,36]";"2";"0";"1"
"1395";"33";"12";"1";"16";"1";"2";"3";"1";"[1,3,8,21,24]";"2";"0";"1"
"1396";"21";"13";"1";"12";"1";"2";"3";"2";"[10,29]";"2";"0";"1"
"1397";"21";"14";"1";"12";"1";"2";"3";"2";"[10,29]";"2";"0";"1"
"1398";"26";"16";"1";"5";"1";"2";"3";"2";"[6,11,21,31]";"2";"0";"1"
"1399";"26";"17";"1";"5";"1";"2";"3";"2";"[6,11,21,31]";"2";"0";"1"
"1400";"19";"17";"1";"29";"1";"2";"3";"2";"[3,9,12,31,39]";"2";"0";"1"
"1401";"30";"17";"1";"27";"1";"2";"3";"1";"[19,22,23,24,37]";"2";"0";"1"
"1402";"17";"17";"1";"4";"1";"2";"3";"2";"[1,14,17,25]";"2";"0";"1"
"1403";"34";"17";"1";"36";"1";"2";"3";"2";"[2,21,24,32]";"1";"0";"1"
"1404";"19";"18";"1";"29";"1";"2";"3";"2";"[3,9,12,31,39]";"2";"0";"1"
"1405";"30";"18";"1";"27";"1";"2";"3";"1";"[19,22,23,24,37]";"2";"0";"1"
"1406";"17";"18";"1";"4";"1";"2";"3";"2";"[1,14,17,25]";"2";"0";"1"
"1407";"34";"18";"1";"36";"1";"2";"3";"2";"[2,21,24,32]";"1";"0";"1"
"1408";"5";"20";"1";"6";"1";"2";"3";"1";"[5,26,32]";"1";"0";"1"
"1409";"5";"21";"1";"6";"1";"2";"3";"1";"[5,26,32]";"1";"0";"1"
"1410";"2";"21";"1";"38";"1";"2";"3";"2";"[10,17]";"2";"0";"1"
"1411";"2";"22";"1";"38";"1";"2";"3";"2";"[10,17]";"2";"0";"1"
"1412";"4";"30";"1";"7";"1";"2";"3";"2";"[3,8,17,20]";"0";"0";"1"
"1413";"0";"30";"1";"7";"1";"2";"3";"2";"[3,8,17,20]";"2";"0";"0"
"1414";"15";"1";"1";"22";"1";"2";"4";"2";"[14,26,27,39]";"2";"0";"1"
"1415";"3";"2";"1";"37";"1";"2";"4";"2";"[14,27,33]";"2";"0";"1"
"1416";"40";"2";"1";"24";"1";"2";"4";"2";"[16,27,28,36]";"2";"0";"1"
"1417";"15";"2";"1";"22";"1";"2";"4";"2";"[14,26,27,39]";"2";"0";"1"
"1418";"1";"2";"1";"1";"1";"2";"4";"2";"[4,16,17]";"2";"0";"1"
"1419";"20";"2";"1";"14";"1";"2";"4";"2";"[4,8,17,22,37,40]";"2";"0";"1"
"1420";"25";"2";"1";"33";"1";"2";"4";"2";"[10,21,32,37]";"2";"0";"1"
"1421";"29";"3";"1";"23";"1";"2";"4";"2";"[18,27,40]";"2";"0";"1"
"1422";"3";"3";"1";"37";"1";"2";"4";"2";"[14,27,33]";"2";"0";"1"
"1423";"40";"3";"1";"24";"1";"2";"4";"2";"[16,27,28,36]";"2";"0";"1"
"1424";"19";"3";"1";"29";"1";"2";"4";"2";"[3,9,12,31,39]";"2";"0";"1"
"1425";"1";"3";"1";"1";"1";"2";"4";"2";"[4,16,17]";"2";"0";"1"
"1426";"14";"3";"1";"10";"1";"2";"4";"2";"[12,19,28,33,38]";"1";"0";"1"
"1427";"20";"3";"1";"14";"1";"2";"4";"2";"[4,8,17,22,37,40]";"2";"0";"1"
"1428";"25";"3";"1";"33";"1";"2";"4";"2";"[10,21,32,37]";"2";"0";"1"
"1429";"35";"3";"1";"2";"1";"2";"4";"1";"[15,36,39]";"1";"0";"1"
"1430";"6";"3";"1";"28";"1";"2";"4";"1";"[10,17,21,24,26,34]";"2";"0";"1"
"1431";"12";"3";"1";"11";"1";"2";"4";"2";"[5,15,26,35]";"2";"0";"1"
"1432";"29";"4";"1";"23";"1";"2";"4";"2";"[18,27,40]";"2";"0";"1"
"1433";"31";"4";"1";"3";"1";"2";"4";"2";"[7,15,16,20,29,40]";"2";"0";"1"
"1434";"19";"4";"1";"29";"1";"2";"4";"2";"[3,9,12,31,39]";"2";"0";"1"
"1435";"23";"4";"1";"18";"1";"2";"4";"2";"[17,23]";"2";"0";"1"
"1436";"38";"4";"1";"19";"1";"2";"4";"1";"[10,26,27,39]";"1";"0";"1"
"1437";"14";"4";"1";"10";"1";"2";"4";"2";"[12,19,28,33,38]";"1";"0";"1"
"1438";"35";"4";"1";"2";"1";"2";"4";"1";"[15,36,39]";"1";"0";"1"
"1439";"6";"4";"1";"28";"1";"2";"4";"1";"[10,17,21,24,26,34]";"2";"0";"1"
"1440";"28";"4";"1";"34";"1";"2";"4";"1";"[28]";"2";"0";"1"
"1441";"12";"4";"1";"11";"1";"2";"4";"2";"[5,15,26,35]";"2";"0";"1"
"1442";"31";"5";"1";"3";"1";"2";"4";"2";"[7,15,16,20,29,40]";"2";"0";"1"
"1443";"7";"5";"1";"25";"1";"2";"4";"1";"[4,15,17,20,26]";"2";"0";"1"
"1444";"23";"5";"1";"18";"1";"2";"4";"2";"[17,23]";"2";"0";"1"
"1445";"38";"5";"1";"19";"1";"2";"4";"1";"[10,26,27,39]";"1";"0";"1"
"1446";"30";"5";"1";"27";"1";"2";"4";"1";"[19,22,23,24,37]";"2";"0";"1"
"1447";"17";"5";"1";"4";"1";"2";"4";"2";"[1,14,17,25]";"2";"0";"1"
"1448";"28";"5";"1";"34";"1";"2";"4";"1";"[28]";"2";"0";"1"
"1449";"7";"6";"1";"25";"1";"2";"4";"1";"[4,15,17,20,26]";"2";"0";"1"
"1450";"30";"6";"1";"27";"1";"2";"4";"1";"[19,22,23,24,37]";"2";"0";"1"
"1451";"17";"6";"1";"4";"1";"2";"4";"2";"[1,14,17,25]";"2";"0";"1"
"1452";"27";"7";"1";"32";"1";"2";"4";"1";"[6,21,26,33,36]";"1";"0";"1"
"1453";"33";"7";"1";"16";"1";"2";"4";"1";"[1,3,8,21,24]";"2";"0";"1"
"1454";"24";"7";"1";"9";"1";"2";"4";"2";"[29,35]";"2";"0";"1"
"1455";"13";"7";"1";"31";"1";"2";"4";"2";"[5,21,29]";"1";"0";"1"
"1456";"4";"8";"1";"7";"1";"2";"4";"2";"[3,8,17,20]";"2";"0";"1"
"1457";"8";"8";"1";"8";"1";"2";"4";"2";"[7,14,16]";"2";"0";"1"
"1458";"27";"8";"1";"32";"1";"2";"4";"1";"[6,21,26,33,36]";"1";"0";"1"
"1459";"34";"8";"1";"36";"1";"2";"4";"2";"[2,21,24,32]";"2";"0";"1"
"1460";"33";"8";"1";"16";"1";"2";"4";"1";"[1,3,8,21,24]";"2";"0";"1"
