"id";"id_subj";"time";"session";"id_grp";"grp";"round";"period";"sig";"links";"choice";"hist";"active"
"1";"15";"0";"1";"22";"1";"1";"1";"1";"[14,26,27,39]";"0";"0";"1"
"2";"14";"0";"1";"29";"1";"1";"1";"1";"[3,9,12,31,39]";"0";"0";"1"
"3";"18";"0";"1";"9";"1";"1";"1";"2";"[29,35]";"0";"0";"1"
"4";"39";"0";"1";"5";"1";"1";"1";"2";"[6,11,21,31]";"0";"0";"1"
"5";"28";"0";"1";"1";"1";"1";"1";"2";"[4,16,17]";"0";"0";"1"
"6";"8";"0";"1";"7";"1";"1";"1";"1";"[3,8,17,20]";"0";"0";"1"
"7";"19";"0";"1";"6";"1";"1";"1";"1";"[5,26,32]";"0";"0";"1"
"8";"22";"0";"1";"25";"1";"1";"1";"1";"[4,15,17,20,26]";"0";"0";"1"
"9";"3";"0";"1";"30";"1";"1";"1";"1";"[13]";"0";"0";"1"
"10";"31";"0";"1";"18";"1";"1";"1";"2";"[17,23]";"0";"0";"1"
"11";"20";"0";"1";"36";"1";"1";"1";"1";"[2,21,24,32]";"0";"0";"1"
"12";"16";"0";"1";"13";"1";"1";"1";"1";"[21,30]";"0";"0";"1"
"13";"40";"0";"1";"39";"1";"1";"1";"1";"[2,19,22,29]";"0";"0";"1"
"14";"38";"0";"1";"4";"1";"1";"1";"1";"[1,14,17,25]";"0";"0";"1"
"15";"5";"0";"1";"33";"1";"1";"1";"1";"[10,21,32,37]";"0";"0";"1"
"16";"12";"0";"1";"38";"1";"1";"1";"1";"[10,17]";"0";"0";"1"
"17";"30";"0";"1";"37";"1";"1";"1";"2";"[14,27,33]";"0";"0";"1"
"18";"27";"0";"1";"23";"1";"1";"1";"2";"[18,27,40]";"0";"0";"1"
"19";"9";"0";"1";"24";"1";"1";"1";"1";"[16,27,28,36]";"0";"0";"1"
"20";"33";"0";"1";"15";"1";"1";"1";"2";"[2,3,11,25]";"0";"0";"1"
"21";"11";"0";"1";"17";"1";"1";"1";"1";"[1,4,7,14,18,25,28,38]";"0";"0";"1"
"22";"32";"0";"1";"21";"1";"1";"1";"2";"[5,13,16,26,28,31,32,33,36]";"0";"0";"1"
"23";"35";"0";"1";"35";"1";"1";"1";"1";"[9,11]";"0";"0";"1"
"24";"25";"0";"1";"26";"1";"1";"1";"1";"[6,11,19,21,22,25,28,32,40]";"0";"0";"1"
"25";"6";"0";"1";"28";"1";"1";"1";"1";"[10,17,21,24,26,34]";"0";"0";"1"
"26";"23";"0";"1";"10";"1";"1";"1";"1";"[12,19,28,33,38]";"0";"0";"1"
"27";"37";"0";"1";"8";"1";"1";"1";"1";"[7,14,16]";"0";"0";"1"
"28";"21";"0";"1";"34";"1";"1";"1";"2";"[28]";"0";"0";"1"
"29";"1";"0";"1";"32";"1";"1";"1";"1";"[6,21,26,33,36]";"0";"0";"1"
"30";"26";"0";"1";"11";"1";"1";"1";"1";"[5,15,26,35]";"0";"0";"1"
"31";"24";"0";"1";"16";"1";"1";"1";"2";"[1,3,8,21,24]";"0";"0";"1"
"32";"7";"0";"1";"12";"1";"1";"1";"1";"[10,29]";"0";"0";"1"
"33";"4";"0";"1";"40";"1";"1";"1";"1";"[3,14,23,26]";"0";"0";"1"
"34";"13";"0";"1";"14";"1";"1";"1";"1";"[4,8,17,22,37,40]";"0";"0";"1"
"35";"29";"0";"1";"2";"1";"1";"1";"1";"[15,36,39]";"0";"0";"1"
"36";"10";"0";"1";"19";"1";"1";"1";"1";"[10,26,27,39]";"0";"0";"1"
"37";"2";"0";"1";"3";"1";"1";"1";"1";"[7,15,16,20,29,40]";"0";"0";"1"
"38";"34";"0";"1";"27";"1";"1";"1";"1";"[19,22,23,24,37]";"0";"0";"1"
"39";"17";"0";"1";"31";"1";"1";"1";"1";"[5,21,29]";"0";"0";"1"
"40";"36";"0";"1";"20";"1";"1";"1";"1";"[3,7,25]";"0";"0";"1"
"41";"11";"5";"1";"17";"1";"1";"1";"1";"[1,4,7,14,18,25,28,38]";"1";"0";"1"
"42";"21";"6";"1";"34";"1";"1";"1";"2";"[28]";"2";"0";"1"
"43";"15";"6";"1";"22";"1";"1";"1";"1";"[14,26,27,39]";"1";"0";"1"
"44";"28";"6";"1";"1";"1";"1";"1";"2";"[4,16,17]";"2";"0";"1"
"45";"11";"6";"1";"17";"1";"1";"1";"1";"[1,4,7,14,18,25,28,38]";"1";"0";"1"
"46";"5";"6";"1";"33";"1";"1";"1";"1";"[10,21,32,37]";"1";"0";"1"
"47";"31";"6";"1";"18";"1";"1";"1";"2";"[17,23]";"2";"0";"1"
"48";"21";"7";"1";"34";"1";"1";"1";"2";"[28]";"2";"0";"1"
"49";"15";"7";"1";"22";"1";"1";"1";"1";"[14,26,27,39]";"1";"0";"1"
"50";"28";"7";"1";"1";"1";"1";"1";"2";"[4,16,17]";"2";"0";"1"
"51";"8";"7";"1";"7";"1";"1";"1";"1";"[3,8,17,20]";"1";"0";"1"
"52";"32";"7";"1";"21";"1";"1";"1";"2";"[5,13,16,26,28,31,32,33,36]";"2";"0";"1"
"53";"33";"7";"1";"15";"1";"1";"1";"2";"[2,3,11,25]";"2";"0";"1"
"54";"7";"7";"1";"12";"1";"1";"1";"1";"[10,29]";"1";"0";"1"
"55";"30";"7";"1";"37";"1";"1";"1";"2";"[14,27,33]";"2";"0";"1"
"56";"5";"7";"1";"33";"1";"1";"1";"1";"[10,21,32,37]";"1";"0";"1"
"57";"35";"7";"1";"35";"1";"1";"1";"1";"[9,11]";"1";"0";"1"
"58";"31";"7";"1";"18";"1";"1";"1";"2";"[17,23]";"2";"0";"1"
"59";"40";"7";"1";"39";"1";"1";"1";"1";"[2,19,22,29]";"1";"0";"1"
"60";"8";"8";"1";"7";"1";"1";"1";"1";"[3,8,17,20]";"1";"0";"1"
"61";"32";"8";"1";"21";"1";"1";"1";"2";"[5,13,16,26,28,31,32,33,36]";"2";"0";"1"
"62";"33";"8";"1";"15";"1";"1";"1";"2";"[2,3,11,25]";"2";"0";"1"
"63";"37";"8";"1";"8";"1";"1";"1";"1";"[7,14,16]";"1";"0";"1"
"64";"14";"8";"1";"29";"1";"1";"1";"1";"[3,9,12,31,39]";"1";"0";"1"
"65";"7";"8";"1";"12";"1";"1";"1";"1";"[10,29]";"1";"0";"1"
"66";"30";"8";"1";"37";"1";"1";"1";"2";"[14,27,33]";"2";"0";"1"
"67";"35";"8";"1";"35";"1";"1";"1";"1";"[9,11]";"1";"0";"1"
"68";"24";"8";"1";"16";"1";"1";"1";"2";"[1,3,8,21,24]";"2";"0";"1"
"69";"40";"8";"1";"39";"1";"1";"1";"1";"[2,19,22,29]";"1";"0";"1"
"70";"9";"8";"1";"24";"1";"1";"1";"1";"[16,27,28,36]";"1";"0";"1"
"71";"2";"8";"1";"3";"1";"1";"1";"1";"[7,15,16,20,29,40]";"1";"0";"1"
"72";"3";"9";"1";"30";"1";"1";"1";"1";"[13]";"1";"0";"1"
"73";"10";"9";"1";"19";"1";"1";"1";"1";"[10,26,27,39]";"1";"0";"1"
"74";"1";"9";"1";"32";"1";"1";"1";"1";"[6,21,26,33,36]";"1";"0";"1"
"75";"37";"9";"1";"8";"1";"1";"1";"1";"[7,14,16]";"1";"0";"1"
"76";"14";"9";"1";"29";"1";"1";"1";"1";"[3,9,12,31,39]";"1";"0";"1"
"77";"24";"9";"1";"16";"1";"1";"1";"2";"[1,3,8,21,24]";"2";"0";"1"
"78";"9";"9";"1";"24";"1";"1";"1";"1";"[16,27,28,36]";"1";"0";"1"
"79";"27";"9";"1";"23";"1";"1";"1";"2";"[18,27,40]";"2";"0";"1"
"80";"2";"9";"1";"3";"1";"1";"1";"1";"[7,15,16,20,29,40]";"1";"0";"1"
"81";"3";"10";"1";"30";"1";"1";"1";"1";"[13]";"1";"0";"1"
"82";"10";"10";"1";"19";"1";"1";"1";"1";"[10,26,27,39]";"1";"0";"1"
"83";"1";"10";"1";"32";"1";"1";"1";"1";"[6,21,26,33,36]";"1";"0";"1"
"84";"17";"10";"1";"31";"1";"1";"1";"1";"[5,21,29]";"2";"0";"1"
"85";"26";"10";"1";"11";"1";"1";"1";"1";"[5,15,26,35]";"1";"0";"1"
"86";"18";"10";"1";"9";"1";"1";"1";"2";"[29,35]";"2";"0";"1"
"87";"27";"10";"1";"23";"1";"1";"1";"2";"[18,27,40]";"2";"0";"1"
"88";"25";"11";"1";"26";"1";"1";"1";"1";"[6,11,19,21,22,25,28,32,40]";"1";"0";"1"
"89";"17";"11";"1";"31";"1";"1";"1";"1";"[5,21,29]";"2";"0";"1"
"90";"26";"11";"1";"11";"1";"1";"1";"1";"[5,15,26,35]";"1";"0";"1"
"91";"18";"11";"1";"9";"1";"1";"1";"2";"[29,35]";"2";"0";"1"
"92";"29";"11";"1";"2";"1";"1";"1";"1";"[15,36,39]";"1";"0";"1"
"93";"16";"11";"1";"13";"1";"1";"1";"1";"[21,30]";"1";"0";"1"
"94";"25";"12";"1";"26";"1";"1";"1";"1";"[6,11,19,21,22,25,28,32,40]";"1";"0";"1"
"95";"39";"12";"1";"5";"1";"1";"1";"2";"[6,11,21,31]";"2";"0";"1"
"96";"19";"12";"1";"6";"1";"1";"1";"1";"[5,26,32]";"1";"0";"1"
"97";"16";"12";"1";"13";"1";"1";"1";"1";"[21,30]";"1";"0";"1"
"98";"29";"12";"1";"2";"1";"1";"1";"1";"[15,36,39]";"1";"0";"1"
"99";"6";"13";"1";"28";"1";"1";"1";"1";"[10,17,21,24,26,34]";"1";"0";"1"
"100";"39";"13";"1";"5";"1";"1";"1";"2";"[6,11,21,31]";"2";"0";"1"
"101";"19";"13";"1";"6";"1";"1";"1";"1";"[5,26,32]";"1";"0";"1"
"102";"6";"14";"1";"28";"1";"1";"1";"1";"[10,17,21,24,26,34]";"1";"0";"1"
"103";"23";"14";"1";"10";"1";"1";"1";"1";"[12,19,28,33,38]";"2";"0";"1"
"104";"4";"14";"1";"40";"1";"1";"1";"1";"[3,14,23,26]";"1";"0";"1"
"105";"38";"14";"1";"4";"1";"1";"1";"1";"[1,14,17,25]";"1";"0";"1"
"106";"23";"15";"1";"10";"1";"1";"1";"1";"[12,19,28,33,38]";"2";"0";"1"
"107";"4";"15";"1";"40";"1";"1";"1";"1";"[3,14,23,26]";"1";"0";"1"
"108";"38";"15";"1";"4";"1";"1";"1";"1";"[1,14,17,25]";"1";"0";"1"
"109";"22";"16";"1";"25";"1";"1";"1";"1";"[4,15,17,20,26]";"2";"0";"1"
"110";"22";"17";"1";"25";"1";"1";"1";"1";"[4,15,17,20,26]";"2";"0";"1"
"111";"13";"17";"1";"14";"1";"1";"1";"1";"[4,8,17,22,37,40]";"1";"0";"1"
"112";"13";"18";"1";"14";"1";"1";"1";"1";"[4,8,17,22,37,40]";"1";"0";"1"
"113";"36";"19";"1";"20";"1";"1";"1";"1";"[3,7,25]";"1";"0";"1"
"114";"36";"20";"1";"20";"1";"1";"1";"1";"[3,7,25]";"1";"0";"1"
"115";"20";"21";"1";"36";"1";"1";"1";"1";"[2,21,24,32]";"1";"0";"1"
"116";"34";"22";"1";"27";"1";"1";"1";"1";"[19,22,23,24,37]";"1";"0";"1"
"117";"20";"22";"1";"36";"1";"1";"1";"1";"[2,21,24,32]";"1";"0";"1"
"118";"34";"23";"1";"27";"1";"1";"1";"1";"[19,22,23,24,37]";"1";"0";"1"
"119";"12";"23";"1";"38";"1";"1";"1";"1";"[10,17]";"1";"0";"1"
"120";"12";"24";"1";"38";"1";"1";"1";"1";"[10,17]";"1";"0";"1"
"121";"40";"4";"1";"39";"1";"1";"2";"1";"[2,19,22,29]";"1";"0";"1"
"122";"8";"4";"1";"7";"1";"1";"2";"1";"[3,8,17,20]";"1";"0";"1"
"123";"28";"5";"1";"1";"1";"1";"2";"2";"[4,16,17]";"2";"0";"1"
"124";"12";"5";"1";"38";"1";"1";"2";"1";"[10,17]";"1";"0";"1"
"125";"40";"5";"1";"39";"1";"1";"2";"1";"[2,19,22,29]";"1";"0";"1"
"126";"10";"5";"1";"19";"1";"1";"2";"1";"[10,26,27,39]";"1";"0";"1"
"127";"8";"5";"1";"7";"1";"1";"2";"1";"[3,8,17,20]";"1";"0";"1"
"128";"17";"5";"1";"31";"1";"1";"2";"1";"[5,21,29]";"2";"0";"1"
"129";"28";"6";"1";"1";"1";"1";"2";"2";"[4,16,17]";"2";"0";"1"
"130";"12";"6";"1";"38";"1";"1";"2";"1";"[10,17]";"1";"0";"1"
"131";"10";"6";"1";"19";"1";"1";"2";"1";"[10,26,27,39]";"1";"0";"1"
"132";"7";"6";"1";"12";"1";"1";"2";"1";"[10,29]";"1";"0";"1"
"133";"9";"6";"1";"24";"1";"1";"2";"1";"[16,27,28,36]";"1";"0";"1"
"134";"17";"6";"1";"31";"1";"1";"2";"1";"[5,21,29]";"2";"0";"1"
"135";"14";"6";"1";"29";"1";"1";"2";"1";"[3,9,12,31,39]";"1";"0";"1"
"136";"31";"6";"1";"18";"1";"1";"2";"2";"[17,23]";"2";"0";"1"
"137";"5";"7";"1";"33";"1";"1";"2";"1";"[10,21,32,37]";"2";"0";"1"
"138";"7";"7";"1";"12";"1";"1";"2";"1";"[10,29]";"1";"0";"1"
"139";"9";"7";"1";"24";"1";"1";"2";"1";"[16,27,28,36]";"1";"0";"1"
"140";"19";"7";"1";"6";"1";"1";"2";"1";"[5,26,32]";"1";"0";"1"
"141";"14";"7";"1";"29";"1";"1";"2";"1";"[3,9,12,31,39]";"1";"0";"1"
"142";"31";"7";"1";"18";"1";"1";"2";"2";"[17,23]";"2";"0";"1"
"143";"5";"8";"1";"33";"1";"1";"2";"1";"[10,21,32,37]";"2";"0";"1"
"144";"1";"8";"1";"32";"1";"1";"2";"1";"[6,21,26,33,36]";"1";"0";"1"
"145";"22";"8";"1";"25";"1";"1";"2";"1";"[4,15,17,20,26]";"1";"0";"1"
"146";"19";"8";"1";"6";"1";"1";"2";"1";"[5,26,32]";"1";"0";"1"
"147";"15";"8";"1";"22";"1";"1";"2";"1";"[14,26,27,39]";"1";"0";"1"
"148";"3";"9";"1";"30";"1";"1";"2";"1";"[13]";"1";"0";"1"
"149";"1";"9";"1";"32";"1";"1";"2";"1";"[6,21,26,33,36]";"1";"0";"1"
"150";"21";"9";"1";"34";"1";"1";"2";"2";"[28]";"2";"0";"1"
"151";"22";"9";"1";"25";"1";"1";"2";"1";"[4,15,17,20,26]";"1";"0";"1"
"152";"26";"9";"1";"11";"1";"1";"2";"1";"[5,15,26,35]";"1";"0";"1"
"153";"15";"9";"1";"22";"1";"1";"2";"1";"[14,26,27,39]";"1";"0";"1"
"154";"3";"10";"1";"30";"1";"1";"2";"1";"[13]";"1";"0";"1"
"155";"2";"10";"1";"3";"1";"1";"2";"1";"[7,15,16,20,29,40]";"1";"0";"1"
"156";"37";"10";"1";"8";"1";"1";"2";"1";"[7,14,16]";"1";"0";"1"
"157";"21";"10";"1";"34";"1";"1";"2";"2";"[28]";"2";"0";"1"
"158";"26";"10";"1";"11";"1";"1";"2";"1";"[5,15,26,35]";"1";"0";"1"
"159";"35";"10";"1";"35";"1";"1";"2";"1";"[9,11]";"1";"0";"1"
"160";"27";"10";"1";"23";"1";"1";"2";"2";"[18,27,40]";"2";"0";"1"
"161";"2";"11";"1";"3";"1";"1";"2";"1";"[7,15,16,20,29,40]";"1";"0";"1"
"162";"24";"11";"1";"16";"1";"1";"2";"2";"[1,3,8,21,24]";"2";"0";"1"
"163";"37";"11";"1";"8";"1";"1";"2";"1";"[7,14,16]";"1";"0";"1"
"164";"35";"11";"1";"35";"1";"1";"2";"1";"[9,11]";"1";"0";"1"
"165";"27";"11";"1";"23";"1";"1";"2";"2";"[18,27,40]";"2";"0";"1"
"166";"33";"12";"1";"15";"1";"1";"2";"2";"[2,3,11,25]";"2";"0";"1"
"167";"24";"12";"1";"16";"1";"1";"2";"2";"[1,3,8,21,24]";"2";"0";"1"
"168";"20";"12";"1";"36";"1";"1";"2";"1";"[2,21,24,32]";"1";"0";"1"
"169";"11";"12";"1";"17";"1";"1";"2";"1";"[1,4,7,14,18,25,28,38]";"1";"0";"1"
"170";"25";"12";"1";"26";"1";"1";"2";"1";"[6,11,19,21,22,25,28,32,40]";"1";"0";"1"
"171";"6";"13";"1";"28";"1";"1";"2";"1";"[10,17,21,24,26,34]";"1";"0";"1"
"172";"33";"13";"1";"15";"1";"1";"2";"2";"[2,3,11,25]";"2";"0";"1"
"173";"20";"13";"1";"36";"1";"1";"2";"1";"[2,21,24,32]";"1";"0";"1"
"174";"11";"13";"1";"17";"1";"1";"2";"1";"[1,4,7,14,18,25,28,38]";"1";"0";"1"
"175";"25";"13";"1";"26";"1";"1";"2";"1";"[6,11,19,21,22,25,28,32,40]";"1";"0";"1"
"176";"6";"14";"1";"28";"1";"1";"2";"1";"[10,17,21,24,26,34]";"1";"0";"1"
"177";"38";"14";"1";"4";"1";"1";"2";"1";"[1,14,17,25]";"1";"0";"1"
"178";"39";"14";"1";"5";"1";"1";"2";"2";"[6,11,21,31]";"2";"0";"1"
"179";"13";"14";"1";"14";"1";"1";"2";"1";"[4,8,17,22,37,40]";"1";"0";"1"
"180";"18";"15";"1";"9";"1";"1";"2";"2";"[29,35]";"2";"0";"1"
"181";"38";"15";"1";"4";"1";"1";"2";"1";"[1,14,17,25]";"1";"0";"1"
"182";"29";"15";"1";"2";"1";"1";"2";"1";"[15,36,39]";"1";"0";"1"
"183";"39";"15";"1";"5";"1";"1";"2";"2";"[6,11,21,31]";"2";"0";"1"
"184";"13";"15";"1";"14";"1";"1";"2";"1";"[4,8,17,22,37,40]";"1";"0";"1"
"185";"18";"16";"1";"9";"1";"1";"2";"2";"[29,35]";"2";"0";"1"
"186";"29";"16";"1";"2";"1";"1";"2";"1";"[15,36,39]";"1";"0";"1"
"187";"16";"18";"1";"13";"1";"1";"2";"1";"[21,30]";"1";"0";"1"
"188";"16";"19";"1";"13";"1";"1";"2";"1";"[21,30]";"1";"0";"1"
"189";"30";"20";"1";"37";"1";"1";"2";"2";"[14,27,33]";"1";"0";"1"
"190";"30";"21";"1";"37";"1";"1";"2";"2";"[14,27,33]";"1";"0";"1"
"191";"4";"24";"1";"40";"1";"1";"2";"1";"[3,14,23,26]";"1";"0";"1"
"192";"23";"24";"1";"10";"1";"1";"2";"1";"[12,19,28,33,38]";"2";"0";"1"
"193";"34";"24";"1";"27";"1";"1";"2";"1";"[19,22,23,24,37]";"1";"0";"1"
"194";"36";"24";"1";"20";"1";"1";"2";"1";"[3,7,25]";"1";"0";"1"
"195";"4";"25";"1";"40";"1";"1";"2";"1";"[3,14,23,26]";"1";"0";"1"
"196";"23";"25";"1";"10";"1";"1";"2";"1";"[12,19,28,33,38]";"2";"0";"1"
"197";"34";"25";"1";"27";"1";"1";"2";"1";"[19,22,23,24,37]";"1";"0";"1"
"198";"36";"25";"1";"20";"1";"1";"2";"1";"[3,7,25]";"1";"0";"1"
"199";"32";"26";"1";"21";"1";"1";"2";"2";"[5,13,16,26,28,31,32,33,36]";"1";"0";"1"
"200";"32";"27";"1";"21";"1";"1";"2";"2";"[5,13,16,26,28,31,32,33,36]";"1";"0";"1"
"201";"40";"3";"1";"39";"1";"1";"3";"1";"[2,19,22,29]";"1";"0";"1"
"202";"30";"3";"1";"37";"1";"1";"3";"2";"[14,27,33]";"0";"1";"1"
"203";"7";"3";"1";"12";"1";"1";"3";"1";"[10,29]";"1";"0";"1"
"204";"10";"3";"1";"19";"1";"1";"3";"1";"[10,26,27,39]";"1";"0";"1"
"205";"36";"4";"1";"20";"1";"1";"3";"1";"[3,7,25]";"1";"0";"1"
"206";"40";"4";"1";"39";"1";"1";"3";"1";"[2,19,22,29]";"1";"0";"1"
"207";"3";"4";"1";"30";"1";"1";"3";"1";"[13]";"1";"0";"1"
"208";"5";"4";"1";"33";"1";"1";"3";"1";"[10,21,32,37]";"1";"0";"1"
"209";"7";"4";"1";"12";"1";"1";"3";"1";"[10,29]";"1";"0";"1"
"210";"15";"4";"1";"22";"1";"1";"3";"1";"[14,26,27,39]";"1";"0";"1"
"211";"6";"4";"1";"28";"1";"1";"3";"1";"[10,17,21,24,26,34]";"1";"0";"1"
"212";"10";"4";"1";"19";"1";"1";"3";"1";"[10,26,27,39]";"1";"0";"1"
"213";"9";"4";"1";"24";"1";"1";"3";"1";"[16,27,28,36]";"1";"0";"1"
"214";"30";"4";"1";"37";"1";"1";"3";"2";"[14,27,33]";"0";"2";"1"
"215";"36";"5";"1";"20";"1";"1";"3";"1";"[3,7,25]";"1";"0";"1"
"216";"3";"5";"1";"30";"1";"1";"3";"1";"[13]";"1";"0";"1"
"217";"5";"5";"1";"33";"1";"1";"3";"1";"[10,21,32,37]";"1";"0";"1"
"218";"20";"5";"1";"36";"1";"1";"3";"1";"[2,21,24,32]";"1";"0";"1"
"219";"15";"5";"1";"22";"1";"1";"3";"1";"[14,26,27,39]";"1";"0";"1"
"220";"6";"5";"1";"28";"1";"1";"3";"1";"[10,17,21,24,26,34]";"1";"0";"1"
"221";"28";"5";"1";"1";"1";"1";"3";"2";"[4,16,17]";"2";"0";"1"
"222";"33";"5";"1";"15";"1";"1";"3";"2";"[2,3,11,25]";"1";"0";"1"
"223";"9";"5";"1";"24";"1";"1";"3";"1";"[16,27,28,36]";"1";"0";"1"
"224";"17";"6";"1";"31";"1";"1";"3";"1";"[5,21,29]";"2";"0";"1"
"225";"26";"6";"1";"11";"1";"1";"3";"1";"[5,15,26,35]";"1";"0";"1"
"226";"14";"6";"1";"29";"1";"1";"3";"1";"[3,9,12,31,39]";"1";"0";"1"
"227";"24";"6";"1";"16";"1";"1";"3";"2";"[1,3,8,21,24]";"2";"0";"1"
"228";"8";"6";"1";"7";"1";"1";"3";"1";"[3,8,17,20]";"0";"1";"1"
"229";"20";"6";"1";"36";"1";"1";"3";"1";"[2,21,24,32]";"1";"0";"1"
"230";"28";"6";"1";"1";"1";"1";"3";"2";"[4,16,17]";"2";"0";"1"
"231";"1";"6";"1";"32";"1";"1";"3";"1";"[6,21,26,33,36]";"1";"0";"1"
"232";"33";"6";"1";"15";"1";"1";"3";"2";"[2,3,11,25]";"1";"0";"1"
"233";"17";"7";"1";"31";"1";"1";"3";"1";"[5,21,29]";"2";"0";"1"
"234";"18";"7";"1";"9";"1";"1";"3";"2";"[29,35]";"2";"0";"1"
"235";"26";"7";"1";"11";"1";"1";"3";"1";"[5,15,26,35]";"1";"0";"1"
"236";"14";"7";"1";"29";"1";"1";"3";"1";"[3,9,12,31,39]";"1";"0";"1"
"237";"24";"7";"1";"16";"1";"1";"3";"2";"[1,3,8,21,24]";"2";"0";"1"
"238";"38";"7";"1";"4";"1";"1";"3";"1";"[1,14,17,25]";"1";"0";"1"
"239";"1";"7";"1";"32";"1";"1";"3";"1";"[6,21,26,33,36]";"1";"0";"1"
"240";"27";"7";"1";"23";"1";"1";"3";"2";"[18,27,40]";"2";"0";"1"
"241";"12";"7";"1";"38";"1";"1";"3";"1";"[10,17]";"1";"0";"1"
"242";"18";"8";"1";"9";"1";"1";"3";"2";"[29,35]";"2";"0";"1"
"243";"38";"8";"1";"4";"1";"1";"3";"1";"[1,14,17,25]";"1";"0";"1"
"244";"31";"8";"1";"18";"1";"1";"3";"2";"[17,23]";"1";"0";"1"
"245";"27";"8";"1";"23";"1";"1";"3";"2";"[18,27,40]";"2";"0";"1"
"246";"12";"8";"1";"38";"1";"1";"3";"1";"[10,17]";"1";"0";"1"
"247";"39";"9";"1";"5";"1";"1";"3";"2";"[6,11,21,31]";"2";"0";"1"
"248";"16";"9";"1";"13";"1";"1";"3";"1";"[21,30]";"1";"0";"1"
"249";"8";"9";"1";"7";"1";"1";"3";"1";"[3,8,17,20]";"0";"3";"1"
"250";"31";"9";"1";"18";"1";"1";"3";"2";"[17,23]";"1";"0";"1"
"251";"39";"10";"1";"5";"1";"1";"3";"2";"[6,11,21,31]";"2";"0";"1"
"252";"16";"10";"1";"13";"1";"1";"3";"1";"[21,30]";"1";"0";"1"
"253";"37";"10";"1";"8";"1";"1";"3";"1";"[7,14,16]";"1";"0";"1"
"254";"37";"11";"1";"8";"1";"1";"3";"1";"[7,14,16]";"1";"0";"1"
"255";"19";"12";"1";"6";"1";"1";"3";"1";"[5,26,32]";"1";"0";"1"
"256";"8";"12";"1";"7";"1";"1";"3";"1";"[3,8,17,20]";"1";"3";"1"
"257";"13";"12";"1";"14";"1";"1";"3";"1";"[4,8,17,22,37,40]";"1";"0";"1"
"258";"21";"12";"1";"34";"1";"1";"3";"2";"[28]";"2";"0";"1"
"259";"22";"12";"1";"25";"1";"1";"3";"1";"[4,15,17,20,26]";"1";"0";"1"
"260";"19";"13";"1";"6";"1";"1";"3";"1";"[5,26,32]";"1";"0";"1"
"261";"11";"13";"1";"17";"1";"1";"3";"1";"[1,4,7,14,18,25,28,38]";"2";"0";"1"
"262";"8";"13";"1";"7";"1";"1";"3";"1";"[3,8,17,20]";"1";"3";"1"
"263";"25";"13";"1";"26";"1";"1";"3";"1";"[6,11,19,21,22,25,28,32,40]";"1";"0";"1"
"264";"13";"13";"1";"14";"1";"1";"3";"1";"[4,8,17,22,37,40]";"1";"0";"1"
"265";"21";"13";"1";"34";"1";"1";"3";"2";"[28]";"2";"0";"1"
"266";"22";"13";"1";"25";"1";"1";"3";"1";"[4,15,17,20,26]";"1";"0";"1"
"267";"11";"14";"1";"17";"1";"1";"3";"1";"[1,4,7,14,18,25,28,38]";"2";"0";"1"
"268";"25";"14";"1";"26";"1";"1";"3";"1";"[6,11,19,21,22,25,28,32,40]";"1";"0";"1"
"269";"29";"16";"1";"2";"1";"1";"3";"1";"[15,36,39]";"1";"0";"1"
"270";"29";"17";"1";"2";"1";"1";"3";"1";"[15,36,39]";"1";"0";"1"
"271";"35";"18";"1";"35";"1";"1";"3";"1";"[9,11]";"2";"0";"1"
"272";"35";"19";"1";"35";"1";"1";"3";"1";"[9,11]";"2";"0";"1"
"273";"4";"19";"1";"40";"1";"1";"3";"1";"[3,14,23,26]";"1";"0";"1"
"274";"4";"21";"1";"40";"1";"1";"3";"1";"[3,14,23,26]";"1";"0";"1"
"275";"32";"21";"1";"21";"1";"1";"3";"2";"[5,13,16,26,28,31,32,33,36]";"1";"0";"1"
"276";"30";"22";"1";"37";"1";"1";"3";"2";"[14,27,33]";"1";"2";"1"
"277";"23";"22";"1";"10";"1";"1";"3";"1";"[12,19,28,33,38]";"2";"0";"1"
"278";"32";"22";"1";"21";"1";"1";"3";"2";"[5,13,16,26,28,31,32,33,36]";"1";"0";"1"
"279";"13";"22";"1";"14";"1";"1";"3";"1";"[4,8,17,22,37,40]";"1";"1";"1"
"280";"34";"22";"1";"27";"1";"1";"3";"1";"[19,22,23,24,37]";"1";"0";"1"
"281";"30";"23";"1";"37";"1";"1";"3";"2";"[14,27,33]";"1";"2";"1"
"282";"23";"23";"1";"10";"1";"1";"3";"1";"[12,19,28,33,38]";"2";"0";"1"
"283";"2";"23";"1";"3";"1";"1";"3";"1";"[7,15,16,20,29,40]";"1";"0";"1"
"284";"34";"23";"1";"27";"1";"1";"3";"1";"[19,22,23,24,37]";"1";"0";"1"
"285";"13";"24";"1";"14";"1";"1";"3";"1";"[4,8,17,22,37,40]";"1";"2";"1"
"286";"2";"24";"1";"3";"1";"1";"3";"1";"[7,15,16,20,29,40]";"1";"0";"1"
"287";"35";"2";"1";"35";"1";"1";"4";"1";"[9,11]";"1";"0";"1"
"288";"40";"2";"1";"39";"1";"1";"4";"1";"[2,19,22,29]";"1";"0";"1"
"289";"5";"3";"1";"33";"1";"1";"4";"1";"[10,21,32,37]";"1";"0";"1"
"290";"31";"3";"1";"18";"1";"1";"4";"2";"[17,23]";"2";"0";"1"
"291";"10";"3";"1";"19";"1";"1";"4";"1";"[10,26,27,39]";"1";"0";"1"
"292";"35";"3";"1";"35";"1";"1";"4";"1";"[9,11]";"1";"0";"1"
"293";"14";"3";"1";"29";"1";"1";"4";"1";"[3,9,12,31,39]";"1";"0";"1"
"294";"28";"3";"1";"1";"1";"1";"4";"2";"[4,16,17]";"2";"0";"1"
"295";"40";"3";"1";"39";"1";"1";"4";"1";"[2,19,22,29]";"1";"0";"1"
"296";"15";"3";"1";"22";"1";"1";"4";"1";"[14,26,27,39]";"1";"0";"1"
"297";"36";"3";"1";"20";"1";"1";"4";"1";"[3,7,25]";"1";"0";"1"
"298";"12";"3";"1";"38";"1";"1";"4";"1";"[10,17]";"2";"0";"1"
"299";"1";"3";"1";"32";"1";"1";"4";"1";"[6,21,26,33,36]";"1";"0";"1"
"300";"5";"4";"1";"33";"1";"1";"4";"1";"[10,21,32,37]";"1";"0";"1"
"301";"6";"4";"1";"28";"1";"1";"4";"1";"[10,17,21,24,26,34]";"2";"0";"1"
"302";"31";"4";"1";"18";"1";"1";"4";"2";"[17,23]";"2";"0";"1"
"303";"10";"4";"1";"19";"1";"1";"4";"1";"[10,26,27,39]";"1";"0";"1"
"304";"14";"4";"1";"29";"1";"1";"4";"1";"[3,9,12,31,39]";"1";"0";"1"
"305";"28";"4";"1";"1";"1";"1";"4";"2";"[4,16,17]";"2";"0";"1"
"306";"15";"4";"1";"22";"1";"1";"4";"1";"[14,26,27,39]";"1";"0";"1"
"307";"36";"4";"1";"20";"1";"1";"4";"1";"[3,7,25]";"1";"0";"1"
"308";"12";"4";"1";"38";"1";"1";"4";"1";"[10,17]";"2";"0";"1"
"309";"1";"4";"1";"32";"1";"1";"4";"1";"[6,21,26,33,36]";"1";"0";"1"
"310";"7";"4";"1";"12";"1";"1";"4";"1";"[10,29]";"1";"0";"1"
"311";"6";"5";"1";"28";"1";"1";"4";"1";"[10,17,21,24,26,34]";"2";"0";"1"
"312";"7";"5";"1";"12";"1";"1";"4";"1";"[10,29]";"1";"0";"1"
"313";"17";"6";"1";"31";"1";"1";"4";"1";"[5,21,29]";"2";"0";"1"
"314";"33";"6";"1";"15";"1";"1";"4";"2";"[2,3,11,25]";"1";"0";"1"
"315";"29";"6";"1";"2";"1";"1";"4";"1";"[15,36,39]";"1";"0";"1"
"316";"16";"6";"1";"13";"1";"1";"4";"1";"[21,30]";"0";"1";"1"
"317";"11";"6";"1";"17";"1";"1";"4";"1";"[1,4,7,14,18,25,28,38]";"1";"0";"1"
"318";"22";"6";"1";"25";"1";"1";"4";"1";"[4,15,17,20,26]";"2";"0";"1"
"319";"3";"6";"1";"30";"1";"1";"4";"1";"[13]";"1";"0";"1"
"320";"17";"7";"1";"31";"1";"1";"4";"1";"[5,21,29]";"2";"0";"1"
"321";"24";"7";"1";"16";"1";"1";"4";"2";"[1,3,8,21,24]";"2";"0";"1"
"322";"33";"7";"1";"15";"1";"1";"4";"2";"[2,3,11,25]";"1";"0";"1"
"323";"29";"7";"1";"2";"1";"1";"4";"1";"[15,36,39]";"1";"0";"1"
"324";"16";"7";"1";"13";"1";"1";"4";"1";"[21,30]";"0";"2";"1"
"325";"11";"7";"1";"17";"1";"1";"4";"1";"[1,4,7,14,18,25,28,38]";"1";"0";"1"
"326";"37";"7";"1";"8";"1";"1";"4";"1";"[7,14,16]";"1";"0";"1"
"327";"22";"7";"1";"25";"1";"1";"4";"1";"[4,15,17,20,26]";"2";"0";"1"
"328";"3";"7";"1";"30";"1";"1";"4";"1";"[13]";"1";"0";"1"
"329";"20";"8";"1";"36";"1";"1";"4";"1";"[2,21,24,32]";"1";"0";"1"
"330";"19";"8";"1";"6";"1";"1";"4";"1";"[5,26,32]";"1";"0";"1"
"331";"25";"8";"1";"26";"1";"1";"4";"1";"[6,11,19,21,22,25,28,32,40]";"1";"0";"1"
"332";"9";"8";"1";"24";"1";"1";"4";"1";"[16,27,28,36]";"1";"0";"1"
"333";"24";"8";"1";"16";"1";"1";"4";"2";"[1,3,8,21,24]";"2";"0";"1"
"334";"2";"8";"1";"3";"1";"1";"4";"1";"[7,15,16,20,29,40]";"1";"0";"1"
"335";"26";"8";"1";"11";"1";"1";"4";"1";"[5,15,26,35]";"1";"0";"1"
"336";"37";"8";"1";"8";"1";"1";"4";"1";"[7,14,16]";"1";"0";"1"
"337";"30";"9";"1";"37";"1";"1";"4";"2";"[14,27,33]";"1";"0";"1"
"338";"20";"9";"1";"36";"1";"1";"4";"1";"[2,21,24,32]";"1";"0";"1"
"339";"19";"9";"1";"6";"1";"1";"4";"1";"[5,26,32]";"1";"0";"1"
"340";"25";"9";"1";"26";"1";"1";"4";"1";"[6,11,19,21,22,25,28,32,40]";"1";"0";"1"
"341";"39";"9";"1";"5";"1";"1";"4";"2";"[6,11,21,31]";"1";"0";"1"
"342";"9";"9";"1";"24";"1";"1";"4";"1";"[16,27,28,36]";"1";"0";"1"
"343";"16";"9";"1";"13";"1";"1";"4";"1";"[21,30]";"0";"4";"1"
"344";"2";"9";"1";"3";"1";"1";"4";"1";"[7,15,16,20,29,40]";"1";"0";"1"
"345";"26";"9";"1";"11";"1";"1";"4";"1";"[5,15,26,35]";"1";"0";"1"
"346";"30";"10";"1";"37";"1";"1";"4";"2";"[14,27,33]";"1";"0";"1"
"347";"39";"10";"1";"5";"1";"1";"4";"2";"[6,11,21,31]";"1";"0";"1"
"348";"16";"10";"1";"13";"1";"1";"4";"1";"[21,30]";"1";"4";"1"
"349";"16";"11";"1";"13";"1";"1";"4";"1";"[21,30]";"1";"4";"1"
"350";"21";"13";"1";"34";"1";"1";"4";"2";"[28]";"2";"0";"1"
"351";"40";"13";"1";"39";"1";"1";"4";"1";"[2,19,22,29]";"1";"2";"1"
"352";"23";"13";"1";"10";"1";"1";"4";"1";"[12,19,28,33,38]";"1";"0";"1"
"353";"21";"14";"1";"34";"1";"1";"4";"2";"[28]";"2";"0";"1"
"354";"8";"14";"1";"7";"1";"1";"4";"1";"[3,8,17,20]";"1";"0";"1"
"355";"23";"14";"1";"10";"1";"1";"4";"1";"[12,19,28,33,38]";"1";"0";"1"
"356";"40";"15";"1";"39";"1";"1";"4";"1";"[2,19,22,29]";"1";"3";"1"
"357";"8";"15";"1";"7";"1";"1";"4";"1";"[3,8,17,20]";"1";"0";"1"
"358";"27";"15";"1";"23";"1";"1";"4";"2";"[18,27,40]";"1";"0";"1"
"359";"27";"16";"1";"23";"1";"1";"4";"2";"[18,27,40]";"1";"0";"1"
"360";"13";"19";"1";"14";"1";"1";"4";"1";"[4,8,17,22,37,40]";"2";"0";"1"
"361";"18";"19";"1";"9";"1";"1";"4";"2";"[29,35]";"2";"0";"1"
"362";"13";"20";"1";"14";"1";"1";"4";"1";"[4,8,17,22,37,40]";"2";"0";"1"
"363";"18";"20";"1";"9";"1";"1";"4";"2";"[29,35]";"2";"0";"1"
"364";"34";"21";"1";"27";"1";"1";"4";"1";"[19,22,23,24,37]";"1";"0";"1"
"365";"4";"22";"1";"40";"1";"1";"4";"1";"[3,14,23,26]";"1";"0";"1"
"366";"34";"22";"1";"27";"1";"1";"4";"1";"[19,22,23,24,37]";"1";"0";"1"
"367";"4";"23";"1";"40";"1";"1";"4";"1";"[3,14,23,26]";"1";"0";"1"
"368";"38";"25";"1";"4";"1";"1";"4";"1";"[1,14,17,25]";"2";"0";"1"
"369";"38";"26";"1";"4";"1";"1";"4";"1";"[1,14,17,25]";"2";"0";"1"
"370";"32";"26";"1";"21";"1";"1";"4";"2";"[5,13,16,26,28,31,32,33,36]";"1";"0";"1"
"371";"32";"27";"1";"21";"1";"1";"4";"2";"[5,13,16,26,28,31,32,33,36]";"1";"0";"1"
"372";"17";"2";"1";"31";"1";"1";"5";"1";"[5,21,29]";"1";"0";"1"
"373";"5";"2";"1";"33";"1";"1";"5";"1";"[10,21,32,37]";"1";"0";"1"
"374";"28";"2";"1";"1";"1";"1";"5";"2";"[4,16,17]";"2";"0";"1"
"375";"12";"2";"1";"38";"1";"1";"5";"1";"[10,17]";"1";"0";"1"
"376";"20";"2";"1";"36";"1";"1";"5";"1";"[2,21,24,32]";"1";"0";"1"
"377";"40";"2";"1";"39";"1";"1";"5";"1";"[2,19,22,29]";"1";"0";"1"
"378";"17";"3";"1";"31";"1";"1";"5";"1";"[5,21,29]";"1";"0";"1"
"379";"10";"3";"1";"19";"1";"1";"5";"1";"[10,26,27,39]";"1";"0";"1"
"380";"5";"3";"1";"33";"1";"1";"5";"1";"[10,21,32,37]";"1";"0";"1"
"381";"14";"3";"1";"29";"1";"1";"5";"1";"[3,9,12,31,39]";"1";"0";"1"
"382";"6";"3";"1";"28";"1";"1";"5";"1";"[10,17,21,24,26,34]";"1";"0";"1"
"383";"28";"3";"1";"1";"1";"1";"5";"2";"[4,16,17]";"2";"0";"1"
"384";"12";"3";"1";"38";"1";"1";"5";"1";"[10,17]";"1";"0";"1"
"385";"20";"3";"1";"36";"1";"1";"5";"1";"[2,21,24,32]";"1";"0";"1"
"386";"40";"3";"1";"39";"1";"1";"5";"1";"[2,19,22,29]";"1";"0";"1"
"387";"24";"3";"1";"16";"1";"1";"5";"2";"[1,3,8,21,24]";"2";"0";"1"
"388";"1";"4";"1";"32";"1";"1";"5";"1";"[6,21,26,33,36]";"1";"0";"1"
"389";"27";"4";"1";"23";"1";"1";"5";"2";"[18,27,40]";"2";"0";"1"
"390";"10";"4";"1";"19";"1";"1";"5";"1";"[10,26,27,39]";"1";"0";"1"
"391";"14";"4";"1";"29";"1";"1";"5";"1";"[3,9,12,31,39]";"1";"0";"1"
"392";"6";"4";"1";"28";"1";"1";"5";"1";"[10,17,21,24,26,34]";"1";"0";"1"
"393";"24";"4";"1";"16";"1";"1";"5";"2";"[1,3,8,21,24]";"2";"0";"1"
"394";"1";"5";"1";"32";"1";"1";"5";"1";"[6,21,26,33,36]";"1";"0";"1"
"395";"39";"5";"1";"5";"1";"1";"5";"2";"[6,11,21,31]";"1";"0";"1"
"396";"27";"5";"1";"23";"1";"1";"5";"2";"[18,27,40]";"2";"0";"1"
"397";"21";"5";"1";"34";"1";"1";"5";"2";"[28]";"2";"0";"1"
"398";"37";"5";"1";"8";"1";"1";"5";"1";"[7,14,16]";"1";"0";"1"
"399";"29";"5";"1";"2";"1";"1";"5";"1";"[15,36,39]";"1";"0";"1"
"400";"8";"5";"1";"7";"1";"1";"5";"1";"[3,8,17,20]";"1";"0";"1"
"401";"19";"6";"1";"6";"1";"1";"5";"1";"[5,26,32]";"1";"0";"1"
"402";"39";"6";"1";"5";"1";"1";"5";"2";"[6,11,21,31]";"1";"0";"1"
"403";"21";"6";"1";"34";"1";"1";"5";"2";"[28]";"2";"0";"1"
"404";"37";"6";"1";"8";"1";"1";"5";"1";"[7,14,16]";"1";"0";"1"
"405";"3";"6";"1";"30";"1";"1";"5";"1";"[13]";"1";"0";"1"
"406";"29";"6";"1";"2";"1";"1";"5";"1";"[15,36,39]";"1";"0";"1"
"407";"8";"6";"1";"7";"1";"1";"5";"1";"[3,8,17,20]";"1";"0";"1"
"408";"15";"6";"1";"22";"1";"1";"5";"1";"[14,26,27,39]";"1";"0";"1"
"409";"19";"7";"1";"6";"1";"1";"5";"1";"[5,26,32]";"1";"0";"1"
"410";"33";"7";"1";"15";"1";"1";"5";"2";"[2,3,11,25]";"2";"0";"1"
"411";"3";"7";"1";"30";"1";"1";"5";"1";"[13]";"1";"0";"1"
"412";"13";"7";"1";"14";"1";"1";"5";"1";"[4,8,17,22,37,40]";"1";"0";"1"
"413";"16";"7";"1";"13";"1";"1";"5";"1";"[21,30]";"1";"0";"1"
"414";"22";"7";"1";"25";"1";"1";"5";"1";"[4,15,17,20,26]";"1";"0";"1"
"415";"32";"7";"1";"21";"1";"1";"5";"2";"[5,13,16,26,28,31,32,33,36]";"0";"3";"1"
"416";"35";"7";"1";"35";"1";"1";"5";"1";"[9,11]";"1";"0";"1"
"417";"15";"7";"1";"22";"1";"1";"5";"1";"[14,26,27,39]";"1";"0";"1"
"418";"26";"8";"1";"11";"1";"1";"5";"1";"[5,15,26,35]";"1";"0";"1"
"419";"33";"8";"1";"15";"1";"1";"5";"2";"[2,3,11,25]";"2";"0";"1"
"420";"13";"8";"1";"14";"1";"1";"5";"1";"[4,8,17,22,37,40]";"1";"0";"1"
"421";"16";"8";"1";"13";"1";"1";"5";"1";"[21,30]";"1";"0";"1"
"422";"22";"8";"1";"25";"1";"1";"5";"1";"[4,15,17,20,26]";"1";"0";"1"
"423";"30";"8";"1";"37";"1";"1";"5";"2";"[14,27,33]";"2";"0";"1"
"424";"9";"8";"1";"24";"1";"1";"5";"1";"[16,27,28,36]";"1";"0";"1"
"425";"35";"8";"1";"35";"1";"1";"5";"1";"[9,11]";"1";"0";"1"
"426";"7";"8";"1";"12";"1";"1";"5";"1";"[10,29]";"1";"0";"1"
"427";"26";"9";"1";"11";"1";"1";"5";"1";"[5,15,26,35]";"1";"0";"1"
"428";"32";"9";"1";"21";"1";"1";"5";"2";"[5,13,16,26,28,31,32,33,36]";"0";"5";"1"
"429";"30";"9";"1";"37";"1";"1";"5";"2";"[14,27,33]";"2";"0";"1"
"430";"9";"9";"1";"24";"1";"1";"5";"1";"[16,27,28,36]";"1";"0";"1"
"431";"7";"9";"1";"12";"1";"1";"5";"1";"[10,29]";"1";"0";"1"
"432";"36";"10";"1";"20";"1";"1";"5";"1";"[3,7,25]";"1";"0";"1"
"433";"2";"10";"1";"3";"1";"1";"5";"1";"[7,15,16,20,29,40]";"1";"0";"1"
"434";"36";"11";"1";"20";"1";"1";"5";"1";"[3,7,25]";"1";"0";"1"
"435";"2";"11";"1";"3";"1";"1";"5";"1";"[7,15,16,20,29,40]";"1";"0";"1"
"436";"18";"11";"1";"9";"1";"1";"5";"2";"[29,35]";"2";"0";"1"
"437";"18";"12";"1";"9";"1";"1";"5";"2";"[29,35]";"2";"0";"1"
"438";"32";"13";"1";"21";"1";"1";"5";"2";"[5,13,16,26,28,31,32,33,36]";"0";"3";"1"
"439";"31";"14";"1";"18";"1";"1";"5";"2";"[17,23]";"2";"0";"1"
"440";"11";"15";"1";"17";"1";"1";"5";"1";"[1,4,7,14,18,25,28,38]";"2";"0";"1"
"441";"32";"15";"1";"21";"1";"1";"5";"2";"[5,13,16,26,28,31,32,33,36]";"0";"4";"1"
"442";"31";"15";"1";"18";"1";"1";"5";"2";"[17,23]";"2";"0";"1"
"443";"11";"16";"1";"17";"1";"1";"5";"1";"[1,4,7,14,18,25,28,38]";"2";"0";"1"
"444";"25";"16";"1";"26";"1";"1";"5";"1";"[6,11,19,21,22,25,28,32,40]";"2";"0";"1"
"445";"25";"17";"1";"26";"1";"1";"5";"1";"[6,11,19,21,22,25,28,32,40]";"2";"0";"1"
"446";"32";"18";"1";"21";"1";"1";"5";"2";"[5,13,16,26,28,31,32,33,36]";"1";"4";"1"
"447";"33";"18";"1";"15";"1";"1";"5";"2";"[2,3,11,25]";"2";"3";"1"
"448";"32";"19";"1";"21";"1";"1";"5";"2";"[5,13,16,26,28,31,32,33,36]";"1";"4";"1"
"449";"2";"19";"1";"3";"1";"1";"5";"1";"[7,15,16,20,29,40]";"1";"1";"1"
"450";"34";"20";"1";"27";"1";"1";"5";"1";"[19,22,23,24,37]";"1";"0";"1"
"451";"33";"20";"1";"15";"1";"1";"5";"2";"[2,3,11,25]";"2";"2";"1"
"452";"34";"21";"1";"27";"1";"1";"5";"1";"[19,22,23,24,37]";"1";"0";"1"
"453";"38";"21";"1";"4";"1";"1";"5";"1";"[1,14,17,25]";"2";"0";"1"
"454";"33";"22";"1";"15";"1";"1";"5";"2";"[2,3,11,25]";"2";"1";"1"
"455";"2";"22";"1";"3";"1";"1";"5";"1";"[7,15,16,20,29,40]";"1";"2";"1"
"456";"38";"23";"1";"4";"1";"1";"5";"1";"[1,14,17,25]";"2";"0";"1"
"457";"33";"23";"1";"15";"1";"1";"5";"2";"[2,3,11,25]";"2";"2";"1"
"458";"2";"24";"1";"3";"1";"1";"5";"1";"[7,15,16,20,29,40]";"1";"3";"1"
"459";"23";"24";"1";"10";"1";"1";"5";"1";"[12,19,28,33,38]";"2";"0";"1"
"460";"2";"25";"1";"3";"1";"1";"5";"1";"[7,15,16,20,29,40]";"1";"4";"1"
"461";"4";"25";"1";"40";"1";"1";"5";"1";"[3,14,23,26]";"1";"0";"1"
"462";"23";"25";"1";"10";"1";"1";"5";"1";"[12,19,28,33,38]";"2";"0";"1"
"463";"33";"25";"1";"15";"1";"1";"5";"2";"[2,3,11,25]";"2";"3";"1"
"464";"4";"26";"1";"40";"1";"1";"5";"1";"[3,14,23,26]";"1";"0";"1"
"465";"2";"0";"1";"3";"1";"1";"6";"1";"[7,15,16,20,29,40]";"0";"5";"1"
"466";"28";"1";"1";"1";"1";"1";"6";"2";"[4,16,17]";"2";"0";"1"
"467";"2";"1";"1";"3";"1";"1";"6";"1";"[7,15,16,20,29,40]";"0";"7";"1"
"468";"14";"2";"1";"29";"1";"1";"6";"1";"[3,9,12,31,39]";"1";"0";"1"
"469";"28";"2";"1";"1";"1";"1";"6";"2";"[4,16,17]";"2";"0";"1"
"470";"40";"3";"1";"39";"1";"1";"6";"1";"[2,19,22,29]";"1";"0";"1"
"471";"17";"3";"1";"31";"1";"1";"6";"1";"[5,21,29]";"1";"0";"1"
"472";"10";"3";"1";"19";"1";"1";"6";"1";"[10,26,27,39]";"1";"0";"1"
"473";"14";"3";"1";"29";"1";"1";"6";"1";"[3,9,12,31,39]";"1";"0";"1"
"474";"31";"3";"1";"18";"1";"1";"6";"2";"[17,23]";"2";"0";"1"
"475";"37";"3";"1";"8";"1";"1";"6";"1";"[7,14,16]";"1";"0";"1"
"476";"40";"4";"1";"39";"1";"1";"6";"1";"[2,19,22,29]";"1";"0";"1"
"477";"16";"4";"1";"13";"1";"1";"6";"1";"[21,30]";"1";"0";"1"
"478";"17";"4";"1";"31";"1";"1";"6";"1";"[5,21,29]";"1";"0";"1"
"479";"30";"4";"1";"37";"1";"1";"6";"2";"[14,27,33]";"0";"4";"1"
"480";"5";"4";"1";"33";"1";"1";"6";"1";"[10,21,32,37]";"1";"0";"1"
"481";"10";"4";"1";"19";"1";"1";"6";"1";"[10,26,27,39]";"1";"0";"1"
"482";"29";"4";"1";"2";"1";"1";"6";"1";"[15,36,39]";"1";"0";"1"
"483";"31";"4";"1";"18";"1";"1";"6";"2";"[17,23]";"2";"0";"1"
"484";"37";"4";"1";"8";"1";"1";"6";"1";"[7,14,16]";"1";"0";"1"
"485";"27";"4";"1";"23";"1";"1";"6";"2";"[18,27,40]";"2";"0";"1"
"486";"16";"5";"1";"13";"1";"1";"6";"1";"[21,30]";"1";"0";"1"
"487";"18";"5";"1";"9";"1";"1";"6";"2";"[29,35]";"1";"0";"1"
"488";"9";"5";"1";"24";"1";"1";"6";"1";"[16,27,28,36]";"1";"0";"1"
"489";"5";"5";"1";"33";"1";"1";"6";"1";"[10,21,32,37]";"1";"0";"1"
"490";"29";"5";"1";"2";"1";"1";"6";"1";"[15,36,39]";"1";"0";"1"
"491";"24";"5";"1";"16";"1";"1";"6";"2";"[1,3,8,21,24]";"2";"0";"1"
"492";"25";"5";"1";"26";"1";"1";"6";"1";"[6,11,19,21,22,25,28,32,40]";"1";"0";"1"
"493";"27";"6";"1";"23";"1";"1";"6";"2";"[18,27,40]";"2";"0";"1"
"494";"33";"6";"1";"15";"1";"1";"6";"2";"[2,3,11,25]";"1";"0";"1"
"495";"19";"6";"1";"6";"1";"1";"6";"1";"[5,26,32]";"1";"0";"1"
"496";"18";"6";"1";"9";"1";"1";"6";"2";"[29,35]";"1";"0";"1"
"497";"9";"6";"1";"24";"1";"1";"6";"1";"[16,27,28,36]";"1";"0";"1"
"498";"24";"6";"1";"16";"1";"1";"6";"2";"[1,3,8,21,24]";"2";"0";"1"
"499";"25";"6";"1";"26";"1";"1";"6";"1";"[6,11,19,21,22,25,28,32,40]";"1";"0";"1"
"500";"1";"6";"1";"32";"1";"1";"6";"1";"[6,21,26,33,36]";"1";"0";"1"
"501";"33";"7";"1";"15";"1";"1";"6";"2";"[2,3,11,25]";"1";"0";"1"
"502";"36";"7";"1";"20";"1";"1";"6";"1";"[3,7,25]";"1";"0";"1"
"503";"19";"7";"1";"6";"1";"1";"6";"1";"[5,26,32]";"1";"0";"1"
"504";"30";"7";"1";"37";"1";"1";"6";"2";"[14,27,33]";"0";"3";"1"
"505";"22";"7";"1";"25";"1";"1";"6";"1";"[4,15,17,20,26]";"2";"0";"1"
"506";"35";"7";"1";"35";"1";"1";"6";"1";"[9,11]";"1";"0";"1"
"507";"3";"7";"1";"30";"1";"1";"6";"1";"[13]";"1";"0";"1"
"508";"1";"7";"1";"32";"1";"1";"6";"1";"[6,21,26,33,36]";"1";"0";"1"
"509";"36";"8";"1";"20";"1";"1";"6";"1";"[3,7,25]";"1";"0";"1"
"510";"12";"8";"1";"38";"1";"1";"6";"1";"[10,17]";"2";"0";"1"
"511";"22";"8";"1";"25";"1";"1";"6";"1";"[4,15,17,20,26]";"2";"0";"1"
"512";"8";"8";"1";"7";"1";"1";"6";"1";"[3,8,17,20]";"1";"0";"1"
"513";"35";"8";"1";"35";"1";"1";"6";"1";"[9,11]";"1";"0";"1"
"514";"21";"8";"1";"34";"1";"1";"6";"2";"[28]";"2";"0";"1"
"515";"3";"8";"1";"30";"1";"1";"6";"1";"[13]";"1";"0";"1"
"516";"12";"9";"1";"38";"1";"1";"6";"1";"[10,17]";"2";"0";"1"
"517";"30";"9";"1";"37";"1";"1";"6";"2";"[14,27,33]";"0";"4";"1"
"518";"8";"9";"1";"7";"1";"1";"6";"1";"[3,8,17,20]";"1";"0";"1"
"519";"39";"9";"1";"5";"1";"1";"6";"2";"[6,11,21,31]";"2";"0";"1"
"520";"21";"9";"1";"34";"1";"1";"6";"2";"[28]";"2";"0";"1"
"521";"32";"10";"1";"21";"1";"1";"6";"2";"[5,13,16,26,28,31,32,33,36]";"1";"0";"1"
"522";"30";"10";"1";"37";"1";"1";"6";"2";"[14,27,33]";"0";"5";"1"
"523";"39";"10";"1";"5";"1";"1";"6";"2";"[6,11,21,31]";"2";"0";"1"
"524";"32";"11";"1";"21";"1";"1";"6";"2";"[5,13,16,26,28,31,32,33,36]";"1";"0";"1"
"525";"15";"12";"1";"22";"1";"1";"6";"1";"[14,26,27,39]";"1";"0";"1"
"526";"38";"12";"1";"4";"1";"1";"6";"1";"[1,14,17,25]";"1";"0";"1"
"527";"15";"13";"1";"22";"1";"1";"6";"1";"[14,26,27,39]";"1";"0";"1"
"528";"30";"13";"1";"37";"1";"1";"6";"2";"[14,27,33]";"1";"5";"1"
"529";"6";"13";"1";"28";"1";"1";"6";"1";"[10,17,21,24,26,34]";"1";"0";"1"
"530";"38";"13";"1";"4";"1";"1";"6";"1";"[1,14,17,25]";"1";"0";"1"
"531";"23";"14";"1";"10";"1";"1";"6";"1";"[12,19,28,33,38]";"1";"0";"1"
"532";"7";"14";"1";"12";"1";"1";"6";"1";"[10,29]";"1";"0";"1"
"533";"13";"14";"1";"14";"1";"1";"6";"1";"[4,8,17,22,37,40]";"2";"0";"1"
"534";"30";"14";"1";"37";"1";"1";"6";"2";"[14,27,33]";"1";"5";"1"
"535";"6";"14";"1";"28";"1";"1";"6";"1";"[10,17,21,24,26,34]";"1";"0";"1"
"536";"23";"15";"1";"10";"1";"1";"6";"1";"[12,19,28,33,38]";"1";"0";"1"
"537";"4";"15";"1";"40";"1";"1";"6";"1";"[3,14,23,26]";"2";"0";"1"
"538";"7";"15";"1";"12";"1";"1";"6";"1";"[10,29]";"1";"0";"1"
"539";"13";"15";"1";"14";"1";"1";"6";"1";"[4,8,17,22,37,40]";"2";"0";"1"
"540";"20";"15";"1";"36";"1";"1";"6";"1";"[2,21,24,32]";"1";"0";"1"
"541";"26";"16";"1";"11";"1";"1";"6";"1";"[5,15,26,35]";"2";"0";"1"
"542";"4";"16";"1";"40";"1";"1";"6";"1";"[3,14,23,26]";"2";"0";"1"
"543";"20";"16";"1";"36";"1";"1";"6";"1";"[2,21,24,32]";"1";"0";"1"
"544";"26";"17";"1";"11";"1";"1";"6";"1";"[5,15,26,35]";"2";"0";"1"
"545";"13";"20";"1";"14";"1";"1";"6";"1";"[4,8,17,22,37,40]";"2";"4";"1"
"546";"11";"21";"1";"17";"1";"1";"6";"1";"[1,4,7,14,18,25,28,38]";"1";"0";"1"
"547";"13";"22";"1";"14";"1";"1";"6";"1";"[4,8,17,22,37,40]";"2";"3";"1"
"548";"11";"22";"1";"17";"1";"1";"6";"1";"[1,4,7,14,18,25,28,38]";"1";"0";"1"
"549";"13";"24";"1";"14";"1";"1";"6";"1";"[4,8,17,22,37,40]";"2";"2";"1"
"550";"34";"24";"1";"27";"1";"1";"6";"1";"[19,22,23,24,37]";"1";"0";"1"
"551";"2";"24";"1";"3";"1";"1";"6";"1";"[7,15,16,20,29,40]";"2";"7";"1"
"552";"34";"25";"1";"27";"1";"1";"6";"1";"[19,22,23,24,37]";"1";"0";"1"
"553";"13";"25";"1";"14";"1";"1";"6";"1";"[4,8,17,22,37,40]";"2";"1";"1"
"554";"2";"25";"1";"3";"1";"1";"6";"1";"[7,15,16,20,29,40]";"2";"7";"1"
"555";"40";"2";"1";"39";"1";"1";"7";"1";"[2,19,22,29]";"1";"0";"1"
"556";"17";"2";"1";"31";"1";"1";"7";"1";"[5,21,29]";"1";"0";"1"
"557";"5";"2";"1";"33";"1";"1";"7";"1";"[10,21,32,37]";"1";"0";"1"
"558";"28";"2";"1";"1";"1";"1";"7";"2";"[4,16,17]";"2";"0";"1"
"559";"31";"3";"1";"18";"1";"1";"7";"2";"[17,23]";"2";"0";"1"
"560";"7";"3";"1";"12";"1";"1";"7";"1";"[10,29]";"1";"0";"1"
"561";"24";"3";"1";"16";"1";"1";"7";"2";"[1,3,8,21,24]";"2";"0";"1"
"562";"35";"3";"1";"35";"1";"1";"7";"1";"[9,11]";"2";"0";"1"
"563";"40";"3";"1";"39";"1";"1";"7";"1";"[2,19,22,29]";"1";"0";"1"
"564";"17";"3";"1";"31";"1";"1";"7";"1";"[5,21,29]";"1";"0";"1"
"565";"10";"3";"1";"19";"1";"1";"7";"1";"[10,26,27,39]";"1";"0";"1"
"566";"5";"3";"1";"33";"1";"1";"7";"1";"[10,21,32,37]";"1";"0";"1"
"567";"28";"3";"1";"1";"1";"1";"7";"2";"[4,16,17]";"2";"0";"1"
"568";"31";"4";"1";"18";"1";"1";"7";"2";"[17,23]";"2";"0";"1"
"569";"29";"4";"1";"2";"1";"1";"7";"1";"[15,36,39]";"1";"0";"1"
"570";"1";"4";"1";"32";"1";"1";"7";"1";"[6,21,26,33,36]";"1";"0";"1"
"571";"7";"4";"1";"12";"1";"1";"7";"1";"[10,29]";"1";"0";"1"
"572";"8";"4";"1";"7";"1";"1";"7";"1";"[3,8,17,20]";"1";"0";"1"
"573";"24";"4";"1";"16";"1";"1";"7";"2";"[1,3,8,21,24]";"2";"0";"1"
"574";"16";"4";"1";"13";"1";"1";"7";"1";"[21,30]";"1";"0";"1"
"575";"14";"4";"1";"29";"1";"1";"7";"1";"[3,9,12,31,39]";"1";"0";"1"
"576";"35";"4";"1";"35";"1";"1";"7";"1";"[9,11]";"2";"0";"1"
"577";"10";"4";"1";"19";"1";"1";"7";"1";"[10,26,27,39]";"1";"0";"1"
"578";"26";"4";"1";"11";"1";"1";"7";"1";"[5,15,26,35]";"1";"0";"1"
"579";"12";"4";"1";"38";"1";"1";"7";"1";"[10,17]";"1";"0";"1"
"580";"28";"5";"1";"1";"1";"1";"7";"2";"[4,16,17]";"2";"5";"1"
"581";"9";"5";"1";"24";"1";"1";"7";"1";"[16,27,28,36]";"1";"0";"1"
"582";"29";"5";"1";"2";"1";"1";"7";"1";"[15,36,39]";"1";"0";"1"
"583";"1";"5";"1";"32";"1";"1";"7";"1";"[6,21,26,33,36]";"1";"0";"1"
"584";"3";"5";"1";"30";"1";"1";"7";"1";"[13]";"0";"5";"1"
"585";"8";"5";"1";"7";"1";"1";"7";"1";"[3,8,17,20]";"1";"0";"1"
"586";"16";"5";"1";"13";"1";"1";"7";"1";"[21,30]";"1";"0";"1"
"587";"14";"5";"1";"29";"1";"1";"7";"1";"[3,9,12,31,39]";"1";"0";"1"
"588";"15";"5";"1";"22";"1";"1";"7";"1";"[14,26,27,39]";"1";"0";"1"
"589";"18";"5";"1";"9";"1";"1";"7";"2";"[29,35]";"2";"0";"1"
"590";"26";"5";"1";"11";"1";"1";"7";"1";"[5,15,26,35]";"1";"0";"1"
"591";"12";"5";"1";"38";"1";"1";"7";"1";"[10,17]";"1";"0";"1"
"592";"19";"5";"1";"6";"1";"1";"7";"1";"[5,26,32]";"1";"0";"1"
"593";"9";"6";"1";"24";"1";"1";"7";"1";"[16,27,28,36]";"1";"0";"1"
"594";"6";"6";"1";"28";"1";"1";"7";"1";"[10,17,21,24,26,34]";"2";"0";"1"
"595";"22";"6";"1";"25";"1";"1";"7";"1";"[4,15,17,20,26]";"1";"0";"1"
"596";"32";"6";"1";"21";"1";"1";"7";"2";"[5,13,16,26,28,31,32,33,36]";"1";"0";"1"
"597";"28";"6";"1";"1";"1";"1";"7";"2";"[4,16,17]";"2";"4";"1"
"598";"30";"6";"1";"37";"1";"1";"7";"2";"[14,27,33]";"1";"0";"1"
"599";"3";"6";"1";"30";"1";"1";"7";"1";"[13]";"0";"4";"1"
"600";"15";"6";"1";"22";"1";"1";"7";"1";"[14,26,27,39]";"1";"0";"1"
"601";"18";"6";"1";"9";"1";"1";"7";"2";"[29,35]";"2";"0";"1"
"602";"33";"6";"1";"15";"1";"1";"7";"2";"[2,3,11,25]";"2";"0";"1"
"603";"19";"6";"1";"6";"1";"1";"7";"1";"[5,26,32]";"1";"0";"1"
"604";"6";"7";"1";"28";"1";"1";"7";"1";"[10,17,21,24,26,34]";"2";"0";"1"
"605";"22";"7";"1";"25";"1";"1";"7";"1";"[4,15,17,20,26]";"1";"0";"1"
"606";"36";"7";"1";"20";"1";"1";"7";"1";"[3,7,25]";"2";"0";"1"
"607";"32";"7";"1";"21";"1";"1";"7";"2";"[5,13,16,26,28,31,32,33,36]";"1";"0";"1"
"608";"28";"7";"1";"1";"1";"1";"7";"2";"[4,16,17]";"2";"3";"1"
"609";"30";"7";"1";"37";"1";"1";"7";"2";"[14,27,33]";"1";"0";"1"
"610";"20";"7";"1";"36";"1";"1";"7";"1";"[2,21,24,32]";"1";"0";"1"
"611";"3";"7";"1";"30";"1";"1";"7";"1";"[13]";"0";"6";"1"
"612";"33";"7";"1";"15";"1";"1";"7";"2";"[2,3,11,25]";"2";"0";"1"
"613";"37";"8";"1";"8";"1";"1";"7";"1";"[7,14,16]";"1";"0";"1"
"614";"36";"8";"1";"20";"1";"1";"7";"1";"[3,7,25]";"2";"0";"1"
"615";"21";"8";"1";"34";"1";"1";"7";"2";"[28]";"1";"0";"1"
"616";"20";"8";"1";"36";"1";"1";"7";"1";"[2,21,24,32]";"1";"0";"1"
"617";"13";"8";"1";"14";"1";"1";"7";"1";"[4,8,17,22,37,40]";"1";"0";"1"
"618";"27";"8";"1";"23";"1";"1";"7";"2";"[18,27,40]";"2";"0";"1"
"619";"37";"9";"1";"8";"1";"1";"7";"1";"[7,14,16]";"1";"0";"1"
"620";"21";"9";"1";"34";"1";"1";"7";"2";"[28]";"1";"0";"1"
"621";"13";"9";"1";"14";"1";"1";"7";"1";"[4,8,17,22,37,40]";"1";"0";"1"
"622";"27";"9";"1";"23";"1";"1";"7";"2";"[18,27,40]";"2";"0";"1"
"623";"3";"10";"1";"30";"1";"1";"7";"1";"[13]";"0";"7";"1"
"624";"28";"10";"1";"1";"1";"1";"7";"2";"[4,16,17]";"2";"6";"1"
"625";"28";"11";"1";"1";"1";"1";"7";"2";"[4,16,17]";"2";"7";"1"
"626";"4";"12";"1";"40";"1";"1";"7";"1";"[3,14,23,26]";"1";"0";"1"
"627";"38";"13";"1";"4";"1";"1";"7";"1";"[1,14,17,25]";"1";"0";"1"
"628";"4";"13";"1";"40";"1";"1";"7";"1";"[3,14,23,26]";"1";"0";"1"
"629";"3";"14";"1";"30";"1";"1";"7";"1";"[13]";"1";"7";"1"
"630";"38";"14";"1";"4";"1";"1";"7";"1";"[1,14,17,25]";"1";"0";"1"
"631";"11";"15";"1";"17";"1";"1";"7";"1";"[1,4,7,14,18,25,28,38]";"1";"0";"1"
"632";"3";"15";"1";"30";"1";"1";"7";"1";"[13]";"1";"7";"1"
"633";"11";"16";"1";"17";"1";"1";"7";"1";"[1,4,7,14,18,25,28,38]";"1";"0";"1"
"634";"23";"16";"1";"10";"1";"1";"7";"1";"[12,19,28,33,38]";"1";"0";"1"
"635";"2";"16";"1";"3";"1";"1";"7";"1";"[7,15,16,20,29,40]";"2";"0";"1"
"636";"25";"16";"1";"26";"1";"1";"7";"1";"[6,11,19,21,22,25,28,32,40]";"1";"0";"1"
"637";"39";"16";"1";"5";"1";"1";"7";"2";"[6,11,21,31]";"2";"0";"1"
"638";"23";"17";"1";"10";"1";"1";"7";"1";"[12,19,28,33,38]";"1";"0";"1"
"639";"2";"17";"1";"3";"1";"1";"7";"1";"[7,15,16,20,29,40]";"2";"0";"1"
"640";"25";"17";"1";"26";"1";"1";"7";"1";"[6,11,19,21,22,25,28,32,40]";"1";"0";"1"
"641";"39";"17";"1";"5";"1";"1";"7";"2";"[6,11,21,31]";"2";"0";"1"
"642";"34";"19";"1";"27";"1";"1";"7";"1";"[19,22,23,24,37]";"2";"0";"1"
"643";"34";"20";"1";"27";"1";"1";"7";"1";"[19,22,23,24,37]";"2";"0";"1"
"644";"28";"1";"1";"1";"1";"1";"8";"2";"[4,16,17]";"2";"0";"1"
"645";"17";"1";"1";"31";"1";"1";"8";"1";"[5,21,29]";"1";"0";"1"
"646";"40";"2";"1";"39";"1";"1";"8";"1";"[2,19,22,29]";"1";"0";"1"
"647";"24";"2";"1";"16";"1";"1";"8";"2";"[1,3,8,21,24]";"2";"0";"1"
"648";"7";"2";"1";"12";"1";"1";"8";"1";"[10,29]";"1";"0";"1"
"649";"5";"2";"1";"33";"1";"1";"8";"1";"[10,21,32,37]";"1";"0";"1"
"650";"10";"2";"1";"19";"1";"1";"8";"1";"[10,26,27,39]";"1";"0";"1"
"651";"21";"2";"1";"34";"1";"1";"8";"2";"[28]";"2";"0";"1"
"652";"28";"2";"1";"1";"1";"1";"8";"2";"[4,16,17]";"2";"0";"1"
"653";"17";"2";"1";"31";"1";"1";"8";"1";"[5,21,29]";"1";"0";"1"
"654";"29";"2";"1";"2";"1";"1";"8";"1";"[15,36,39]";"1";"0";"1"
"655";"19";"3";"1";"6";"1";"1";"8";"1";"[5,26,32]";"1";"0";"1"
"656";"31";"3";"1";"18";"1";"1";"8";"2";"[17,23]";"2";"0";"1"
"657";"40";"3";"1";"39";"1";"1";"8";"1";"[2,19,22,29]";"1";"0";"1"
"658";"39";"3";"1";"5";"1";"1";"8";"2";"[6,11,21,31]";"1";"0";"1"
"659";"24";"3";"1";"16";"1";"1";"8";"2";"[1,3,8,21,24]";"2";"0";"1"
"660";"7";"3";"1";"12";"1";"1";"8";"1";"[10,29]";"1";"0";"1"
"661";"5";"3";"1";"33";"1";"1";"8";"1";"[10,21,32,37]";"1";"0";"1"
"662";"10";"3";"1";"19";"1";"1";"8";"1";"[10,26,27,39]";"1";"0";"1"
"663";"21";"3";"1";"34";"1";"1";"8";"2";"[28]";"2";"0";"1"
"664";"27";"3";"1";"23";"1";"1";"8";"2";"[18,27,40]";"2";"0";"1"
"665";"35";"3";"1";"35";"1";"1";"8";"1";"[9,11]";"1";"0";"1"
"666";"29";"3";"1";"2";"1";"1";"8";"1";"[15,36,39]";"1";"0";"1"
"667";"37";"3";"1";"8";"1";"1";"8";"1";"[7,14,16]";"1";"0";"1"
"668";"1";"4";"1";"32";"1";"1";"8";"1";"[6,21,26,33,36]";"1";"0";"1"
"669";"19";"4";"1";"6";"1";"1";"8";"1";"[5,26,32]";"1";"0";"1"
"670";"31";"4";"1";"18";"1";"1";"8";"2";"[17,23]";"2";"0";"1"
"671";"3";"4";"1";"30";"1";"1";"8";"1";"[13]";"1";"0";"1"
"672";"12";"4";"1";"38";"1";"1";"8";"1";"[10,17]";"1";"0";"1"
"673";"39";"4";"1";"5";"1";"1";"8";"2";"[6,11,21,31]";"1";"0";"1"
"674";"26";"4";"1";"11";"1";"1";"8";"1";"[5,15,26,35]";"1";"0";"1"
"675";"27";"4";"1";"23";"1";"1";"8";"2";"[18,27,40]";"2";"0";"1"
"676";"35";"4";"1";"35";"1";"1";"8";"1";"[9,11]";"1";"0";"1"
"677";"33";"4";"1";"15";"1";"1";"8";"2";"[2,3,11,25]";"2";"0";"1"
"678";"37";"4";"1";"8";"1";"1";"8";"1";"[7,14,16]";"1";"0";"1"
"679";"4";"4";"1";"40";"1";"1";"8";"1";"[3,14,23,26]";"0";"5";"1"
"680";"1";"5";"1";"32";"1";"1";"8";"1";"[6,21,26,33,36]";"1";"0";"1"
"681";"3";"5";"1";"30";"1";"1";"8";"1";"[13]";"1";"0";"1"
"682";"14";"5";"1";"29";"1";"1";"8";"1";"[3,9,12,31,39]";"0";"8";"1"
"683";"12";"5";"1";"38";"1";"1";"8";"1";"[10,17]";"1";"0";"1"
"684";"26";"5";"1";"11";"1";"1";"8";"1";"[5,15,26,35]";"1";"0";"1"
"685";"33";"5";"1";"15";"1";"1";"8";"2";"[2,3,11,25]";"2";"0";"1"
"686";"8";"6";"1";"7";"1";"1";"8";"1";"[3,8,17,20]";"1";"0";"1"
"687";"4";"6";"1";"40";"1";"1";"8";"1";"[3,14,23,26]";"0";"4";"1"
"688";"14";"6";"1";"29";"1";"1";"8";"1";"[3,9,12,31,39]";"1";"8";"1"
"689";"13";"7";"1";"14";"1";"1";"8";"1";"[4,8,17,22,37,40]";"0";"6";"1"
"690";"8";"7";"1";"7";"1";"1";"8";"1";"[3,8,17,20]";"1";"0";"1"
"691";"14";"7";"1";"29";"1";"1";"8";"1";"[3,9,12,31,39]";"1";"8";"1"
"692";"11";"7";"1";"17";"1";"1";"8";"1";"[1,4,7,14,18,25,28,38]";"2";"0";"1"
"693";"4";"8";"1";"40";"1";"1";"8";"1";"[3,14,23,26]";"0";"2";"1"
"694";"22";"8";"1";"25";"1";"1";"8";"1";"[4,15,17,20,26]";"1";"0";"1"
"695";"38";"8";"1";"4";"1";"1";"8";"1";"[1,14,17,25]";"1";"0";"1"
"696";"11";"8";"1";"17";"1";"1";"8";"1";"[1,4,7,14,18,25,28,38]";"2";"0";"1"
"697";"4";"9";"1";"40";"1";"1";"8";"1";"[3,14,23,26]";"0";"7";"1"
"698";"32";"9";"1";"21";"1";"1";"8";"2";"[5,13,16,26,28,31,32,33,36]";"0";"6";"1"
"699";"22";"9";"1";"25";"1";"1";"8";"1";"[4,15,17,20,26]";"1";"0";"1"
"700";"38";"9";"1";"4";"1";"1";"8";"1";"[1,14,17,25]";"1";"0";"1"
"701";"13";"9";"1";"14";"1";"1";"8";"1";"[4,8,17,22,37,40]";"0";"7";"1"
"702";"25";"9";"1";"26";"1";"1";"8";"1";"[6,11,19,21,22,25,28,32,40]";"1";"0";"1"
"703";"32";"10";"1";"21";"1";"1";"8";"2";"[5,13,16,26,28,31,32,33,36]";"0";"5";"1"
"704";"25";"10";"1";"26";"1";"1";"8";"1";"[6,11,19,21,22,25,28,32,40]";"1";"0";"1"
"705";"16";"11";"1";"13";"1";"1";"8";"1";"[21,30]";"1";"0";"1"
"706";"13";"11";"1";"14";"1";"1";"8";"1";"[4,8,17,22,37,40]";"1";"7";"1"
"707";"20";"11";"1";"36";"1";"1";"8";"1";"[2,21,24,32]";"1";"0";"1"
"708";"6";"11";"1";"28";"1";"1";"8";"1";"[10,17,21,24,26,34]";"1";"0";"1"
"709";"16";"12";"1";"13";"1";"1";"8";"1";"[21,30]";"1";"0";"1"
"710";"13";"12";"1";"14";"1";"1";"8";"1";"[4,8,17,22,37,40]";"1";"7";"1"
"711";"32";"12";"1";"21";"1";"1";"8";"2";"[5,13,16,26,28,31,32,33,36]";"0";"7";"1"
"712";"18";"12";"1";"9";"1";"1";"8";"2";"[29,35]";"1";"0";"1"
"713";"20";"12";"1";"36";"1";"1";"8";"1";"[2,21,24,32]";"1";"0";"1"
"714";"6";"12";"1";"28";"1";"1";"8";"1";"[10,17,21,24,26,34]";"1";"0";"1"
"715";"9";"12";"1";"24";"1";"1";"8";"1";"[16,27,28,36]";"1";"0";"1"
"716";"36";"13";"1";"20";"1";"1";"8";"1";"[3,7,25]";"2";"0";"1"
"717";"18";"13";"1";"9";"1";"1";"8";"2";"[29,35]";"1";"0";"1"
"718";"15";"13";"1";"22";"1";"1";"8";"1";"[14,26,27,39]";"1";"0";"1"
"719";"9";"14";"1";"24";"1";"1";"8";"1";"[16,27,28,36]";"1";"0";"1"
"720";"4";"14";"1";"40";"1";"1";"8";"1";"[3,14,23,26]";"1";"7";"1"
"721";"36";"14";"1";"20";"1";"1";"8";"1";"[3,7,25]";"2";"0";"1"
"722";"15";"14";"1";"22";"1";"1";"8";"1";"[14,26,27,39]";"1";"0";"1"
"723";"34";"14";"1";"27";"1";"1";"8";"1";"[19,22,23,24,37]";"1";"0";"1"
"724";"4";"15";"1";"40";"1";"1";"8";"1";"[3,14,23,26]";"1";"7";"1"
"725";"34";"15";"1";"27";"1";"1";"8";"1";"[19,22,23,24,37]";"1";"0";"1"
"726";"32";"16";"1";"21";"1";"1";"8";"2";"[5,13,16,26,28,31,32,33,36]";"0";"6";"1"
"727";"23";"16";"1";"10";"1";"1";"8";"1";"[12,19,28,33,38]";"1";"0";"1"
"728";"30";"16";"1";"37";"1";"1";"8";"2";"[14,27,33]";"2";"0";"1"
"729";"23";"17";"1";"10";"1";"1";"8";"1";"[12,19,28,33,38]";"1";"0";"1"
"730";"2";"17";"1";"3";"1";"1";"8";"1";"[7,15,16,20,29,40]";"2";"0";"1"
"731";"30";"17";"1";"37";"1";"1";"8";"2";"[14,27,33]";"2";"0";"1"
"732";"32";"18";"1";"21";"1";"1";"8";"2";"[5,13,16,26,28,31,32,33,36]";"0";"5";"1"
"733";"2";"18";"1";"3";"1";"1";"8";"1";"[7,15,16,20,29,40]";"2";"0";"1"
"734";"32";"19";"1";"21";"1";"1";"8";"2";"[5,13,16,26,28,31,32,33,36]";"0";"6";"1"
"735";"32";"20";"1";"21";"1";"1";"8";"2";"[5,13,16,26,28,31,32,33,36]";"0";"7";"1"
"736";"32";"21";"1";"21";"1";"1";"8";"2";"[5,13,16,26,28,31,32,33,36]";"0";"8";"1"
"737";"32";"26";"1";"21";"1";"1";"8";"2";"[5,13,16,26,28,31,32,33,36]";"1";"8";"1"
"738";"32";"27";"1";"21";"1";"1";"8";"2";"[5,13,16,26,28,31,32,33,36]";"1";"8";"1"
"739";"17";"1";"1";"31";"1";"1";"9";"1";"[5,21,29]";"1";"0";"1"
"740";"10";"2";"1";"19";"1";"1";"9";"1";"[10,26,27,39]";"1";"0";"1"
"741";"17";"2";"1";"31";"1";"1";"9";"1";"[5,21,29]";"1";"0";"1"
"742";"24";"2";"1";"16";"1";"1";"9";"2";"[1,3,8,21,24]";"2";"0";"1"
"743";"29";"3";"1";"2";"1";"1";"9";"1";"[15,36,39]";"1";"0";"1"
"744";"14";"3";"1";"29";"1";"1";"9";"1";"[3,9,12,31,39]";"1";"0";"1"
"745";"3";"3";"1";"30";"1";"1";"9";"1";"[13]";"1";"0";"1"
"746";"15";"3";"1";"22";"1";"1";"9";"1";"[14,26,27,39]";"1";"0";"1"
"747";"26";"3";"1";"11";"1";"1";"9";"1";"[5,15,26,35]";"1";"0";"1"
"748";"40";"3";"1";"39";"1";"1";"9";"1";"[2,19,22,29]";"1";"0";"1"
"749";"31";"3";"1";"18";"1";"1";"9";"2";"[17,23]";"2";"0";"1"
"750";"1";"3";"1";"32";"1";"1";"9";"1";"[6,21,26,33,36]";"1";"0";"1"
"751";"28";"3";"1";"1";"1";"1";"9";"2";"[4,16,17]";"2";"0";"1"
"752";"10";"3";"1";"19";"1";"1";"9";"1";"[10,26,27,39]";"1";"0";"1"
"753";"5";"3";"1";"33";"1";"1";"9";"1";"[10,21,32,37]";"1";"0";"1"
"754";"24";"3";"1";"16";"1";"1";"9";"2";"[1,3,8,21,24]";"2";"0";"1"
"755";"29";"4";"1";"2";"1";"1";"9";"1";"[15,36,39]";"1";"0";"1"
"756";"14";"4";"1";"29";"1";"1";"9";"1";"[3,9,12,31,39]";"1";"0";"1"
"757";"6";"4";"1";"28";"1";"1";"9";"1";"[10,17,21,24,26,34]";"1";"0";"1"
"758";"25";"4";"1";"26";"1";"1";"9";"1";"[6,11,19,21,22,25,28,32,40]";"1";"0";"1"
"759";"3";"4";"1";"30";"1";"1";"9";"1";"[13]";"1";"0";"1"
"760";"7";"4";"1";"12";"1";"1";"9";"1";"[10,29]";"1";"0";"1"
"761";"39";"4";"1";"5";"1";"1";"9";"2";"[6,11,21,31]";"1";"0";"1"
"762";"15";"4";"1";"22";"1";"1";"9";"1";"[14,26,27,39]";"1";"0";"1"
"763";"26";"4";"1";"11";"1";"1";"9";"1";"[5,15,26,35]";"1";"0";"1"
"764";"40";"4";"1";"39";"1";"1";"9";"1";"[2,19,22,29]";"1";"0";"1"
"765";"31";"4";"1";"18";"1";"1";"9";"2";"[17,23]";"2";"0";"1"
"766";"1";"4";"1";"32";"1";"1";"9";"1";"[6,21,26,33,36]";"1";"0";"1"
"767";"28";"4";"1";"1";"1";"1";"9";"2";"[4,16,17]";"2";"0";"1"
"768";"37";"4";"1";"8";"1";"1";"9";"1";"[7,14,16]";"1";"0";"1"
"769";"5";"4";"1";"33";"1";"1";"9";"1";"[10,21,32,37]";"1";"0";"1"
"770";"6";"5";"1";"28";"1";"1";"9";"1";"[10,17,21,24,26,34]";"1";"0";"1"
"771";"25";"5";"1";"26";"1";"1";"9";"1";"[6,11,19,21,22,25,28,32,40]";"1";"0";"1"
"772";"7";"5";"1";"12";"1";"1";"9";"1";"[10,29]";"1";"0";"1"
"773";"39";"5";"1";"5";"1";"1";"9";"2";"[6,11,21,31]";"1";"0";"1"
"774";"19";"5";"1";"6";"1";"1";"9";"1";"[5,26,32]";"1";"0";"1"
"775";"37";"5";"1";"8";"1";"1";"9";"1";"[7,14,16]";"1";"0";"1"
"776";"19";"6";"1";"6";"1";"1";"9";"1";"[5,26,32]";"1";"0";"1"
"777";"30";"6";"1";"37";"1";"1";"9";"2";"[14,27,33]";"1";"0";"1"
"778";"9";"6";"1";"24";"1";"1";"9";"1";"[16,27,28,36]";"1";"0";"1"
"779";"22";"7";"1";"25";"1";"1";"9";"1";"[4,15,17,20,26]";"2";"0";"1"
"780";"30";"7";"1";"37";"1";"1";"9";"2";"[14,27,33]";"1";"0";"1"
"781";"9";"7";"1";"24";"1";"1";"9";"1";"[16,27,28,36]";"1";"0";"1"
"782";"32";"8";"1";"21";"1";"1";"9";"2";"[5,13,16,26,28,31,32,33,36]";"1";"0";"1"
"783";"16";"8";"1";"13";"1";"1";"9";"1";"[21,30]";"1";"0";"1"
"784";"23";"8";"1";"10";"1";"1";"9";"1";"[12,19,28,33,38]";"1";"0";"1"
"785";"35";"8";"1";"35";"1";"1";"9";"1";"[9,11]";"1";"0";"1"
"786";"22";"8";"1";"25";"1";"1";"9";"1";"[4,15,17,20,26]";"2";"0";"1"
"787";"18";"8";"1";"9";"1";"1";"9";"2";"[29,35]";"1";"0";"1"
"788";"13";"8";"1";"14";"1";"1";"9";"1";"[4,8,17,22,37,40]";"0";"7";"1"
"789";"12";"8";"1";"38";"1";"1";"9";"1";"[10,17]";"1";"0";"1"
"790";"32";"9";"1";"21";"1";"1";"9";"2";"[5,13,16,26,28,31,32,33,36]";"1";"0";"1"
"791";"16";"9";"1";"13";"1";"1";"9";"1";"[21,30]";"1";"0";"1"
"792";"23";"9";"1";"10";"1";"1";"9";"1";"[12,19,28,33,38]";"1";"0";"1"
"793";"35";"9";"1";"35";"1";"1";"9";"1";"[9,11]";"1";"0";"1"
"794";"13";"9";"1";"14";"1";"1";"9";"1";"[4,8,17,22,37,40]";"0";"5";"1"
"795";"18";"9";"1";"9";"1";"1";"9";"2";"[29,35]";"1";"0";"1"
"796";"12";"9";"1";"38";"1";"1";"9";"1";"[10,17]";"1";"0";"1"
"797";"8";"10";"1";"7";"1";"1";"9";"1";"[3,8,17,20]";"1";"0";"1"
"798";"34";"10";"1";"27";"1";"1";"9";"1";"[19,22,23,24,37]";"0";"7";"1"
"799";"8";"11";"1";"7";"1";"1";"9";"1";"[3,8,17,20]";"1";"0";"1"
"800";"13";"11";"1";"14";"1";"1";"9";"1";"[4,8,17,22,37,40]";"0";"4";"1"
"801";"36";"11";"1";"20";"1";"1";"9";"1";"[3,7,25]";"2";"0";"1"
"802";"27";"11";"1";"23";"1";"1";"9";"2";"[18,27,40]";"2";"0";"1"
"803";"20";"12";"1";"36";"1";"1";"9";"1";"[2,21,24,32]";"1";"0";"1"
"804";"36";"12";"1";"20";"1";"1";"9";"1";"[3,7,25]";"2";"0";"1"
"805";"4";"12";"1";"40";"1";"1";"9";"1";"[3,14,23,26]";"1";"0";"1"
"806";"13";"12";"1";"14";"1";"1";"9";"1";"[4,8,17,22,37,40]";"0";"6";"1"
"807";"21";"12";"1";"34";"1";"1";"9";"2";"[28]";"1";"0";"1"
"808";"34";"12";"1";"27";"1";"1";"9";"1";"[19,22,23,24,37]";"0";"8";"1"
"809";"33";"12";"1";"15";"1";"1";"9";"2";"[2,3,11,25]";"2";"0";"1"
"810";"27";"12";"1";"23";"1";"1";"9";"2";"[18,27,40]";"2";"0";"1"
"811";"20";"13";"1";"36";"1";"1";"9";"1";"[2,21,24,32]";"1";"0";"1"
"812";"4";"13";"1";"40";"1";"1";"9";"1";"[3,14,23,26]";"1";"0";"1"
"813";"38";"13";"1";"4";"1";"1";"9";"1";"[1,14,17,25]";"1";"0";"1"
"814";"21";"13";"1";"34";"1";"1";"9";"2";"[28]";"1";"0";"1"
"815";"13";"13";"1";"14";"1";"1";"9";"1";"[4,8,17,22,37,40]";"0";"7";"1"
"816";"33";"13";"1";"15";"1";"1";"9";"2";"[2,3,11,25]";"2";"0";"1"
"817";"38";"14";"1";"4";"1";"1";"9";"1";"[1,14,17,25]";"1";"0";"1"
"818";"11";"14";"1";"17";"1";"1";"9";"1";"[1,4,7,14,18,25,28,38]";"2";"0";"1"
"819";"13";"14";"1";"14";"1";"1";"9";"1";"[4,8,17,22,37,40]";"2";"7";"1"
"820";"11";"15";"1";"17";"1";"1";"9";"1";"[1,4,7,14,18,25,28,38]";"2";"0";"1"
"821";"13";"16";"1";"14";"1";"1";"9";"1";"[4,8,17,22,37,40]";"2";"7";"1"
"822";"2";"16";"1";"3";"1";"1";"9";"1";"[7,15,16,20,29,40]";"2";"0";"1"
"823";"2";"17";"1";"3";"1";"1";"9";"1";"[7,15,16,20,29,40]";"2";"0";"1"
"824";"34";"23";"1";"27";"1";"1";"9";"1";"[19,22,23,24,37]";"1";"8";"1"
"825";"34";"24";"1";"27";"1";"1";"9";"1";"[19,22,23,24,37]";"1";"8";"1"
"826";"35";"1";"1";"35";"1";"1";"10";"1";"[9,11]";"1";"0";"1"
"827";"24";"1";"1";"16";"1";"1";"10";"2";"[1,3,8,21,24]";"2";"0";"1"
"828";"9";"2";"1";"24";"1";"1";"10";"1";"[16,27,28,36]";"1";"0";"1"
"829";"5";"2";"1";"33";"1";"1";"10";"1";"[10,21,32,37]";"1";"0";"1"
"830";"35";"2";"1";"35";"1";"1";"10";"1";"[9,11]";"1";"0";"1"
"831";"31";"2";"1";"18";"1";"1";"10";"2";"[17,23]";"2";"0";"1"
"832";"40";"2";"1";"39";"1";"1";"10";"1";"[2,19,22,29]";"1";"0";"1"
"833";"24";"2";"1";"16";"1";"1";"10";"2";"[1,3,8,21,24]";"2";"0";"1"
"834";"28";"2";"1";"1";"1";"1";"10";"2";"[4,16,17]";"2";"0";"1"
"835";"19";"3";"1";"6";"1";"1";"10";"1";"[5,26,32]";"1";"0";"1"
"836";"29";"3";"1";"2";"1";"1";"10";"1";"[15,36,39]";"1";"0";"1"
"837";"9";"3";"1";"24";"1";"1";"10";"1";"[16,27,28,36]";"1";"0";"1"
"838";"26";"3";"1";"11";"1";"1";"10";"1";"[5,15,26,35]";"1";"0";"1"
"839";"7";"3";"1";"12";"1";"1";"10";"1";"[10,29]";"1";"0";"1"
"840";"5";"3";"1";"33";"1";"1";"10";"1";"[10,21,32,37]";"1";"0";"1"
"841";"31";"3";"1";"18";"1";"1";"10";"2";"[17,23]";"2";"0";"1"
"842";"6";"3";"1";"28";"1";"1";"10";"1";"[10,17,21,24,26,34]";"1";"0";"1"
"843";"40";"3";"1";"39";"1";"1";"10";"1";"[2,19,22,29]";"1";"0";"1"
"844";"18";"3";"1";"9";"1";"1";"10";"2";"[29,35]";"2";"0";"1"
"845";"28";"3";"1";"1";"1";"1";"10";"2";"[4,16,17]";"2";"0";"1"
"846";"15";"3";"1";"22";"1";"1";"10";"1";"[14,26,27,39]";"1";"0";"1"
"847";"14";"3";"1";"29";"1";"1";"10";"1";"[3,9,12,31,39]";"1";"0";"1"
"848";"1";"3";"1";"32";"1";"1";"10";"1";"[6,21,26,33,36]";"1";"0";"1"
"849";"16";"3";"1";"13";"1";"1";"10";"1";"[21,30]";"1";"0";"1"
"850";"19";"4";"1";"6";"1";"1";"10";"1";"[5,26,32]";"1";"0";"1"
"851";"39";"4";"1";"5";"1";"1";"10";"2";"[6,11,21,31]";"1";"0";"1"
"852";"32";"4";"1";"21";"1";"1";"10";"2";"[5,13,16,26,28,31,32,33,36]";"1";"0";"1"
"853";"29";"4";"1";"2";"1";"1";"10";"1";"[15,36,39]";"1";"0";"1"
"854";"3";"4";"1";"30";"1";"1";"10";"1";"[13]";"1";"0";"1"
"855";"26";"4";"1";"11";"1";"1";"10";"1";"[5,15,26,35]";"1";"0";"1"
"856";"23";"4";"1";"10";"1";"1";"10";"1";"[12,19,28,33,38]";"1";"0";"1"
"857";"8";"4";"1";"7";"1";"1";"10";"1";"[3,8,17,20]";"2";"0";"1"
"858";"7";"4";"1";"12";"1";"1";"10";"1";"[10,29]";"1";"0";"1"
"859";"36";"4";"1";"20";"1";"1";"10";"1";"[3,7,25]";"2";"0";"1"
"860";"17";"4";"1";"31";"1";"1";"10";"1";"[5,21,29]";"1";"0";"1"
"861";"6";"4";"1";"28";"1";"1";"10";"1";"[10,17,21,24,26,34]";"1";"0";"1"
"862";"18";"4";"1";"9";"1";"1";"10";"2";"[29,35]";"2";"0";"1"
"863";"15";"4";"1";"22";"1";"1";"10";"1";"[14,26,27,39]";"1";"0";"1"
"864";"14";"4";"1";"29";"1";"1";"10";"1";"[3,9,12,31,39]";"1";"0";"1"
"865";"1";"4";"1";"32";"1";"1";"10";"1";"[6,21,26,33,36]";"1";"0";"1"
"866";"33";"4";"1";"15";"1";"1";"10";"2";"[2,3,11,25]";"2";"0";"1"
"867";"16";"4";"1";"13";"1";"1";"10";"1";"[21,30]";"1";"0";"1"
"868";"27";"5";"1";"23";"1";"1";"10";"2";"[18,27,40]";"2";"0";"1"
"869";"39";"5";"1";"5";"1";"1";"10";"2";"[6,11,21,31]";"1";"0";"1"
"870";"32";"5";"1";"21";"1";"1";"10";"2";"[5,13,16,26,28,31,32,33,36]";"1";"0";"1"
"871";"3";"5";"1";"30";"1";"1";"10";"1";"[13]";"1";"0";"1"
"872";"23";"5";"1";"10";"1";"1";"10";"1";"[12,19,28,33,38]";"1";"0";"1"
"873";"8";"5";"1";"7";"1";"1";"10";"1";"[3,8,17,20]";"2";"0";"1"
"874";"36";"5";"1";"20";"1";"1";"10";"1";"[3,7,25]";"2";"0";"1"
"875";"17";"5";"1";"31";"1";"1";"10";"1";"[5,21,29]";"1";"0";"1"
"876";"30";"5";"1";"37";"1";"1";"10";"2";"[14,27,33]";"1";"0";"1"
"877";"33";"5";"1";"15";"1";"1";"10";"2";"[2,3,11,25]";"2";"0";"1"
"878";"27";"6";"1";"23";"1";"1";"10";"2";"[18,27,40]";"2";"0";"1"
"879";"12";"6";"1";"38";"1";"1";"10";"1";"[10,17]";"1";"0";"1"
"880";"25";"6";"1";"26";"1";"1";"10";"1";"[6,11,19,21,22,25,28,32,40]";"1";"0";"1"
"881";"30";"6";"1";"37";"1";"1";"10";"2";"[14,27,33]";"1";"0";"1"
"882";"13";"6";"1";"14";"1";"1";"10";"1";"[4,8,17,22,37,40]";"1";"0";"1"
"883";"22";"7";"1";"25";"1";"1";"10";"1";"[4,15,17,20,26]";"1";"0";"1"
"884";"10";"7";"1";"19";"1";"1";"10";"1";"[10,26,27,39]";"1";"0";"1"
"885";"12";"7";"1";"38";"1";"1";"10";"1";"[10,17]";"1";"0";"1"
"886";"25";"7";"1";"26";"1";"1";"10";"1";"[6,11,19,21,22,25,28,32,40]";"1";"0";"1"
"887";"20";"7";"1";"36";"1";"1";"10";"1";"[2,21,24,32]";"1";"0";"1"
"888";"13";"7";"1";"14";"1";"1";"10";"1";"[4,8,17,22,37,40]";"1";"0";"1"
"889";"22";"8";"1";"25";"1";"1";"10";"1";"[4,15,17,20,26]";"1";"0";"1"
"890";"10";"8";"1";"19";"1";"1";"10";"1";"[10,26,27,39]";"1";"0";"1"
"891";"34";"8";"1";"27";"1";"1";"10";"1";"[19,22,23,24,37]";"0";"8";"1"
"892";"20";"8";"1";"36";"1";"1";"10";"1";"[2,21,24,32]";"1";"0";"1"
"893";"21";"9";"1";"34";"1";"1";"10";"2";"[28]";"2";"0";"1"
"894";"33";"9";"1";"15";"1";"1";"10";"2";"[2,3,11,25]";"2";"2";"1"
"895";"21";"10";"1";"34";"1";"1";"10";"2";"[28]";"2";"0";"1"
"896";"34";"11";"1";"27";"1";"1";"10";"1";"[19,22,23,24,37]";"0";"9";"1"
"897";"38";"11";"1";"4";"1";"1";"10";"1";"[1,14,17,25]";"2";"0";"1"
"898";"33";"11";"1";"15";"1";"1";"10";"2";"[2,3,11,25]";"2";"1";"1"
"899";"38";"12";"1";"4";"1";"1";"10";"1";"[1,14,17,25]";"2";"0";"1"
"900";"33";"12";"1";"15";"1";"1";"10";"2";"[2,3,11,25]";"2";"2";"1"
"901";"37";"13";"1";"8";"1";"1";"10";"1";"[7,14,16]";"1";"0";"1"
"902";"33";"13";"1";"15";"1";"1";"10";"2";"[2,3,11,25]";"2";"3";"1"
"903";"34";"14";"1";"27";"1";"1";"10";"1";"[19,22,23,24,37]";"0";"10";"1"
"904";"37";"14";"1";"8";"1";"1";"10";"1";"[7,14,16]";"1";"0";"1"
"905";"33";"14";"1";"15";"1";"1";"10";"2";"[2,3,11,25]";"2";"4";"1"
"906";"4";"15";"1";"40";"1";"1";"10";"1";"[3,14,23,26]";"1";"0";"1"
"907";"4";"16";"1";"40";"1";"1";"10";"1";"[3,14,23,26]";"1";"0";"1"
"908";"33";"17";"1";"15";"1";"1";"10";"2";"[2,3,11,25]";"2";"5";"1"
"909";"33";"18";"1";"15";"1";"1";"10";"2";"[2,3,11,25]";"2";"6";"1"
"910";"34";"20";"1";"27";"1";"1";"10";"1";"[19,22,23,24,37]";"1";"10";"1"
"911";"34";"21";"1";"27";"1";"1";"10";"1";"[19,22,23,24,37]";"1";"10";"1"
"912";"2";"22";"1";"3";"1";"1";"10";"1";"[7,15,16,20,29,40]";"2";"0";"1"
"913";"2";"23";"1";"3";"1";"1";"10";"1";"[7,15,16,20,29,40]";"2";"0";"1"
"914";"11";"25";"1";"17";"1";"1";"10";"1";"[1,4,7,14,18,25,28,38]";"1";"0";"1"
"915";"11";"26";"1";"17";"1";"1";"10";"1";"[1,4,7,14,18,25,28,38]";"1";"0";"1"
"916";"35";"1";"1";"35";"1";"1";"11";"1";"[9,11]";"1";"0";"1"
"917";"10";"1";"1";"19";"1";"1";"11";"1";"[10,26,27,39]";"1";"0";"1"
"918";"31";"2";"1";"18";"1";"1";"11";"2";"[17,23]";"2";"0";"1"
"919";"28";"2";"1";"1";"1";"1";"11";"2";"[4,16,17]";"2";"0";"1"
"920";"24";"2";"1";"16";"1";"1";"11";"2";"[1,3,8,21,24]";"2";"0";"1"
"921";"29";"2";"1";"2";"1";"1";"11";"1";"[15,36,39]";"1";"0";"1"
"922";"7";"2";"1";"12";"1";"1";"11";"1";"[10,29]";"1";"0";"1"
"923";"33";"2";"1";"15";"1";"1";"11";"2";"[2,3,11,25]";"1";"0";"1"
"924";"3";"2";"1";"30";"1";"1";"11";"1";"[13]";"1";"0";"1"
"925";"40";"2";"1";"39";"1";"1";"11";"1";"[2,19,22,29]";"1";"0";"1"
"926";"35";"2";"1";"35";"1";"1";"11";"1";"[9,11]";"1";"0";"1"
"927";"30";"2";"1";"37";"1";"1";"11";"2";"[14,27,33]";"1";"0";"1"
"928";"26";"2";"1";"11";"1";"1";"11";"1";"[5,15,26,35]";"1";"0";"1"
"929";"10";"3";"1";"19";"1";"1";"11";"1";"[10,26,27,39]";"1";"0";"1"
"930";"31";"3";"1";"18";"1";"1";"11";"2";"[17,23]";"2";"0";"1"
"931";"28";"3";"1";"1";"1";"1";"11";"2";"[4,16,17]";"2";"0";"1"
"932";"24";"3";"1";"16";"1";"1";"11";"2";"[1,3,8,21,24]";"2";"0";"1"
"933";"29";"3";"1";"2";"1";"1";"11";"1";"[15,36,39]";"1";"0";"1"
"934";"7";"3";"1";"12";"1";"1";"11";"1";"[10,29]";"1";"0";"1"
"935";"36";"3";"1";"20";"1";"1";"11";"1";"[3,7,25]";"2";"0";"1"
"936";"18";"3";"1";"9";"1";"1";"11";"2";"[29,35]";"2";"0";"1"
"937";"12";"3";"1";"38";"1";"1";"11";"1";"[10,17]";"1";"0";"1"
"938";"19";"3";"1";"6";"1";"1";"11";"1";"[5,26,32]";"1";"0";"1"
"939";"33";"3";"1";"15";"1";"1";"11";"2";"[2,3,11,25]";"1";"0";"1"
"940";"14";"3";"1";"29";"1";"1";"11";"1";"[3,9,12,31,39]";"1";"0";"1"
"941";"3";"3";"1";"30";"1";"1";"11";"1";"[13]";"1";"0";"1"
"942";"40";"3";"1";"39";"1";"1";"11";"1";"[2,19,22,29]";"1";"0";"1"
"943";"15";"3";"1";"22";"1";"1";"11";"1";"[14,26,27,39]";"1";"0";"1"
"944";"27";"3";"1";"23";"1";"1";"11";"2";"[18,27,40]";"2";"0";"1"
"945";"25";"3";"1";"26";"1";"1";"11";"1";"[6,11,19,21,22,25,28,32,40]";"1";"0";"1"
"946";"5";"3";"1";"33";"1";"1";"11";"1";"[10,21,32,37]";"1";"0";"1"
"947";"30";"3";"1";"37";"1";"1";"11";"2";"[14,27,33]";"1";"0";"1"
"948";"26";"3";"1";"11";"1";"1";"11";"1";"[5,15,26,35]";"1";"0";"1"
"949";"32";"4";"1";"21";"1";"1";"11";"2";"[5,13,16,26,28,31,32,33,36]";"1";"0";"1"
"950";"36";"4";"1";"20";"1";"1";"11";"1";"[3,7,25]";"2";"0";"1"
"951";"18";"4";"1";"9";"1";"1";"11";"2";"[29,35]";"2";"0";"1"
"952";"12";"4";"1";"38";"1";"1";"11";"1";"[10,17]";"1";"0";"1"
"953";"39";"4";"1";"5";"1";"1";"11";"2";"[6,11,21,31]";"2";"0";"1"
"954";"23";"4";"1";"10";"1";"1";"11";"1";"[12,19,28,33,38]";"1";"0";"1"
"955";"19";"4";"1";"6";"1";"1";"11";"1";"[5,26,32]";"1";"0";"1"
"956";"14";"4";"1";"29";"1";"1";"11";"1";"[3,9,12,31,39]";"1";"0";"1"
"957";"15";"4";"1";"22";"1";"1";"11";"1";"[14,26,27,39]";"1";"0";"1"
"958";"25";"4";"1";"26";"1";"1";"11";"1";"[6,11,19,21,22,25,28,32,40]";"1";"0";"1"
"959";"27";"4";"1";"23";"1";"1";"11";"2";"[18,27,40]";"2";"0";"1"
"960";"5";"4";"1";"33";"1";"1";"11";"1";"[10,21,32,37]";"1";"0";"1"
"961";"9";"5";"1";"24";"1";"1";"11";"1";"[16,27,28,36]";"1";"0";"1"
"962";"32";"5";"1";"21";"1";"1";"11";"2";"[5,13,16,26,28,31,32,33,36]";"1";"0";"1"
"963";"6";"5";"1";"28";"1";"1";"11";"1";"[10,17,21,24,26,34]";"1";"0";"1"
"964";"39";"5";"1";"5";"1";"1";"11";"2";"[6,11,21,31]";"2";"0";"1"
"965";"23";"5";"1";"10";"1";"1";"11";"1";"[12,19,28,33,38]";"1";"0";"1"
"966";"22";"5";"1";"25";"1";"1";"11";"1";"[4,15,17,20,26]";"1";"0";"1"
"967";"1";"5";"1";"32";"1";"1";"11";"1";"[6,21,26,33,36]";"1";"0";"1"
"968";"9";"6";"1";"24";"1";"1";"11";"1";"[16,27,28,36]";"1";"0";"1"
"969";"6";"6";"1";"28";"1";"1";"11";"1";"[10,17,21,24,26,34]";"1";"0";"1"
"970";"22";"6";"1";"25";"1";"1";"11";"1";"[4,15,17,20,26]";"1";"0";"1"
"971";"1";"6";"1";"32";"1";"1";"11";"1";"[6,21,26,33,36]";"1";"0";"1"
"972";"8";"6";"1";"7";"1";"1";"11";"1";"[3,8,17,20]";"1";"0";"1"
"973";"16";"6";"1";"13";"1";"1";"11";"1";"[21,30]";"1";"0";"1"
"974";"17";"7";"1";"31";"1";"1";"11";"1";"[5,21,29]";"1";"0";"1"
"975";"20";"7";"1";"36";"1";"1";"11";"1";"[2,21,24,32]";"1";"0";"1"
"976";"8";"7";"1";"7";"1";"1";"11";"1";"[3,8,17,20]";"1";"0";"1"
"977";"16";"7";"1";"13";"1";"1";"11";"1";"[21,30]";"1";"0";"1"
"978";"38";"8";"1";"4";"1";"1";"11";"1";"[1,14,17,25]";"1";"0";"1"
"979";"11";"8";"1";"17";"1";"1";"11";"1";"[1,4,7,14,18,25,28,38]";"2";"0";"1"
"980";"17";"8";"1";"31";"1";"1";"11";"1";"[5,21,29]";"1";"0";"1"
"981";"20";"8";"1";"36";"1";"1";"11";"1";"[2,21,24,32]";"1";"0";"1"
"982";"38";"9";"1";"4";"1";"1";"11";"1";"[1,14,17,25]";"1";"0";"1"
"983";"11";"9";"1";"17";"1";"1";"11";"1";"[1,4,7,14,18,25,28,38]";"2";"0";"1"
"984";"21";"9";"1";"34";"1";"1";"11";"2";"[28]";"1";"0";"1"
"985";"21";"10";"1";"34";"1";"1";"11";"2";"[28]";"1";"0";"1"
"986";"37";"11";"1";"8";"1";"1";"11";"1";"[7,14,16]";"1";"0";"1"
"987";"37";"12";"1";"8";"1";"1";"11";"1";"[7,14,16]";"1";"0";"1"
"988";"37";"13";"1";"8";"1";"1";"11";"1";"[7,14,16]";"1";"9";"1"
"989";"4";"13";"1";"40";"1";"1";"11";"1";"[3,14,23,26]";"1";"0";"1"
"990";"13";"14";"1";"14";"1";"1";"11";"1";"[4,8,17,22,37,40]";"1";"0";"1"
"991";"4";"14";"1";"40";"1";"1";"11";"1";"[3,14,23,26]";"1";"0";"1"
"992";"37";"15";"1";"8";"1";"1";"11";"1";"[7,14,16]";"1";"10";"1"
"993";"13";"15";"1";"14";"1";"1";"11";"1";"[4,8,17,22,37,40]";"1";"0";"1"
"994";"33";"20";"1";"15";"1";"1";"11";"2";"[2,3,11,25]";"1";"9";"1"
"995";"33";"22";"1";"15";"1";"1";"11";"2";"[2,3,11,25]";"1";"8";"1"
"996";"37";"22";"1";"8";"1";"1";"11";"1";"[7,14,16]";"1";"11";"1"
"997";"34";"23";"1";"27";"1";"1";"11";"1";"[19,22,23,24,37]";"1";"0";"1"
"998";"33";"23";"1";"15";"1";"1";"11";"2";"[2,3,11,25]";"1";"7";"1"
"999";"34";"24";"1";"27";"1";"1";"11";"1";"[19,22,23,24,37]";"1";"0";"1"
"1000";"33";"25";"1";"15";"1";"1";"11";"2";"[2,3,11,25]";"1";"6";"1"
"1001";"2";"26";"1";"3";"1";"1";"11";"1";"[7,15,16,20,29,40]";"2";"0";"1"
"1002";"2";"27";"1";"3";"1";"1";"11";"1";"[7,15,16,20,29,40]";"2";"0";"1"
"1003";"33";"0";"1";"15";"1";"1";"12";"2";"[2,3,11,25]";"0";"11";"1"
"1004";"30";"0";"1";"37";"1";"1";"12";"2";"[14,27,33]";"0";"9";"1"
"1005";"35";"1";"1";"35";"1";"1";"12";"1";"[9,11]";"1";"0";"1"
"1006";"28";"1";"1";"1";"1";"1";"12";"2";"[4,16,17]";"2";"0";"1"
"1007";"30";"2";"1";"37";"1";"1";"12";"2";"[14,27,33]";"0";"10";"1"
"1008";"17";"2";"1";"31";"1";"1";"12";"1";"[5,21,29]";"1";"0";"1"
"1009";"10";"2";"1";"19";"1";"1";"12";"1";"[10,26,27,39]";"1";"0";"1"
"1010";"35";"2";"1";"35";"1";"1";"12";"1";"[9,11]";"1";"0";"1"
"1011";"28";"2";"1";"1";"1";"1";"12";"2";"[4,16,17]";"2";"0";"1"
"1012";"16";"2";"1";"13";"1";"1";"12";"1";"[21,30]";"1";"0";"1"
"1013";"29";"2";"1";"2";"1";"1";"12";"1";"[15,36,39]";"1";"0";"1"
"1014";"24";"2";"1";"16";"1";"1";"12";"2";"[1,3,8,21,24]";"2";"0";"1"
"1015";"19";"3";"1";"6";"1";"1";"12";"1";"[5,26,32]";"1";"0";"1"
"1016";"37";"3";"1";"8";"1";"1";"12";"1";"[7,14,16]";"1";"0";"1"
"1017";"18";"3";"1";"9";"1";"1";"12";"2";"[29,35]";"2";"0";"1"
"1018";"3";"3";"1";"30";"1";"1";"12";"1";"[13]";"1";"0";"1"
"1019";"17";"3";"1";"31";"1";"1";"12";"1";"[5,21,29]";"1";"0";"1"
"1020";"30";"3";"1";"37";"1";"1";"12";"2";"[14,27,33]";"0";"11";"1"
"1021";"10";"3";"1";"19";"1";"1";"12";"1";"[10,26,27,39]";"1";"0";"1"
"1022";"20";"3";"1";"36";"1";"1";"12";"1";"[2,21,24,32]";"1";"0";"1"
"1023";"9";"3";"1";"24";"1";"1";"12";"1";"[16,27,28,36]";"1";"0";"1"
"1024";"7";"3";"1";"12";"1";"1";"12";"1";"[10,29]";"1";"0";"1"
"1025";"39";"3";"1";"5";"1";"1";"12";"2";"[6,11,21,31]";"1";"0";"1"
"1026";"1";"3";"1";"32";"1";"1";"12";"1";"[6,21,26,33,36]";"1";"0";"1"
"1027";"31";"3";"1";"18";"1";"1";"12";"2";"[17,23]";"2";"0";"1"
"1028";"16";"3";"1";"13";"1";"1";"12";"1";"[21,30]";"1";"0";"1"
"1029";"29";"3";"1";"2";"1";"1";"12";"1";"[15,36,39]";"1";"0";"1"
"1030";"40";"3";"1";"39";"1";"1";"12";"1";"[2,19,22,29]";"1";"0";"1"
"1031";"8";"3";"1";"7";"1";"1";"12";"1";"[3,8,17,20]";"2";"0";"1"
"1032";"24";"3";"1";"16";"1";"1";"12";"2";"[1,3,8,21,24]";"2";"0";"1"
"1033";"19";"4";"1";"6";"1";"1";"12";"1";"[5,26,32]";"1";"0";"1"
"1034";"15";"4";"1";"22";"1";"1";"12";"1";"[14,26,27,39]";"1";"0";"1"
"1035";"37";"4";"1";"8";"1";"1";"12";"1";"[7,14,16]";"1";"0";"1"
"1036";"26";"4";"1";"11";"1";"1";"12";"1";"[5,15,26,35]";"1";"0";"1"
"1037";"27";"4";"1";"23";"1";"1";"12";"2";"[18,27,40]";"2";"0";"1"
"1038";"18";"4";"1";"9";"1";"1";"12";"2";"[29,35]";"2";"0";"1"
"1039";"3";"4";"1";"30";"1";"1";"12";"1";"[13]";"1";"0";"1"
"1040";"5";"4";"1";"33";"1";"1";"12";"1";"[10,21,32,37]";"1";"0";"1"
"1041";"20";"4";"1";"36";"1";"1";"12";"1";"[2,21,24,32]";"1";"0";"1"
"1042";"9";"4";"1";"24";"1";"1";"12";"1";"[16,27,28,36]";"1";"0";"1"
"1043";"7";"4";"1";"12";"1";"1";"12";"1";"[10,29]";"1";"0";"1"
"1044";"39";"4";"1";"5";"1";"1";"12";"2";"[6,11,21,31]";"1";"0";"1"
"1045";"1";"4";"1";"32";"1";"1";"12";"1";"[6,21,26,33,36]";"1";"0";"1"
"1046";"31";"4";"1";"18";"1";"1";"12";"2";"[17,23]";"2";"0";"1"
"1047";"14";"4";"1";"29";"1";"1";"12";"1";"[3,9,12,31,39]";"1";"0";"1"
"1048";"38";"4";"1";"4";"1";"1";"12";"1";"[1,14,17,25]";"1";"0";"1"
"1049";"40";"4";"1";"39";"1";"1";"12";"1";"[2,19,22,29]";"1";"0";"1"
"1050";"8";"4";"1";"7";"1";"1";"12";"1";"[3,8,17,20]";"2";"0";"1"
"1051";"6";"4";"1";"28";"1";"1";"12";"1";"[10,17,21,24,26,34]";"1";"0";"1"
"1052";"36";"4";"1";"20";"1";"1";"12";"1";"[3,7,25]";"1";"0";"1"
"1053";"15";"5";"1";"22";"1";"1";"12";"1";"[14,26,27,39]";"1";"0";"1"
"1054";"26";"5";"1";"11";"1";"1";"12";"1";"[5,15,26,35]";"1";"0";"1"
"1055";"23";"5";"1";"10";"1";"1";"12";"1";"[12,19,28,33,38]";"1";"0";"1"
"1056";"27";"5";"1";"23";"1";"1";"12";"2";"[18,27,40]";"2";"0";"1"
"1057";"5";"5";"1";"33";"1";"1";"12";"1";"[10,21,32,37]";"1";"0";"1"
"1058";"25";"5";"1";"26";"1";"1";"12";"1";"[6,11,19,21,22,25,28,32,40]";"1";"0";"1"
"1059";"14";"5";"1";"29";"1";"1";"12";"1";"[3,9,12,31,39]";"1";"0";"1"
"1060";"38";"5";"1";"4";"1";"1";"12";"1";"[1,14,17,25]";"1";"0";"1"
"1061";"30";"5";"1";"37";"1";"1";"12";"2";"[14,27,33]";"0";"12";"1"
"1062";"6";"5";"1";"28";"1";"1";"12";"1";"[10,17,21,24,26,34]";"1";"0";"1"
"1063";"36";"5";"1";"20";"1";"1";"12";"1";"[3,7,25]";"1";"0";"1"
"1064";"23";"6";"1";"10";"1";"1";"12";"1";"[12,19,28,33,38]";"1";"0";"1"
"1065";"25";"6";"1";"26";"1";"1";"12";"1";"[6,11,19,21,22,25,28,32,40]";"1";"0";"1"
"1066";"21";"6";"1";"34";"1";"1";"12";"2";"[28]";"2";"0";"1"
"1067";"21";"7";"1";"34";"1";"1";"12";"2";"[28]";"2";"0";"1"
"1068";"30";"9";"1";"37";"1";"1";"12";"2";"[14,27,33]";"1";"12";"1"
"1069";"22";"9";"1";"25";"1";"1";"12";"1";"[4,15,17,20,26]";"1";"0";"1"
"1070";"13";"10";"1";"14";"1";"1";"12";"1";"[4,8,17,22,37,40]";"1";"0";"1"
"1071";"30";"10";"1";"37";"1";"1";"12";"2";"[14,27,33]";"1";"12";"1"
"1072";"22";"10";"1";"25";"1";"1";"12";"1";"[4,15,17,20,26]";"1";"0";"1"
"1073";"13";"11";"1";"14";"1";"1";"12";"1";"[4,8,17,22,37,40]";"1";"0";"1"
"1074";"33";"12";"1";"15";"1";"1";"12";"2";"[2,3,11,25]";"1";"11";"1"
"1075";"12";"12";"1";"38";"1";"1";"12";"1";"[10,17]";"1";"0";"1"
"1076";"33";"13";"1";"15";"1";"1";"12";"2";"[2,3,11,25]";"1";"11";"1"
"1077";"12";"13";"1";"38";"1";"1";"12";"1";"[10,17]";"1";"0";"1"
"1078";"11";"15";"1";"17";"1";"1";"12";"1";"[1,4,7,14,18,25,28,38]";"2";"0";"1"
"1079";"11";"16";"1";"17";"1";"1";"12";"1";"[1,4,7,14,18,25,28,38]";"2";"0";"1"
"1080";"32";"17";"1";"21";"1";"1";"12";"2";"[5,13,16,26,28,31,32,33,36]";"1";"0";"1"
"1081";"2";"18";"1";"3";"1";"1";"12";"1";"[7,15,16,20,29,40]";"2";"0";"1"
"1082";"32";"18";"1";"21";"1";"1";"12";"2";"[5,13,16,26,28,31,32,33,36]";"1";"0";"1"
"1083";"2";"19";"1";"3";"1";"1";"12";"1";"[7,15,16,20,29,40]";"2";"0";"1"
"1084";"34";"22";"1";"27";"1";"1";"12";"1";"[19,22,23,24,37]";"1";"0";"1"
"1085";"4";"23";"1";"40";"1";"1";"12";"1";"[3,14,23,26]";"1";"0";"1"
"1086";"34";"23";"1";"27";"1";"1";"12";"1";"[19,22,23,24,37]";"1";"0";"1"
"1087";"4";"24";"1";"40";"1";"1";"12";"1";"[3,14,23,26]";"1";"0";"1"
"1088";"17";"0";"1";"32";"1";"2";"12";"2";"[6,21,26,33,36]";"1";"0";"1"
"1089";"26";"0";"1";"1";"1";"2";"12";"2";"[4,16,17]";"2";"0";"1"
"1090";"5";"0";"1";"38";"1";"2";"12";"1";"[10,17]";"1";"0";"1"
"1091";"1";"0";"1";"39";"1";"2";"12";"2";"[2,19,22,29]";"1";"0";"1"
"1092";"10";"0";"1";"9";"1";"2";"12";"2";"[29,35]";"2";"0";"1"
"1093";"19";"0";"1";"2";"1";"2";"12";"2";"[15,36,39]";"1";"0";"1"
"1094";"7";"0";"1";"35";"1";"2";"12";"1";"[9,11]";"1";"0";"1"
"1095";"4";"0";"1";"14";"1";"2";"12";"2";"[4,8,17,22,37,40]";"1";"0";"1"
"1096";"3";"0";"1";"20";"1";"2";"12";"2";"[3,7,25]";"1";"0";"1"
"1097";"27";"0";"1";"37";"1";"2";"12";"2";"[14,27,33]";"1";"12";"1"
"1098";"37";"0";"1";"16";"1";"2";"12";"2";"[1,3,8,21,24]";"2";"0";"1"
"1099";"24";"0";"1";"27";"1";"2";"12";"2";"[19,22,23,24,37]";"1";"0";"1"
"1100";"21";"0";"1";"3";"1";"2";"12";"2";"[7,15,16,20,29,40]";"2";"0";"1"
"1101";"16";"0";"1";"8";"1";"2";"12";"2";"[7,14,16]";"1";"0";"1"
"1102";"32";"0";"1";"17";"1";"2";"12";"1";"[1,4,7,14,18,25,28,38]";"2";"0";"1"
"1103";"23";"0";"1";"18";"1";"2";"12";"2";"[17,23]";"2";"0";"1"
"1104";"11";"0";"1";"34";"1";"2";"12";"2";"[28]";"2";"0";"1"
"1105";"8";"0";"1";"13";"1";"2";"12";"2";"[21,30]";"1";"0";"1"
"1106";"35";"0";"1";"25";"1";"2";"12";"2";"[4,15,17,20,26]";"1";"0";"1"
"1107";"12";"0";"1";"28";"1";"2";"12";"1";"[10,17,21,24,26,34]";"1";"0";"1"
"1108";"22";"0";"1";"23";"1";"2";"12";"1";"[18,27,40]";"2";"0";"1"
"1109";"40";"0";"1";"6";"1";"2";"12";"2";"[5,26,32]";"1";"0";"1"
"1110";"28";"0";"1";"22";"1";"2";"12";"1";"[14,26,27,39]";"1";"0";"1"
"1111";"34";"0";"1";"33";"1";"2";"12";"2";"[10,21,32,37]";"1";"0";"1"
"1112";"20";"0";"1";"40";"1";"2";"12";"2";"[3,14,23,26]";"1";"0";"1"
"1113";"38";"0";"1";"4";"1";"2";"12";"2";"[1,14,17,25]";"1";"0";"1"
"1114";"14";"0";"1";"12";"1";"2";"12";"2";"[10,29]";"1";"0";"1"
"1115";"15";"0";"1";"19";"1";"2";"12";"2";"[10,26,27,39]";"1";"0";"1"
"1116";"33";"0";"1";"11";"1";"2";"12";"2";"[5,15,26,35]";"1";"0";"1"
"1117";"25";"0";"1";"29";"1";"2";"12";"2";"[3,9,12,31,39]";"1";"0";"1"
"1118";"18";"0";"1";"7";"1";"2";"12";"2";"[3,8,17,20]";"2";"0";"1"
"1119";"2";"0";"1";"15";"1";"2";"12";"2";"[2,3,11,25]";"1";"11";"1"
"1120";"9";"0";"1";"5";"1";"2";"12";"2";"[6,11,21,31]";"1";"0";"1"
"1121";"36";"0";"1";"21";"1";"2";"12";"2";"[5,13,16,26,28,31,32,33,36]";"1";"0";"1"
"1122";"30";"0";"1";"31";"1";"2";"12";"1";"[5,21,29]";"1";"0";"1"
"1123";"6";"0";"1";"26";"1";"2";"12";"1";"[6,11,19,21,22,25,28,32,40]";"1";"0";"1"
"1124";"39";"0";"1";"36";"1";"2";"12";"1";"[2,21,24,32]";"1";"0";"1"
"1125";"31";"0";"1";"30";"1";"2";"12";"2";"[13]";"1";"0";"1"
"1126";"29";"0";"1";"10";"1";"2";"12";"1";"[12,19,28,33,38]";"1";"0";"1"
"1127";"13";"0";"1";"24";"1";"2";"12";"2";"[16,27,28,36]";"1";"0";"1"
"1128";"33";"2";"1";"11";"1";"2";"1";"2";"[5,15,26,35]";"2";"0";"1"
"1129";"10";"2";"1";"9";"1";"2";"1";"2";"[29,35]";"2";"0";"1"
"1130";"5";"3";"1";"38";"1";"2";"1";"1";"[10,17]";"1";"0";"1"
"1131";"1";"3";"1";"39";"1";"2";"1";"2";"[2,19,22,29]";"2";"0";"1"
"1132";"29";"3";"1";"10";"1";"2";"1";"1";"[12,19,28,33,38]";"1";"0";"1"
"1133";"26";"3";"1";"1";"1";"2";"1";"2";"[4,16,17]";"2";"0";"1"
"1134";"33";"3";"1";"11";"1";"2";"1";"2";"[5,15,26,35]";"2";"0";"1"
"1135";"8";"3";"1";"13";"1";"2";"1";"2";"[21,30]";"2";"0";"1"
"1136";"10";"3";"1";"9";"1";"2";"1";"2";"[29,35]";"2";"0";"1"
"1137";"4";"3";"1";"14";"1";"2";"1";"2";"[4,8,17,22,37,40]";"2";"0";"1"
"1138";"3";"3";"1";"20";"1";"2";"1";"2";"[3,7,25]";"2";"0";"1"
"1139";"6";"3";"1";"26";"1";"2";"1";"1";"[6,11,19,21,22,25,28,32,40]";"1";"0";"1"
"1140";"35";"4";"1";"25";"1";"2";"1";"2";"[4,15,17,20,26]";"2";"0";"1"
"1141";"14";"4";"1";"12";"1";"2";"1";"2";"[10,29]";"2";"0";"1"
"1142";"19";"4";"1";"2";"1";"2";"1";"2";"[15,36,39]";"2";"0";"1"
"1143";"5";"4";"1";"38";"1";"2";"1";"1";"[10,17]";"1";"0";"1"
"1144";"1";"4";"1";"39";"1";"2";"1";"2";"[2,19,22,29]";"2";"0";"1"
"1145";"29";"4";"1";"10";"1";"2";"1";"1";"[12,19,28,33,38]";"1";"0";"1"
"1146";"26";"4";"1";"1";"1";"2";"1";"2";"[4,16,17]";"2";"0";"1"
"1147";"27";"4";"1";"37";"1";"2";"1";"2";"[14,27,33]";"2";"0";"1"
"1148";"28";"4";"1";"22";"1";"2";"1";"1";"[14,26,27,39]";"1";"0";"1"
"1149";"8";"4";"1";"13";"1";"2";"1";"2";"[21,30]";"2";"0";"1"
"1150";"24";"4";"1";"27";"1";"2";"1";"2";"[19,22,23,24,37]";"2";"0";"1"
"1151";"40";"4";"1";"6";"1";"2";"1";"2";"[5,26,32]";"2";"0";"1"
"1152";"11";"4";"1";"34";"1";"2";"1";"2";"[28]";"2";"0";"1"
"1153";"4";"4";"1";"14";"1";"2";"1";"2";"[4,8,17,22,37,40]";"2";"0";"1"
"1154";"3";"5";"1";"20";"1";"2";"1";"2";"[3,7,25]";"2";"0";"1"
"1155";"6";"5";"1";"26";"1";"2";"1";"1";"[6,11,19,21,22,25,28,32,40]";"1";"0";"1"
"1156";"35";"5";"1";"25";"1";"2";"1";"2";"[4,15,17,20,26]";"2";"0";"1"
"1157";"14";"5";"1";"12";"1";"2";"1";"2";"[10,29]";"2";"0";"1"
"1158";"19";"5";"1";"2";"1";"2";"1";"2";"[15,36,39]";"2";"0";"1"
"1159";"21";"5";"1";"3";"1";"2";"1";"2";"[7,15,16,20,29,40]";"2";"0";"1"
"1160";"2";"5";"1";"15";"1";"2";"1";"2";"[2,3,11,25]";"2";"0";"1"
"1161";"7";"5";"1";"35";"1";"2";"1";"1";"[9,11]";"1";"0";"1"
"1162";"31";"5";"1";"30";"1";"2";"1";"2";"[13]";"2";"0";"1"
"1163";"27";"5";"1";"37";"1";"2";"1";"2";"[14,27,33]";"2";"0";"1"
"1164";"30";"5";"1";"31";"1";"2";"1";"1";"[5,21,29]";"1";"0";"1"
"1165";"28";"5";"1";"22";"1";"2";"1";"1";"[14,26,27,39]";"1";"0";"1"
"1166";"24";"5";"1";"27";"1";"2";"1";"2";"[19,22,23,24,37]";"2";"0";"1"
"1167";"40";"5";"1";"6";"1";"2";"1";"2";"[5,26,32]";"2";"0";"1"
"1168";"11";"5";"1";"34";"1";"2";"1";"2";"[28]";"2";"0";"1"
"1169";"18";"6";"1";"7";"1";"2";"1";"2";"[3,8,17,20]";"2";"0";"1"
"1170";"22";"6";"1";"23";"1";"2";"1";"1";"[18,27,40]";"2";"0";"1"
"1171";"21";"6";"1";"3";"1";"2";"1";"2";"[7,15,16,20,29,40]";"2";"0";"1"
"1172";"37";"6";"1";"16";"1";"2";"1";"2";"[1,3,8,21,24]";"2";"0";"1"
"1173";"2";"6";"1";"15";"1";"2";"1";"2";"[2,3,11,25]";"2";"0";"1"
"1174";"7";"6";"1";"35";"1";"2";"1";"1";"[9,11]";"1";"0";"1"
"1175";"31";"6";"1";"30";"1";"2";"1";"2";"[13]";"2";"0";"1"
"1176";"30";"6";"1";"31";"1";"2";"1";"1";"[5,21,29]";"1";"0";"1"
"1177";"12";"7";"1";"28";"1";"2";"1";"1";"[10,17,21,24,26,34]";"1";"0";"1"
"1178";"18";"7";"1";"7";"1";"2";"1";"2";"[3,8,17,20]";"2";"0";"1"
"1179";"32";"7";"1";"17";"1";"2";"1";"1";"[1,4,7,14,18,25,28,38]";"1";"0";"1"
"1180";"22";"7";"1";"23";"1";"2";"1";"1";"[18,27,40]";"2";"0";"1"
"1181";"17";"7";"1";"32";"1";"2";"1";"2";"[6,21,26,33,36]";"2";"0";"1"
"1182";"37";"7";"1";"16";"1";"2";"1";"2";"[1,3,8,21,24]";"2";"0";"1"
"1183";"25";"7";"1";"29";"1";"2";"1";"2";"[3,9,12,31,39]";"2";"0";"1"
"1184";"15";"7";"1";"19";"1";"2";"1";"2";"[10,26,27,39]";"2";"0";"1"
"1185";"38";"7";"1";"4";"1";"2";"1";"2";"[1,14,17,25]";"1";"0";"1"
"1186";"9";"7";"1";"5";"1";"2";"1";"2";"[6,11,21,31]";"2";"0";"1"
"1187";"12";"8";"1";"28";"1";"2";"1";"1";"[10,17,21,24,26,34]";"1";"0";"1"
"1188";"32";"8";"1";"17";"1";"2";"1";"1";"[1,4,7,14,18,25,28,38]";"1";"0";"1"
"1189";"17";"8";"1";"32";"1";"2";"1";"2";"[6,21,26,33,36]";"2";"0";"1"
"1190";"25";"8";"1";"29";"1";"2";"1";"2";"[3,9,12,31,39]";"2";"0";"1"
"1191";"15";"8";"1";"19";"1";"2";"1";"2";"[10,26,27,39]";"2";"0";"1"
"1192";"9";"8";"1";"5";"1";"2";"1";"2";"[6,11,21,31]";"2";"0";"1"
"1193";"38";"8";"1";"4";"1";"2";"1";"2";"[1,14,17,25]";"1";"0";"1"
"1194";"39";"9";"1";"36";"1";"2";"1";"1";"[2,21,24,32]";"1";"0";"1"
"1195";"13";"10";"1";"24";"1";"2";"1";"2";"[16,27,28,36]";"2";"0";"1"
"1196";"39";"10";"1";"36";"1";"2";"1";"1";"[2,21,24,32]";"1";"0";"1"
"1197";"13";"11";"1";"24";"1";"2";"1";"2";"[16,27,28,36]";"2";"0";"1"
"1198";"34";"11";"1";"33";"1";"2";"1";"2";"[10,21,32,37]";"2";"0";"1"
"1199";"34";"12";"1";"33";"1";"2";"1";"2";"[10,21,32,37]";"2";"0";"1"
"1200";"36";"12";"1";"21";"1";"2";"1";"2";"[5,13,16,26,28,31,32,33,36]";"1";"0";"1"
"1201";"16";"13";"1";"8";"1";"2";"1";"2";"[7,14,16]";"2";"0";"1"
"1202";"20";"13";"1";"40";"1";"2";"1";"2";"[3,14,23,26]";"2";"0";"1"
"1203";"36";"13";"1";"21";"1";"2";"1";"2";"[5,13,16,26,28,31,32,33,36]";"1";"0";"1"
"1204";"16";"14";"1";"8";"1";"2";"1";"2";"[7,14,16]";"2";"0";"1"
"1205";"20";"14";"1";"40";"1";"2";"1";"2";"[3,14,23,26]";"2";"0";"1"
"1206";"23";"19";"1";"18";"1";"2";"1";"2";"[17,23]";"2";"0";"1"
"1207";"23";"20";"1";"18";"1";"2";"1";"2";"[17,23]";"2";"0";"1"
"1208";"35";"1";"1";"25";"1";"2";"2";"2";"[4,15,17,20,26]";"2";"0";"1"
"1209";"5";"2";"1";"38";"1";"2";"2";"1";"[10,17]";"1";"0";"1"
"1210";"10";"2";"1";"9";"1";"2";"2";"2";"[29,35]";"2";"0";"1"
"1211";"14";"2";"1";"12";"1";"2";"2";"2";"[10,29]";"2";"0";"1"
"1212";"26";"2";"1";"1";"1";"2";"2";"2";"[4,16,17]";"2";"0";"1"
"1213";"24";"2";"1";"27";"1";"2";"2";"2";"[19,22,23,24,37]";"2";"0";"1"
"1214";"35";"2";"1";"25";"1";"2";"2";"2";"[4,15,17,20,26]";"2";"0";"1"
"1215";"8";"3";"1";"13";"1";"2";"2";"2";"[21,30]";"1";"0";"1"
"1216";"1";"3";"1";"39";"1";"2";"2";"2";"[2,19,22,29]";"2";"0";"1"
"1217";"3";"3";"1";"20";"1";"2";"2";"2";"[3,7,25]";"2";"0";"1"
"1218";"12";"3";"1";"28";"1";"2";"2";"1";"[10,17,21,24,26,34]";"1";"0";"1"
"1219";"5";"3";"1";"38";"1";"2";"2";"1";"[10,17]";"1";"0";"1"
"1220";"10";"3";"1";"9";"1";"2";"2";"2";"[29,35]";"2";"0";"1"
"1221";"33";"3";"1";"11";"1";"2";"2";"2";"[5,15,26,35]";"2";"0";"1"
"1222";"40";"3";"1";"6";"1";"2";"2";"2";"[5,26,32]";"2";"0";"1"
"1223";"14";"3";"1";"12";"1";"2";"2";"2";"[10,29]";"2";"0";"1"
"1224";"26";"3";"1";"1";"1";"2";"2";"2";"[4,16,17]";"2";"0";"1"
"1225";"24";"3";"1";"27";"1";"2";"2";"2";"[19,22,23,24,37]";"2";"0";"1"
"1226";"17";"3";"1";"32";"1";"2";"2";"2";"[6,21,26,33,36]";"2";"0";"1"
"1227";"8";"4";"1";"13";"1";"2";"2";"2";"[21,30]";"1";"0";"1"
"1228";"1";"4";"1";"39";"1";"2";"2";"2";"[2,19,22,29]";"2";"0";"1"
"1229";"3";"4";"1";"20";"1";"2";"2";"2";"[3,7,25]";"2";"0";"1"
"1230";"12";"4";"1";"28";"1";"2";"2";"1";"[10,17,21,24,26,34]";"1";"0";"1"
"1231";"33";"4";"1";"11";"1";"2";"2";"2";"[5,15,26,35]";"2";"0";"1"
"1232";"40";"4";"1";"6";"1";"2";"2";"2";"[5,26,32]";"2";"0";"1"
"1233";"6";"4";"1";"26";"1";"2";"2";"1";"[6,11,19,21,22,25,28,32,40]";"1";"0";"1"
"1234";"27";"4";"1";"37";"1";"2";"2";"2";"[14,27,33]";"2";"0";"1"
"1235";"17";"4";"1";"32";"1";"2";"2";"2";"[6,21,26,33,36]";"2";"0";"1"
"1236";"37";"5";"1";"16";"1";"2";"2";"2";"[1,3,8,21,24]";"2";"0";"1"
"1237";"30";"5";"1";"31";"1";"2";"2";"1";"[5,21,29]";"1";"0";"1"
"1238";"19";"5";"1";"2";"1";"2";"2";"2";"[15,36,39]";"2";"0";"1"
"1239";"6";"5";"1";"26";"1";"2";"2";"1";"[6,11,19,21,22,25,28,32,40]";"1";"0";"1"
"1240";"27";"5";"1";"37";"1";"2";"2";"2";"[14,27,33]";"2";"0";"1"
"1241";"37";"6";"1";"16";"1";"2";"2";"2";"[1,3,8,21,24]";"2";"0";"1"
"1242";"30";"6";"1";"31";"1";"2";"2";"1";"[5,21,29]";"1";"0";"1"
"1243";"19";"6";"1";"2";"1";"2";"2";"2";"[15,36,39]";"2";"0";"1"
"1244";"20";"7";"1";"40";"1";"2";"2";"2";"[3,14,23,26]";"2";"0";"1"
"1245";"39";"7";"1";"36";"1";"2";"2";"1";"[2,21,24,32]";"2";"0";"1"
"1246";"21";"7";"1";"3";"1";"2";"2";"2";"[7,15,16,20,29,40]";"2";"0";"1"
"1247";"22";"7";"1";"23";"1";"2";"2";"1";"[18,27,40]";"1";"0";"1"
"1248";"7";"7";"1";"35";"1";"2";"2";"1";"[9,11]";"1";"0";"1"
"1249";"11";"8";"1";"34";"1";"2";"2";"2";"[28]";"2";"0";"1"
"1250";"31";"8";"1";"30";"1";"2";"2";"2";"[13]";"2";"0";"1"
"1251";"20";"8";"1";"40";"1";"2";"2";"2";"[3,14,23,26]";"2";"0";"1"
"1252";"39";"8";"1";"36";"1";"2";"2";"1";"[2,21,24,32]";"2";"0";"1"
"1253";"21";"8";"1";"3";"1";"2";"2";"2";"[7,15,16,20,29,40]";"2";"0";"1"
"1254";"22";"8";"1";"23";"1";"2";"2";"1";"[18,27,40]";"1";"0";"1"
"1255";"7";"8";"1";"35";"1";"2";"2";"1";"[9,11]";"1";"0";"1"
"1256";"16";"8";"1";"8";"1";"2";"2";"2";"[7,14,16]";"2";"0";"1"
"1257";"11";"9";"1";"34";"1";"2";"2";"2";"[28]";"2";"0";"1"
"1258";"31";"9";"1";"30";"1";"2";"2";"2";"[13]";"2";"0";"1"
"1259";"29";"9";"1";"10";"1";"2";"2";"1";"[12,19,28,33,38]";"1";"0";"1"
"1260";"13";"9";"1";"24";"1";"2";"2";"2";"[16,27,28,36]";"2";"0";"1"
"1261";"16";"9";"1";"8";"1";"2";"2";"2";"[7,14,16]";"2";"0";"1"
"1262";"9";"10";"1";"5";"1";"2";"2";"2";"[6,11,21,31]";"2";"0";"1"
"1263";"28";"10";"1";"22";"1";"2";"2";"1";"[14,26,27,39]";"1";"0";"1"
"1264";"2";"10";"1";"15";"1";"2";"2";"2";"[2,3,11,25]";"2";"0";"1"
"1265";"29";"10";"1";"10";"1";"2";"2";"1";"[12,19,28,33,38]";"1";"0";"1"
"1266";"36";"10";"1";"21";"1";"2";"2";"2";"[5,13,16,26,28,31,32,33,36]";"1";"0";"1"
"1267";"13";"10";"1";"24";"1";"2";"2";"2";"[16,27,28,36]";"2";"0";"1"
"1268";"18";"10";"1";"7";"1";"2";"2";"2";"[3,8,17,20]";"2";"0";"1"
"1269";"9";"11";"1";"5";"1";"2";"2";"2";"[6,11,21,31]";"2";"0";"1"
"1270";"25";"11";"1";"29";"1";"2";"2";"2";"[3,9,12,31,39]";"2";"0";"1"
"1271";"28";"11";"1";"22";"1";"2";"2";"1";"[14,26,27,39]";"1";"0";"1"
"1272";"2";"11";"1";"15";"1";"2";"2";"2";"[2,3,11,25]";"2";"0";"1"
"1273";"36";"11";"1";"21";"1";"2";"2";"2";"[5,13,16,26,28,31,32,33,36]";"1";"0";"1"
"1274";"18";"11";"1";"7";"1";"2";"2";"2";"[3,8,17,20]";"2";"0";"1"
"1275";"25";"12";"1";"29";"1";"2";"2";"2";"[3,9,12,31,39]";"2";"0";"1"
"1276";"15";"12";"1";"19";"1";"2";"2";"2";"[10,26,27,39]";"2";"0";"1"
"1277";"23";"13";"1";"18";"1";"2";"2";"2";"[17,23]";"1";"0";"1"
"1278";"15";"13";"1";"19";"1";"2";"2";"2";"[10,26,27,39]";"2";"0";"1"
"1279";"23";"14";"1";"18";"1";"2";"2";"2";"[17,23]";"1";"0";"1"
"1280";"32";"15";"1";"17";"1";"2";"2";"1";"[1,4,7,14,18,25,28,38]";"2";"0";"1"
"1281";"32";"16";"1";"17";"1";"2";"2";"1";"[1,4,7,14,18,25,28,38]";"2";"0";"1"
"1282";"4";"24";"1";"14";"1";"2";"2";"2";"[4,8,17,22,37,40]";"1";"0";"1"
"1283";"34";"24";"1";"33";"1";"2";"2";"2";"[10,21,32,37]";"2";"0";"1"
"1284";"4";"25";"1";"14";"1";"2";"2";"2";"[4,8,17,22,37,40]";"1";"0";"1"
"1285";"34";"25";"1";"33";"1";"2";"2";"2";"[10,21,32,37]";"2";"0";"1"
"1286";"38";"30";"1";"4";"1";"2";"2";"2";"[1,14,17,25]";"0";"0";"1"
"1287";"0";"30";"1";"4";"1";"2";"2";"2";"[1,14,17,25]";"1";"0";"0"
"1288";"17";"2";"1";"32";"1";"2";"3";"2";"[6,21,26,33,36]";"2";"0";"1"
"1289";"10";"2";"1";"9";"1";"2";"3";"2";"[29,35]";"2";"0";"1"
"1290";"24";"2";"1";"27";"1";"2";"3";"2";"[19,22,23,24,37]";"2";"0";"1"
"1291";"3";"2";"1";"20";"1";"2";"3";"2";"[3,7,25]";"2";"0";"1"
"1292";"27";"3";"1";"37";"1";"2";"3";"2";"[14,27,33]";"2";"0";"1"
"1293";"26";"3";"1";"1";"1";"2";"3";"2";"[4,16,17]";"2";"0";"1"
"1294";"17";"3";"1";"32";"1";"2";"3";"2";"[6,21,26,33,36]";"2";"0";"1"
"1295";"5";"3";"1";"38";"1";"2";"3";"1";"[10,17]";"1";"0";"1"
"1296";"29";"3";"1";"10";"1";"2";"3";"1";"[12,19,28,33,38]";"1";"0";"1"
"1297";"6";"3";"1";"26";"1";"2";"3";"1";"[6,11,19,21,22,25,28,32,40]";"1";"0";"1"
"1298";"35";"3";"1";"25";"1";"2";"3";"2";"[4,15,17,20,26]";"2";"0";"1"
"1299";"18";"3";"1";"7";"1";"2";"3";"2";"[3,8,17,20]";"2";"0";"1"
"1300";"10";"3";"1";"9";"1";"2";"3";"2";"[29,35]";"2";"0";"1"
"1301";"19";"3";"1";"2";"1";"2";"3";"2";"[15,36,39]";"2";"0";"1"
"1302";"24";"3";"1";"27";"1";"2";"3";"2";"[19,22,23,24,37]";"2";"0";"1"
"1303";"3";"3";"1";"20";"1";"2";"3";"2";"[3,7,25]";"2";"0";"1"
"1304";"33";"3";"1";"11";"1";"2";"3";"2";"[5,15,26,35]";"2";"0";"1"
"1305";"12";"3";"1";"28";"1";"2";"3";"1";"[10,17,21,24,26,34]";"1";"0";"1"
"1306";"27";"4";"1";"37";"1";"2";"3";"2";"[14,27,33]";"2";"0";"1"
"1307";"8";"4";"1";"13";"1";"2";"3";"2";"[21,30]";"1";"0";"1"
"1308";"26";"4";"1";"1";"1";"2";"3";"2";"[4,16,17]";"2";"0";"1"
"1309";"9";"4";"1";"5";"1";"2";"3";"2";"[6,11,21,31]";"2";"0";"1"
"1310";"5";"4";"1";"38";"1";"2";"3";"1";"[10,17]";"1";"0";"1"
"1311";"29";"4";"1";"10";"1";"2";"3";"1";"[12,19,28,33,38]";"1";"0";"1"
"1312";"6";"4";"1";"26";"1";"2";"3";"1";"[6,11,19,21,22,25,28,32,40]";"1";"0";"1"
"1313";"35";"4";"1";"25";"1";"2";"3";"2";"[4,15,17,20,26]";"2";"0";"1"
"1314";"1";"4";"1";"39";"1";"2";"3";"2";"[2,19,22,29]";"2";"0";"1"
"1315";"28";"4";"1";"22";"1";"2";"3";"1";"[14,26,27,39]";"1";"0";"1"
"1316";"18";"4";"1";"7";"1";"2";"3";"2";"[3,8,17,20]";"2";"0";"1"
"1317";"19";"4";"1";"2";"1";"2";"3";"2";"[15,36,39]";"2";"0";"1"
"1318";"13";"4";"1";"24";"1";"2";"3";"2";"[16,27,28,36]";"2";"0";"1"
"1319";"31";"4";"1";"30";"1";"2";"3";"2";"[13]";"2";"0";"1"
"1320";"33";"4";"1";"11";"1";"2";"3";"2";"[5,15,26,35]";"2";"0";"1"
"1321";"40";"4";"1";"6";"1";"2";"3";"2";"[5,26,32]";"2";"0";"1"
"1322";"21";"4";"1";"3";"1";"2";"3";"2";"[7,15,16,20,29,40]";"2";"0";"1"
"1323";"36";"4";"1";"21";"1";"2";"3";"2";"[5,13,16,26,28,31,32,33,36]";"1";"0";"1"
"1324";"37";"4";"1";"16";"1";"2";"3";"2";"[1,3,8,21,24]";"2";"0";"1"
"1325";"12";"4";"1";"28";"1";"2";"3";"1";"[10,17,21,24,26,34]";"1";"0";"1"
"1326";"8";"5";"1";"13";"1";"2";"3";"2";"[21,30]";"1";"0";"1"
"1327";"9";"5";"1";"5";"1";"2";"3";"2";"[6,11,21,31]";"2";"0";"1"
"1328";"1";"5";"1";"39";"1";"2";"3";"2";"[2,19,22,29]";"2";"0";"1"
"1329";"28";"5";"1";"22";"1";"2";"3";"1";"[14,26,27,39]";"1";"0";"1"
"1330";"13";"5";"1";"24";"1";"2";"3";"2";"[16,27,28,36]";"2";"0";"1"
"1331";"31";"5";"1";"30";"1";"2";"3";"2";"[13]";"2";"0";"1"
"1332";"40";"5";"1";"6";"1";"2";"3";"2";"[5,26,32]";"2";"0";"1"
"1333";"21";"5";"1";"3";"1";"2";"3";"2";"[7,15,16,20,29,40]";"2";"0";"1"
"1334";"36";"5";"1";"21";"1";"2";"3";"2";"[5,13,16,26,28,31,32,33,36]";"1";"0";"1"
"1335";"37";"5";"1";"16";"1";"2";"3";"2";"[1,3,8,21,24]";"2";"0";"1"
"1336";"14";"6";"1";"12";"1";"2";"3";"2";"[10,29]";"2";"0";"1"
"1337";"22";"6";"1";"23";"1";"2";"3";"1";"[18,27,40]";"1";"0";"1"
"1338";"14";"7";"1";"12";"1";"2";"3";"2";"[10,29]";"2";"0";"1"
"1339";"22";"7";"1";"23";"1";"2";"3";"1";"[18,27,40]";"1";"0";"1"
"1340";"30";"9";"1";"31";"1";"2";"3";"1";"[5,21,29]";"1";"0";"1"
"1341";"25";"9";"1";"29";"1";"2";"3";"2";"[3,9,12,31,39]";"1";"0";"1"
"1342";"7";"9";"1";"35";"1";"2";"3";"1";"[9,11]";"1";"0";"1"
"1343";"30";"10";"1";"31";"1";"2";"3";"1";"[5,21,29]";"1";"0";"1"
"1344";"25";"10";"1";"29";"1";"2";"3";"2";"[3,9,12,31,39]";"1";"0";"1"
"1345";"23";"10";"1";"18";"1";"2";"3";"2";"[17,23]";"2";"0";"1"
"1346";"7";"10";"1";"35";"1";"2";"3";"1";"[9,11]";"1";"0";"1"
"1347";"15";"10";"1";"19";"1";"2";"3";"2";"[10,26,27,39]";"2";"0";"1"
"1348";"23";"11";"1";"18";"1";"2";"3";"2";"[17,23]";"2";"0";"1"
"1349";"11";"11";"1";"34";"1";"2";"3";"2";"[28]";"2";"0";"1"
"1350";"38";"11";"1";"4";"1";"2";"3";"2";"[1,14,17,25]";"2";"0";"1"
"1351";"15";"11";"1";"19";"1";"2";"3";"2";"[10,26,27,39]";"2";"0";"1"
"1352";"11";"12";"1";"34";"1";"2";"3";"2";"[28]";"2";"0";"1"
"1353";"38";"12";"1";"4";"1";"2";"3";"2";"[1,14,17,25]";"2";"0";"1"
"1354";"2";"13";"1";"15";"1";"2";"3";"2";"[2,3,11,25]";"2";"0";"1"
"1355";"20";"13";"1";"40";"1";"2";"3";"2";"[3,14,23,26]";"2";"0";"1"
"1356";"2";"14";"1";"15";"1";"2";"3";"2";"[2,3,11,25]";"2";"0";"1"
"1357";"20";"14";"1";"40";"1";"2";"3";"2";"[3,14,23,26]";"2";"0";"1"
"1358";"39";"15";"1";"36";"1";"2";"3";"1";"[2,21,24,32]";"2";"0";"1"
"1359";"39";"16";"1";"36";"1";"2";"3";"1";"[2,21,24,32]";"2";"0";"1"
"1360";"16";"17";"1";"8";"1";"2";"3";"2";"[7,14,16]";"2";"0";"1"
"1361";"16";"18";"1";"8";"1";"2";"3";"2";"[7,14,16]";"2";"0";"1"
"1362";"4";"18";"1";"14";"1";"2";"3";"2";"[4,8,17,22,37,40]";"2";"0";"1"
"1363";"4";"19";"1";"14";"1";"2";"3";"2";"[4,8,17,22,37,40]";"2";"0";"1"
"1364";"34";"20";"1";"33";"1";"2";"3";"2";"[10,21,32,37]";"2";"0";"1"
"1365";"34";"22";"1";"33";"1";"2";"3";"2";"[10,21,32,37]";"2";"0";"1"
"1366";"37";"26";"1";"16";"1";"2";"3";"2";"[1,3,8,21,24]";"2";"1";"1"
"1367";"37";"29";"1";"16";"1";"2";"3";"2";"[1,3,8,21,24]";"2";"2";"1"
"1368";"37";"30";"1";"16";"1";"2";"3";"2";"[1,3,8,21,24]";"2";"3";"1"
"1369";"32";"30";"1";"17";"1";"2";"3";"1";"[1,4,7,14,18,25,28,38]";"0";"0";"1"
"1370";"0";"30";"1";"17";"1";"2";"3";"1";"[1,4,7,14,18,25,28,38]";"2";"0";"0"
"1371";"14";"2";"1";"12";"1";"2";"4";"2";"[10,29]";"1";"0";"1"
"1372";"24";"2";"1";"27";"1";"2";"4";"2";"[19,22,23,24,37]";"2";"0";"1"
"1373";"3";"2";"1";"20";"1";"2";"4";"2";"[3,7,25]";"2";"0";"1"
"1374";"17";"2";"1";"32";"1";"2";"4";"2";"[6,21,26,33,36]";"2";"0";"1"
"1375";"26";"2";"1";"1";"1";"2";"4";"2";"[4,16,17]";"2";"0";"1"
"1376";"6";"3";"1";"26";"1";"2";"4";"1";"[6,11,19,21,22,25,28,32,40]";"1";"0";"1"
"1377";"14";"3";"1";"12";"1";"2";"4";"2";"[10,29]";"1";"0";"1"
"1378";"24";"3";"1";"27";"1";"2";"4";"2";"[19,22,23,24,37]";"2";"0";"1"
"1379";"35";"3";"1";"25";"1";"2";"4";"2";"[4,15,17,20,26]";"2";"0";"1"
"1380";"37";"3";"1";"16";"1";"2";"4";"2";"[1,3,8,21,24]";"2";"0";"1"
"1381";"29";"3";"1";"10";"1";"2";"4";"1";"[12,19,28,33,38]";"1";"0";"1"
"1382";"3";"3";"1";"20";"1";"2";"4";"2";"[3,7,25]";"2";"0";"1"
"1383";"17";"3";"1";"32";"1";"2";"4";"2";"[6,21,26,33,36]";"2";"0";"1"
"1384";"22";"3";"1";"23";"1";"2";"4";"1";"[18,27,40]";"2";"0";"1"
"1385";"19";"3";"1";"2";"1";"2";"4";"2";"[15,36,39]";"2";"0";"1"
"1386";"27";"3";"1";"37";"1";"2";"4";"2";"[14,27,33]";"2";"0";"1"
"1387";"26";"3";"1";"1";"1";"2";"4";"2";"[4,16,17]";"2";"0";"1"
"1388";"18";"3";"1";"7";"1";"2";"4";"2";"[3,8,17,20]";"2";"0";"1"
"1389";"6";"4";"1";"26";"1";"2";"4";"1";"[6,11,19,21,22,25,28,32,40]";"1";"0";"1"
"1390";"35";"4";"1";"25";"1";"2";"4";"2";"[4,15,17,20,26]";"2";"0";"1"
"1391";"37";"4";"1";"16";"1";"2";"4";"2";"[1,3,8,21,24]";"2";"0";"1"
"1392";"29";"4";"1";"10";"1";"2";"4";"1";"[12,19,28,33,38]";"1";"0";"1"
"1393";"9";"4";"1";"5";"1";"2";"4";"2";"[6,11,21,31]";"2";"0";"1"
"1394";"22";"4";"1";"23";"1";"2";"4";"1";"[18,27,40]";"2";"0";"1"
"1395";"19";"4";"1";"2";"1";"2";"4";"2";"[15,36,39]";"2";"0";"1"
"1396";"27";"4";"1";"37";"1";"2";"4";"2";"[14,27,33]";"2";"0";"1"
"1397";"18";"4";"1";"7";"1";"2";"4";"2";"[3,8,17,20]";"2";"0";"1"
"1398";"8";"4";"1";"13";"1";"2";"4";"2";"[21,30]";"1";"0";"1"
"1399";"38";"5";"1";"4";"1";"2";"4";"2";"[1,14,17,25]";"2";"0";"1"
"1400";"9";"5";"1";"5";"1";"2";"4";"2";"[6,11,21,31]";"2";"0";"1"
"1401";"10";"5";"1";"9";"1";"2";"4";"2";"[29,35]";"2";"0";"1"
"1402";"8";"5";"1";"13";"1";"2";"4";"2";"[21,30]";"1";"0";"1"
"1403";"15";"6";"1";"19";"1";"2";"4";"2";"[10,26,27,39]";"2";"0";"1"
"1404";"28";"6";"1";"22";"1";"2";"4";"1";"[14,26,27,39]";"1";"0";"1"
"1405";"13";"6";"1";"24";"1";"2";"4";"2";"[16,27,28,36]";"2";"0";"1"
"1406";"30";"6";"1";"31";"1";"2";"4";"1";"[5,21,29]";"1";"0";"1"
"1407";"38";"6";"1";"4";"1";"2";"4";"2";"[1,14,17,25]";"2";"0";"1"
"1408";"10";"6";"1";"9";"1";"2";"4";"2";"[29,35]";"2";"0";"1"
"1409";"5";"6";"1";"38";"1";"2";"4";"1";"[10,17]";"1";"0";"1"
"1410";"33";"6";"1";"11";"1";"2";"4";"2";"[5,15,26,35]";"2";"0";"1"
"1411";"16";"6";"1";"8";"1";"2";"4";"2";"[7,14,16]";"2";"0";"1"
"1412";"40";"6";"1";"6";"1";"2";"4";"2";"[5,26,32]";"2";"0";"1"
"1413";"15";"7";"1";"19";"1";"2";"4";"2";"[10,26,27,39]";"2";"0";"1"
"1414";"20";"7";"1";"40";"1";"2";"4";"2";"[3,14,23,26]";"2";"0";"1"
"1415";"28";"7";"1";"22";"1";"2";"4";"1";"[14,26,27,39]";"1";"0";"1"
"1416";"13";"7";"1";"24";"1";"2";"4";"2";"[16,27,28,36]";"2";"0";"1"
"1417";"30";"7";"1";"31";"1";"2";"4";"1";"[5,21,29]";"1";"0";"1"
"1418";"5";"7";"1";"38";"1";"2";"4";"1";"[10,17]";"1";"0";"1"
"1419";"33";"7";"1";"11";"1";"2";"4";"2";"[5,15,26,35]";"2";"0";"1"
"1420";"16";"7";"1";"8";"1";"2";"4";"2";"[7,14,16]";"2";"0";"1"
"1421";"40";"7";"1";"6";"1";"2";"4";"2";"[5,26,32]";"2";"0";"1"
"1422";"31";"7";"1";"30";"1";"2";"4";"2";"[13]";"1";"0";"1"
"1423";"21";"7";"1";"3";"1";"2";"4";"2";"[7,15,16,20,29,40]";"2";"0";"1"
"1424";"20";"8";"1";"40";"1";"2";"4";"2";"[3,14,23,26]";"2";"0";"1"
"1425";"11";"8";"1";"34";"1";"2";"4";"2";"[28]";"1";"0";"1"
"1426";"1";"8";"1";"39";"1";"2";"4";"2";"[2,19,22,29]";"2";"0";"1"
"1427";"31";"8";"1";"30";"1";"2";"4";"2";"[13]";"1";"0";"1"
"1428";"25";"8";"1";"29";"1";"2";"4";"2";"[3,9,12,31,39]";"1";"0";"1"
"1429";"21";"8";"1";"3";"1";"2";"4";"2";"[7,15,16,20,29,40]";"2";"0";"1"
"1430";"32";"9";"1";"17";"1";"2";"4";"1";"[1,4,7,14,18,25,28,38]";"2";"0";"1"
"1431";"11";"9";"1";"34";"1";"2";"4";"2";"[28]";"1";"0";"1"
"1432";"1";"9";"1";"39";"1";"2";"4";"2";"[2,19,22,29]";"2";"0";"1"
"1433";"12";"9";"1";"28";"1";"2";"4";"1";"[10,17,21,24,26,34]";"1";"0";"1"
"1434";"25";"9";"1";"29";"1";"2";"4";"2";"[3,9,12,31,39]";"1";"0";"1"
"1435";"32";"10";"1";"17";"1";"2";"4";"1";"[1,4,7,14,18,25,28,38]";"2";"0";"1"
"1436";"12";"10";"1";"28";"1";"2";"4";"1";"[10,17,21,24,26,34]";"1";"0";"1"
"1437";"23";"14";"1";"18";"1";"2";"4";"2";"[17,23]";"2";"0";"1"
"1438";"23";"15";"1";"18";"1";"2";"4";"2";"[17,23]";"2";"0";"1"
"1439";"33";"15";"1";"11";"1";"2";"4";"2";"[5,15,26,35]";"2";"2";"1"
"1440";"33";"16";"1";"11";"1";"2";"4";"2";"[5,15,26,35]";"2";"1";"1"
"1441";"33";"18";"1";"11";"1";"2";"4";"2";"[5,15,26,35]";"2";"2";"1"
"1442";"2";"18";"1";"15";"1";"2";"4";"2";"[2,3,11,25]";"2";"0";"1"
"1443";"33";"19";"1";"11";"1";"2";"4";"2";"[5,15,26,35]";"2";"3";"1"
"1444";"34";"19";"1";"33";"1";"2";"4";"2";"[10,21,32,37]";"2";"0";"1"
"1445";"2";"19";"1";"15";"1";"2";"4";"2";"[2,3,11,25]";"2";"0";"1"
"1446";"36";"20";"1";"21";"1";"2";"4";"2";"[5,13,16,26,28,31,32,33,36]";"2";"0";"1"
"1447";"34";"20";"1";"33";"1";"2";"4";"2";"[10,21,32,37]";"2";"0";"1"
"1448";"36";"21";"1";"21";"1";"2";"4";"2";"[5,13,16,26,28,31,32,33,36]";"2";"0";"1"
"1449";"39";"22";"1";"36";"1";"2";"4";"1";"[2,21,24,32]";"2";"0";"1"
"1450";"39";"23";"1";"36";"1";"2";"4";"1";"[2,21,24,32]";"2";"0";"1"
"1451";"13";"23";"1";"24";"1";"2";"4";"2";"[16,27,28,36]";"2";"2";"1"
"1452";"13";"25";"1";"24";"1";"2";"4";"2";"[16,27,28,36]";"2";"1";"1"
"1453";"13";"25";"1";"24";"1";"2";"4";"2";"[16,27,28,36]";"2";"2";"1"
"1454";"13";"27";"1";"24";"1";"2";"4";"2";"[16,27,28,36]";"2";"3";"1"
"1455";"7";"28";"1";"35";"1";"2";"4";"1";"[9,11]";"1";"0";"1"
