"id";"id_subj";"time";"session";"id_grp";"grp";"round";"period";"sig";"links";"choice";"hist";"active"
"1";"30";"0";"1";"22";"1";"1";"1";"1";"[1,2,3,23]";"0";"0";"1"
"2";"25";"0";"1";"21";"1";"1";"1";"1";"[1,2,3,22]";"0";"0";"1"
"3";"14";"0";"1";"11";"1";"1";"1";"1";"[1,2,3,12]";"0";"0";"1"
"4";"29";"0";"1";"12";"1";"1";"1";"1";"[1,2,3,13]";"0";"0";"1"
"5";"21";"0";"1";"24";"1";"1";"1";"1";"[1,2,3,25]";"0";"0";"1"
"6";"34";"0";"1";"28";"1";"1";"1";"1";"[1,2,3,29]";"0";"0";"1"
"7";"37";"0";"1";"29";"1";"1";"1";"1";"[1,2,3,30]";"0";"0";"1"
"8";"8";"0";"1";"39";"1";"1";"1";"2";"[1,2,3,40]";"0";"0";"1"
"9";"13";"0";"1";"6";"1";"1";"1";"1";"[1,2,3,7]";"0";"0";"1"
"10";"11";"0";"1";"36";"1";"1";"1";"1";"[1,2,3,37]";"0";"0";"1"
"11";"5";"0";"1";"13";"1";"1";"1";"1";"[1,2,3,14]";"0";"0";"1"
"12";"24";"0";"1";"23";"1";"1";"1";"1";"[1,2,3,24]";"0";"0";"1"
"13";"18";"0";"1";"1";"1";"1";"1";"1";"[2,3]";"0";"0";"1"
"14";"31";"0";"1";"31";"1";"1";"1";"1";"[1,2,3,32]";"0";"0";"1"
"15";"32";"0";"1";"25";"1";"1";"1";"1";"[1,2,3,26]";"0";"0";"1"
"16";"35";"0";"1";"20";"1";"1";"1";"2";"[1,2,3,21]";"0";"0";"1"
"17";"16";"0";"1";"2";"1";"1";"1";"1";"[1,3]";"0";"0";"1"
"18";"22";"0";"1";"17";"1";"1";"1";"1";"[1,2,3,18]";"0";"0";"1"
"19";"17";"0";"1";"33";"1";"1";"1";"2";"[1,2,3,34]";"0";"0";"1"
"20";"27";"0";"1";"5";"1";"1";"1";"1";"[1,2,3,6]";"0";"0";"1"
"21";"19";"0";"1";"26";"1";"1";"1";"2";"[1,2,3,27]";"0";"0";"1"
"22";"40";"0";"1";"4";"1";"1";"1";"1";"[1,2,3,5]";"0";"0";"1"
"23";"10";"0";"1";"3";"1";"1";"1";"1";"[1,2,4]";"0";"0";"1"
"24";"20";"0";"1";"8";"1";"1";"1";"1";"[1,2,3,9]";"0";"0";"1"
"25";"15";"0";"1";"14";"1";"1";"1";"1";"[1,2,3,15]";"0";"0";"1"
"26";"12";"0";"1";"30";"1";"1";"1";"1";"[1,2,3,31]";"0";"0";"1"
"27";"3";"0";"1";"15";"1";"1";"1";"2";"[1,2,3,16]";"0";"0";"1"
"28";"36";"0";"1";"37";"1";"1";"1";"1";"[1,2,3,38]";"0";"0";"1"
"29";"28";"0";"1";"18";"1";"1";"1";"1";"[1,2,3,19]";"0";"0";"1"
"30";"26";"0";"1";"38";"1";"1";"1";"2";"[1,2,3,39]";"0";"0";"1"
"31";"4";"0";"1";"7";"1";"1";"1";"1";"[1,2,3,8]";"0";"0";"1"
"32";"39";"0";"1";"32";"1";"1";"1";"1";"[1,2,3,33]";"0";"0";"1"
"33";"6";"0";"1";"16";"1";"1";"1";"1";"[1,2,3,17]";"0";"0";"1"
"34";"23";"0";"1";"19";"1";"1";"1";"1";"[1,2,3,20]";"0";"0";"1"
"35";"7";"0";"1";"35";"1";"1";"1";"1";"[1,2,3,36]";"0";"0";"1"
"36";"2";"0";"1";"9";"1";"1";"1";"1";"[1,2,3,10]";"0";"0";"1"
"37";"33";"0";"1";"40";"1";"1";"1";"2";"[1,2,3]";"0";"0";"1"
"38";"1";"0";"1";"27";"1";"1";"1";"2";"[1,2,3,28]";"0";"0";"1"
"39";"38";"0";"1";"10";"1";"1";"1";"2";"[1,2,3,11]";"0";"0";"1"
"40";"9";"0";"1";"34";"1";"1";"1";"2";"[1,2,3,35]";"0";"0";"1"
"41";"3";"5";"1";"15";"1";"1";"1";"2";"[1,2,3,16]";"2";"0";"1"
"42";"34";"5";"1";"28";"1";"1";"1";"1";"[1,2,3,29]";"1";"0";"1"
"43";"3";"6";"1";"15";"1";"1";"1";"2";"[1,2,3,16]";"2";"0";"1"
"44";"34";"6";"1";"28";"1";"1";"1";"1";"[1,2,3,29]";"1";"0";"1"
"45";"9";"6";"1";"34";"1";"1";"1";"2";"[1,2,3,35]";"2";"0";"1"
"46";"30";"6";"1";"22";"1";"1";"1";"1";"[1,2,3,23]";"1";"0";"1"
"47";"23";"6";"1";"19";"1";"1";"1";"1";"[1,2,3,20]";"1";"0";"1"
"48";"13";"7";"1";"6";"1";"1";"1";"1";"[1,2,3,7]";"1";"0";"1"
"49";"9";"7";"1";"34";"1";"1";"1";"2";"[1,2,3,35]";"2";"0";"1"
"50";"15";"7";"1";"14";"1";"1";"1";"1";"[1,2,3,15]";"1";"0";"1"
"51";"6";"7";"1";"16";"1";"1";"1";"1";"[1,2,3,17]";"1";"0";"1"
"52";"12";"7";"1";"30";"1";"1";"1";"1";"[1,2,3,31]";"1";"0";"1"
"53";"30";"7";"1";"22";"1";"1";"1";"1";"[1,2,3,23]";"1";"0";"1"
"54";"11";"7";"1";"36";"1";"1";"1";"1";"[1,2,3,37]";"1";"0";"1"
"55";"23";"8";"1";"19";"1";"1";"1";"1";"[1,2,3,20]";"1";"0";"1"
"56";"13";"8";"1";"6";"1";"1";"1";"1";"[1,2,3,7]";"1";"0";"1"
"57";"32";"8";"1";"25";"1";"1";"1";"1";"[1,2,3,26]";"1";"0";"1"
"58";"19";"8";"1";"26";"1";"1";"1";"2";"[1,2,3,27]";"1";"0";"1"
"59";"15";"8";"1";"14";"1";"1";"1";"1";"[1,2,3,15]";"1";"0";"1"
"60";"6";"8";"1";"16";"1";"1";"1";"1";"[1,2,3,17]";"1";"0";"1"
"61";"12";"8";"1";"30";"1";"1";"1";"1";"[1,2,3,31]";"1";"0";"1"
"62";"8";"8";"1";"39";"1";"1";"1";"2";"[1,2,3,40]";"2";"0";"1"
"63";"11";"8";"1";"36";"1";"1";"1";"1";"[1,2,3,37]";"1";"0";"1"
"64";"32";"9";"1";"25";"1";"1";"1";"1";"[1,2,3,26]";"1";"0";"1"
"65";"19";"9";"1";"26";"1";"1";"1";"2";"[1,2,3,27]";"1";"0";"1"
"66";"8";"9";"1";"39";"1";"1";"1";"2";"[1,2,3,40]";"2";"0";"1"
"67";"18";"10";"1";"1";"1";"1";"1";"1";"[2,3]";"1";"0";"1"
"68";"18";"11";"1";"1";"1";"1";"1";"1";"[2,3]";"1";"0";"1"
"69";"17";"11";"1";"33";"1";"1";"1";"2";"[1,2,3,34]";"1";"0";"1"
"70";"17";"12";"1";"33";"1";"1";"1";"2";"[1,2,3,34]";"1";"0";"1"
"71";"25";"12";"1";"21";"1";"1";"1";"1";"[1,2,3,22]";"1";"0";"1"
"72";"1";"13";"1";"27";"1";"1";"1";"2";"[1,2,3,28]";"2";"0";"1"
"73";"37";"13";"1";"29";"1";"1";"1";"1";"[1,2,3,30]";"1";"0";"1"
"74";"14";"13";"1";"11";"1";"1";"1";"1";"[1,2,3,12]";"1";"0";"1"
"75";"26";"13";"1";"38";"1";"1";"1";"2";"[1,2,3,39]";"1";"0";"1"
"76";"25";"13";"1";"21";"1";"1";"1";"1";"[1,2,3,22]";"1";"0";"1"
"77";"1";"14";"1";"27";"1";"1";"1";"2";"[1,2,3,28]";"2";"0";"1"
"78";"37";"14";"1";"29";"1";"1";"1";"1";"[1,2,3,30]";"1";"0";"1"
"79";"14";"14";"1";"11";"1";"1";"1";"1";"[1,2,3,12]";"1";"0";"1"
"80";"10";"14";"1";"3";"1";"1";"1";"1";"[1,2,4]";"1";"0";"1"
"81";"2";"14";"1";"9";"1";"1";"1";"1";"[1,2,3,10]";"1";"0";"1"
"82";"35";"14";"1";"20";"1";"1";"1";"2";"[1,2,3,21]";"2";"0";"1"
"83";"26";"14";"1";"38";"1";"1";"1";"2";"[1,2,3,39]";"1";"0";"1"
"84";"4";"15";"1";"7";"1";"1";"1";"1";"[1,2,3,8]";"1";"0";"1"
"85";"21";"15";"1";"24";"1";"1";"1";"1";"[1,2,3,25]";"1";"0";"1"
"86";"5";"15";"1";"13";"1";"1";"1";"1";"[1,2,3,14]";"1";"0";"1"
"87";"10";"15";"1";"3";"1";"1";"1";"1";"[1,2,4]";"1";"0";"1"
"88";"2";"15";"1";"9";"1";"1";"1";"1";"[1,2,3,10]";"1";"0";"1"
"89";"35";"15";"1";"20";"1";"1";"1";"2";"[1,2,3,21]";"2";"0";"1"
"90";"39";"16";"1";"32";"1";"1";"1";"1";"[1,2,3,33]";"1";"0";"1"
"91";"4";"16";"1";"7";"1";"1";"1";"1";"[1,2,3,8]";"1";"0";"1"
"92";"27";"16";"1";"5";"1";"1";"1";"1";"[1,2,3,6]";"1";"0";"1"
"93";"28";"16";"1";"18";"1";"1";"1";"1";"[1,2,3,19]";"1";"0";"1"
"94";"21";"16";"1";"24";"1";"1";"1";"1";"[1,2,3,25]";"1";"0";"1"
"95";"5";"16";"1";"13";"1";"1";"1";"1";"[1,2,3,14]";"1";"0";"1"
"96";"40";"16";"1";"4";"1";"1";"1";"1";"[1,2,3,5]";"1";"0";"1"
"97";"29";"16";"1";"12";"1";"1";"1";"1";"[1,2,3,13]";"1";"0";"1"
"98";"36";"17";"1";"37";"1";"1";"1";"1";"[1,2,3,38]";"1";"0";"1"
"99";"39";"17";"1";"32";"1";"1";"1";"1";"[1,2,3,33]";"1";"0";"1"
"100";"27";"17";"1";"5";"1";"1";"1";"1";"[1,2,3,6]";"1";"0";"1"
"101";"28";"17";"1";"18";"1";"1";"1";"1";"[1,2,3,19]";"1";"0";"1"
"102";"38";"17";"1";"10";"1";"1";"1";"2";"[1,2,3,11]";"1";"0";"1"
"103";"40";"17";"1";"4";"1";"1";"1";"1";"[1,2,3,5]";"1";"0";"1"
"104";"29";"17";"1";"12";"1";"1";"1";"1";"[1,2,3,13]";"1";"0";"1"
"105";"36";"18";"1";"37";"1";"1";"1";"1";"[1,2,3,38]";"1";"0";"1"
"106";"38";"18";"1";"10";"1";"1";"1";"2";"[1,2,3,11]";"1";"0";"1"
"107";"31";"18";"1";"31";"1";"1";"1";"1";"[1,2,3,32]";"1";"0";"1"
"108";"7";"18";"1";"35";"1";"1";"1";"1";"[1,2,3,36]";"1";"0";"1"
"109";"16";"19";"1";"2";"1";"1";"1";"1";"[1,3]";"2";"0";"1"
"110";"20";"19";"1";"8";"1";"1";"1";"1";"[1,2,3,9]";"1";"0";"1"
"111";"31";"19";"1";"31";"1";"1";"1";"1";"[1,2,3,32]";"1";"0";"1"
"112";"7";"19";"1";"35";"1";"1";"1";"1";"[1,2,3,36]";"1";"0";"1"
"113";"24";"19";"1";"23";"1";"1";"1";"1";"[1,2,3,24]";"1";"0";"1"
"114";"16";"20";"1";"2";"1";"1";"1";"1";"[1,3]";"2";"0";"1"
"115";"20";"20";"1";"8";"1";"1";"1";"1";"[1,2,3,9]";"1";"0";"1"
"116";"24";"21";"1";"23";"1";"1";"1";"1";"[1,2,3,24]";"1";"0";"1"
"117";"33";"22";"1";"40";"1";"1";"1";"2";"[1,2,3]";"2";"0";"1"
"118";"33";"23";"1";"40";"1";"1";"1";"2";"[1,2,3]";"2";"0";"1"
"119";"22";"25";"1";"17";"1";"1";"1";"1";"[1,2,3,18]";"1";"0";"1"
"120";"22";"26";"1";"17";"1";"1";"1";"1";"[1,2,3,18]";"1";"0";"1"
"121";"4";"4";"1";"7";"1";"1";"2";"1";"[1,2,3,8]";"1";"0";"1"
"122";"34";"4";"1";"28";"1";"1";"2";"1";"[1,2,3,29]";"1";"0";"1"
"123";"9";"4";"1";"34";"1";"1";"2";"2";"[1,2,3,35]";"2";"0";"1"
"124";"8";"4";"1";"39";"1";"1";"2";"2";"[1,2,3,40]";"2";"0";"1"
"125";"4";"5";"1";"7";"1";"1";"2";"1";"[1,2,3,8]";"1";"0";"1"
"126";"39";"5";"1";"32";"1";"1";"2";"1";"[1,2,3,33]";"1";"0";"1"
"127";"34";"5";"1";"28";"1";"1";"2";"1";"[1,2,3,29]";"1";"0";"1"
"128";"13";"5";"1";"6";"1";"1";"2";"1";"[1,2,3,7]";"1";"0";"1"
"129";"27";"5";"1";"5";"1";"1";"2";"1";"[1,2,3,6]";"1";"0";"1"
"130";"12";"5";"1";"30";"1";"1";"2";"1";"[1,2,3,31]";"1";"0";"1"
"131";"9";"5";"1";"34";"1";"1";"2";"2";"[1,2,3,35]";"2";"0";"1"
"132";"8";"5";"1";"39";"1";"1";"2";"2";"[1,2,3,40]";"2";"0";"1"
"133";"14";"5";"1";"11";"1";"1";"2";"1";"[1,2,3,12]";"1";"0";"1"
"134";"15";"5";"1";"14";"1";"1";"2";"1";"[1,2,3,15]";"1";"0";"1"
"135";"39";"6";"1";"32";"1";"1";"2";"1";"[1,2,3,33]";"1";"0";"1"
"136";"27";"6";"1";"5";"1";"1";"2";"1";"[1,2,3,6]";"1";"0";"1"
"137";"13";"6";"1";"6";"1";"1";"2";"1";"[1,2,3,7]";"1";"0";"1"
"138";"12";"6";"1";"30";"1";"1";"2";"1";"[1,2,3,31]";"1";"0";"1"
"139";"37";"6";"1";"29";"1";"1";"2";"1";"[1,2,3,30]";"1";"0";"1"
"140";"14";"6";"1";"11";"1";"1";"2";"1";"[1,2,3,12]";"1";"0";"1"
"141";"15";"6";"1";"14";"1";"1";"2";"1";"[1,2,3,15]";"1";"0";"1"
"142";"11";"7";"1";"36";"1";"1";"2";"1";"[1,2,3,37]";"1";"0";"1"
"143";"30";"7";"1";"22";"1";"1";"2";"1";"[1,2,3,23]";"1";"0";"1"
"144";"25";"7";"1";"21";"1";"1";"2";"1";"[1,2,3,22]";"1";"0";"1"
"145";"37";"7";"1";"29";"1";"1";"2";"1";"[1,2,3,30]";"1";"0";"1"
"146";"21";"7";"1";"24";"1";"1";"2";"1";"[1,2,3,25]";"1";"0";"1"
"147";"29";"8";"1";"12";"1";"1";"2";"1";"[1,2,3,13]";"1";"0";"1"
"148";"33";"8";"1";"40";"1";"1";"2";"2";"[1,2,3]";"2";"0";"1"
"149";"11";"8";"1";"36";"1";"1";"2";"1";"[1,2,3,37]";"1";"0";"1"
"150";"30";"8";"1";"22";"1";"1";"2";"1";"[1,2,3,23]";"1";"0";"1"
"151";"25";"8";"1";"21";"1";"1";"2";"1";"[1,2,3,22]";"1";"0";"1"
"152";"17";"8";"1";"33";"1";"1";"2";"2";"[1,2,3,34]";"1";"0";"1"
"153";"21";"8";"1";"24";"1";"1";"2";"1";"[1,2,3,25]";"1";"0";"1"
"154";"29";"9";"1";"12";"1";"1";"2";"1";"[1,2,3,13]";"1";"0";"1"
"155";"31";"9";"1";"31";"1";"1";"2";"1";"[1,2,3,32]";"1";"0";"1"
"156";"33";"9";"1";"40";"1";"1";"2";"2";"[1,2,3]";"2";"0";"1"
"157";"20";"9";"1";"8";"1";"1";"2";"1";"[1,2,3,9]";"1";"0";"1"
"158";"3";"9";"1";"15";"1";"1";"2";"2";"[1,2,3,16]";"2";"0";"1"
"159";"17";"9";"1";"33";"1";"1";"2";"2";"[1,2,3,34]";"1";"0";"1"
"160";"32";"10";"1";"25";"1";"1";"2";"1";"[1,2,3,26]";"1";"0";"1"
"161";"31";"10";"1";"31";"1";"1";"2";"1";"[1,2,3,32]";"1";"0";"1"
"162";"40";"10";"1";"4";"1";"1";"2";"1";"[1,2,3,5]";"1";"0";"1"
"163";"20";"10";"1";"8";"1";"1";"2";"1";"[1,2,3,9]";"1";"0";"1"
"164";"3";"10";"1";"15";"1";"1";"2";"2";"[1,2,3,16]";"2";"0";"1"
"165";"32";"11";"1";"25";"1";"1";"2";"1";"[1,2,3,26]";"1";"0";"1"
"166";"6";"11";"1";"16";"1";"1";"2";"1";"[1,2,3,17]";"1";"0";"1"
"167";"10";"11";"1";"3";"1";"1";"2";"1";"[1,2,4]";"1";"0";"1"
"168";"40";"11";"1";"4";"1";"1";"2";"1";"[1,2,3,5]";"1";"0";"1"
"169";"36";"11";"1";"37";"1";"1";"2";"1";"[1,2,3,38]";"1";"0";"1"
"170";"24";"11";"1";"23";"1";"1";"2";"1";"[1,2,3,24]";"1";"0";"1"
"171";"19";"11";"1";"26";"1";"1";"2";"2";"[1,2,3,27]";"1";"0";"1"
"172";"6";"12";"1";"16";"1";"1";"2";"1";"[1,2,3,17]";"1";"0";"1"
"173";"10";"12";"1";"3";"1";"1";"2";"1";"[1,2,4]";"1";"0";"1"
"174";"38";"12";"1";"10";"1";"1";"2";"2";"[1,2,3,11]";"1";"0";"1"
"175";"2";"12";"1";"9";"1";"1";"2";"1";"[1,2,3,10]";"1";"0";"1"
"176";"36";"12";"1";"37";"1";"1";"2";"1";"[1,2,3,38]";"1";"0";"1"
"177";"24";"12";"1";"23";"1";"1";"2";"1";"[1,2,3,24]";"1";"0";"1"
"178";"19";"12";"1";"26";"1";"1";"2";"2";"[1,2,3,27]";"1";"0";"1"
"179";"38";"13";"1";"10";"1";"1";"2";"2";"[1,2,3,11]";"1";"0";"1"
"180";"2";"13";"1";"9";"1";"1";"2";"1";"[1,2,3,10]";"1";"0";"1"
"181";"5";"14";"1";"13";"1";"1";"2";"1";"[1,2,3,14]";"1";"0";"1"
"182";"26";"14";"1";"38";"1";"1";"2";"2";"[1,2,3,39]";"2";"0";"1"
"183";"28";"15";"1";"18";"1";"1";"2";"1";"[1,2,3,19]";"1";"0";"1"
"184";"5";"15";"1";"13";"1";"1";"2";"1";"[1,2,3,14]";"1";"0";"1"
"185";"26";"15";"1";"38";"1";"1";"2";"2";"[1,2,3,39]";"2";"0";"1"
"186";"28";"16";"1";"18";"1";"1";"2";"1";"[1,2,3,19]";"1";"0";"1"
"187";"7";"17";"1";"35";"1";"1";"2";"1";"[1,2,3,36]";"1";"0";"1"
"188";"7";"18";"1";"35";"1";"1";"2";"1";"[1,2,3,36]";"1";"0";"1"
"189";"35";"19";"1";"20";"1";"1";"2";"2";"[1,2,3,21]";"2";"0";"1"
"190";"35";"20";"1";"20";"1";"1";"2";"2";"[1,2,3,21]";"2";"0";"1"
"191";"22";"20";"1";"17";"1";"1";"2";"1";"[1,2,3,18]";"1";"0";"1"
"192";"16";"20";"1";"2";"1";"1";"2";"1";"[1,3]";"1";"0";"1"
"193";"1";"20";"1";"27";"1";"1";"2";"2";"[1,2,3,28]";"2";"0";"1"
"194";"18";"20";"1";"1";"1";"1";"2";"1";"[2,3]";"1";"0";"1"
"195";"23";"21";"1";"19";"1";"1";"2";"1";"[1,2,3,20]";"1";"0";"1"
"196";"22";"21";"1";"17";"1";"1";"2";"1";"[1,2,3,18]";"1";"0";"1"
"197";"16";"21";"1";"2";"1";"1";"2";"1";"[1,3]";"1";"0";"1"
"198";"1";"21";"1";"27";"1";"1";"2";"2";"[1,2,3,28]";"2";"0";"1"
"199";"18";"21";"1";"1";"1";"1";"2";"1";"[2,3]";"1";"0";"1"
"200";"23";"22";"1";"19";"1";"1";"2";"1";"[1,2,3,20]";"1";"0";"1"
"201";"37";"2";"1";"29";"1";"1";"3";"1";"[1,2,3,30]";"1";"0";"1"
"202";"12";"2";"1";"30";"1";"1";"3";"1";"[1,2,3,31]";"1";"0";"1"
"203";"9";"2";"1";"34";"1";"1";"3";"2";"[1,2,3,35]";"2";"0";"1"
"204";"21";"3";"1";"24";"1";"1";"3";"1";"[1,2,3,25]";"1";"0";"1"
"205";"37";"3";"1";"29";"1";"1";"3";"1";"[1,2,3,30]";"1";"0";"1"
"206";"25";"3";"1";"21";"1";"1";"3";"1";"[1,2,3,22]";"1";"0";"1"
"207";"12";"3";"1";"30";"1";"1";"3";"1";"[1,2,3,31]";"1";"0";"1"
"208";"13";"3";"1";"6";"1";"1";"3";"1";"[1,2,3,7]";"1";"0";"1"
"209";"15";"3";"1";"14";"1";"1";"3";"1";"[1,2,3,15]";"1";"0";"1"
"210";"40";"3";"1";"4";"1";"1";"3";"1";"[1,2,3,5]";"1";"0";"1"
"211";"9";"3";"1";"34";"1";"1";"3";"2";"[1,2,3,35]";"2";"0";"1"
"212";"39";"4";"1";"32";"1";"1";"3";"1";"[1,2,3,33]";"1";"0";"1"
"213";"21";"4";"1";"24";"1";"1";"3";"1";"[1,2,3,25]";"1";"0";"1"
"214";"25";"4";"1";"21";"1";"1";"3";"1";"[1,2,3,22]";"1";"0";"1"
"215";"35";"4";"1";"20";"1";"1";"3";"2";"[1,2,3,21]";"1";"0";"1"
"216";"13";"4";"1";"6";"1";"1";"3";"1";"[1,2,3,7]";"1";"0";"1"
"217";"15";"4";"1";"14";"1";"1";"3";"1";"[1,2,3,15]";"1";"0";"1"
"218";"40";"4";"1";"4";"1";"1";"3";"1";"[1,2,3,5]";"1";"0";"1"
"219";"29";"4";"1";"12";"1";"1";"3";"1";"[1,2,3,13]";"1";"0";"1"
"220";"27";"4";"1";"5";"1";"1";"3";"1";"[1,2,3,6]";"1";"0";"1"
"221";"4";"4";"1";"7";"1";"1";"3";"1";"[1,2,3,8]";"1";"0";"1"
"222";"39";"5";"1";"32";"1";"1";"3";"1";"[1,2,3,33]";"1";"0";"1"
"223";"11";"5";"1";"36";"1";"1";"3";"1";"[1,2,3,37]";"1";"0";"1"
"224";"24";"5";"1";"23";"1";"1";"3";"1";"[1,2,3,24]";"1";"0";"1"
"225";"35";"5";"1";"20";"1";"1";"3";"2";"[1,2,3,21]";"1";"0";"1"
"226";"17";"5";"1";"33";"1";"1";"3";"2";"[1,2,3,34]";"1";"0";"1"
"227";"3";"5";"1";"15";"1";"1";"3";"2";"[1,2,3,16]";"1";"0";"1"
"228";"14";"5";"1";"11";"1";"1";"3";"1";"[1,2,3,12]";"1";"0";"1"
"229";"29";"5";"1";"12";"1";"1";"3";"1";"[1,2,3,13]";"1";"0";"1"
"230";"27";"5";"1";"5";"1";"1";"3";"1";"[1,2,3,6]";"1";"0";"1"
"231";"4";"5";"1";"7";"1";"1";"3";"1";"[1,2,3,8]";"1";"0";"1"
"232";"5";"6";"1";"13";"1";"1";"3";"1";"[1,2,3,14]";"1";"0";"1"
"233";"11";"6";"1";"36";"1";"1";"3";"1";"[1,2,3,37]";"1";"0";"1"
"234";"16";"6";"1";"2";"1";"1";"3";"1";"[1,3]";"0";"1";"1"
"235";"24";"6";"1";"23";"1";"1";"3";"1";"[1,2,3,24]";"1";"0";"1"
"236";"17";"6";"1";"33";"1";"1";"3";"2";"[1,2,3,34]";"1";"0";"1"
"237";"3";"6";"1";"15";"1";"1";"3";"2";"[1,2,3,16]";"1";"0";"1"
"238";"14";"6";"1";"11";"1";"1";"3";"1";"[1,2,3,12]";"1";"0";"1"
"239";"10";"6";"1";"3";"1";"1";"3";"1";"[1,2,4]";"1";"0";"1"
"240";"28";"6";"1";"18";"1";"1";"3";"1";"[1,2,3,19]";"1";"0";"1"
"241";"2";"6";"1";"9";"1";"1";"3";"1";"[1,2,3,10]";"1";"0";"1"
"242";"30";"6";"1";"22";"1";"1";"3";"1";"[1,2,3,23]";"1";"0";"1"
"243";"5";"7";"1";"13";"1";"1";"3";"1";"[1,2,3,14]";"1";"0";"1"
"244";"16";"7";"1";"2";"1";"1";"3";"1";"[1,3]";"0";"2";"1"
"245";"6";"7";"1";"16";"1";"1";"3";"1";"[1,2,3,17]";"1";"0";"1"
"246";"10";"7";"1";"3";"1";"1";"3";"1";"[1,2,4]";"1";"0";"1"
"247";"28";"7";"1";"18";"1";"1";"3";"1";"[1,2,3,19]";"1";"0";"1"
"248";"30";"7";"1";"22";"1";"1";"3";"1";"[1,2,3,23]";"1";"0";"1"
"249";"2";"7";"1";"9";"1";"1";"3";"1";"[1,2,3,10]";"1";"0";"1"
"250";"7";"8";"1";"35";"1";"1";"3";"1";"[1,2,3,36]";"1";"0";"1"
"251";"6";"8";"1";"16";"1";"1";"3";"1";"[1,2,3,17]";"1";"0";"1"
"252";"18";"8";"1";"1";"1";"1";"3";"1";"[2,3]";"1";"0";"1"
"253";"7";"9";"1";"35";"1";"1";"3";"1";"[1,2,3,36]";"1";"0";"1"
"254";"19";"9";"1";"26";"1";"1";"3";"2";"[1,2,3,27]";"2";"0";"1"
"255";"22";"10";"1";"17";"1";"1";"3";"1";"[1,2,3,18]";"1";"0";"1"
"256";"18";"10";"1";"1";"1";"1";"3";"1";"[2,3]";"1";"0";"1"
"257";"31";"10";"1";"31";"1";"1";"3";"1";"[1,2,3,32]";"1";"0";"1"
"258";"26";"10";"1";"38";"1";"1";"3";"2";"[1,2,3,39]";"2";"0";"1"
"259";"19";"10";"1";"26";"1";"1";"3";"2";"[1,2,3,27]";"2";"0";"1"
"260";"32";"10";"1";"25";"1";"1";"3";"1";"[1,2,3,26]";"1";"0";"1"
"261";"22";"11";"1";"17";"1";"1";"3";"1";"[1,2,3,18]";"1";"0";"1"
"262";"38";"11";"1";"10";"1";"1";"3";"2";"[1,2,3,11]";"1";"0";"1"
"263";"31";"11";"1";"31";"1";"1";"3";"1";"[1,2,3,32]";"1";"0";"1"
"264";"26";"11";"1";"38";"1";"1";"3";"2";"[1,2,3,39]";"2";"0";"1"
"265";"32";"11";"1";"25";"1";"1";"3";"1";"[1,2,3,26]";"1";"0";"1"
"266";"38";"12";"1";"10";"1";"1";"3";"2";"[1,2,3,11]";"1";"0";"1"
"267";"20";"12";"1";"8";"1";"1";"3";"1";"[1,2,3,9]";"1";"0";"1"
"268";"8";"12";"1";"39";"1";"1";"3";"2";"[1,2,3,40]";"1";"0";"1"
"269";"16";"13";"1";"2";"1";"1";"3";"1";"[1,3]";"1";"2";"1"
"270";"20";"13";"1";"8";"1";"1";"3";"1";"[1,2,3,9]";"1";"0";"1"
"271";"8";"13";"1";"39";"1";"1";"3";"2";"[1,2,3,40]";"1";"0";"1"
"272";"34";"13";"1";"28";"1";"1";"3";"1";"[1,2,3,29]";"1";"0";"1"
"273";"16";"14";"1";"2";"1";"1";"3";"1";"[1,3]";"1";"2";"1"
"274";"36";"14";"1";"37";"1";"1";"3";"1";"[1,2,3,38]";"1";"0";"1"
"275";"34";"14";"1";"28";"1";"1";"3";"1";"[1,2,3,29]";"1";"0";"1"
"276";"36";"15";"1";"37";"1";"1";"3";"1";"[1,2,3,38]";"1";"0";"1"
"277";"33";"19";"1";"40";"1";"1";"3";"2";"[1,2,3]";"2";"0";"1"
"278";"33";"20";"1";"40";"1";"1";"3";"2";"[1,2,3]";"2";"0";"1"
"279";"23";"25";"1";"19";"1";"1";"3";"1";"[1,2,3,20]";"1";"0";"1"
"280";"1";"25";"1";"27";"1";"1";"3";"2";"[1,2,3,28]";"2";"0";"1"
"281";"23";"26";"1";"19";"1";"1";"3";"1";"[1,2,3,20]";"1";"0";"1"
"282";"1";"26";"1";"27";"1";"1";"3";"2";"[1,2,3,28]";"2";"0";"1"
"283";"37";"2";"1";"29";"1";"1";"4";"1";"[1,2,3,30]";"1";"0";"1"
"284";"39";"2";"1";"32";"1";"1";"4";"1";"[1,2,3,33]";"1";"0";"1"
"285";"25";"3";"1";"21";"1";"1";"4";"1";"[1,2,3,22]";"1";"0";"1"
"286";"37";"3";"1";"29";"1";"1";"4";"1";"[1,2,3,30]";"1";"0";"1"
"287";"21";"3";"1";"24";"1";"1";"4";"1";"[1,2,3,25]";"1";"0";"1"
"288";"13";"3";"1";"6";"1";"1";"4";"1";"[1,2,3,7]";"1";"0";"1"
"289";"34";"3";"1";"28";"1";"1";"4";"1";"[1,2,3,29]";"2";"0";"1"
"290";"15";"3";"1";"14";"1";"1";"4";"1";"[1,2,3,15]";"1";"0";"1"
"291";"8";"3";"1";"39";"1";"1";"4";"2";"[1,2,3,40]";"1";"0";"1"
"292";"39";"3";"1";"32";"1";"1";"4";"1";"[1,2,3,33]";"1";"0";"1"
"293";"29";"3";"1";"12";"1";"1";"4";"1";"[1,2,3,13]";"1";"0";"1"
"294";"25";"4";"1";"21";"1";"1";"4";"1";"[1,2,3,22]";"1";"0";"1"
"295";"21";"4";"1";"24";"1";"1";"4";"1";"[1,2,3,25]";"1";"0";"1"
"296";"9";"4";"1";"34";"1";"1";"4";"2";"[1,2,3,35]";"2";"0";"1"
"297";"13";"4";"1";"6";"1";"1";"4";"1";"[1,2,3,7]";"1";"0";"1"
"298";"27";"4";"1";"5";"1";"1";"4";"1";"[1,2,3,6]";"1";"0";"1"
"299";"34";"4";"1";"28";"1";"1";"4";"1";"[1,2,3,29]";"2";"0";"1"
"300";"15";"4";"1";"14";"1";"1";"4";"1";"[1,2,3,15]";"1";"0";"1"
"301";"16";"4";"1";"2";"1";"1";"4";"1";"[1,3]";"0";"1";"1"
"302";"8";"4";"1";"39";"1";"1";"4";"2";"[1,2,3,40]";"1";"0";"1"
"303";"40";"4";"1";"4";"1";"1";"4";"1";"[1,2,3,5]";"1";"0";"1"
"304";"29";"5";"1";"12";"1";"1";"4";"1";"[1,2,3,13]";"1";"0";"1"
"305";"30";"5";"1";"22";"1";"1";"4";"1";"[1,2,3,23]";"1";"0";"1"
"306";"9";"5";"1";"34";"1";"1";"4";"2";"[1,2,3,35]";"2";"0";"1"
"307";"3";"5";"1";"15";"1";"1";"4";"2";"[1,2,3,16]";"1";"0";"1"
"308";"4";"5";"1";"7";"1";"1";"4";"1";"[1,2,3,8]";"1";"0";"1"
"309";"36";"5";"1";"37";"1";"1";"4";"1";"[1,2,3,38]";"1";"0";"1"
"310";"27";"5";"1";"5";"1";"1";"4";"1";"[1,2,3,6]";"1";"0";"1"
"311";"28";"5";"1";"18";"1";"1";"4";"1";"[1,2,3,19]";"1";"0";"1"
"312";"40";"5";"1";"4";"1";"1";"4";"1";"[1,2,3,5]";"1";"0";"1"
"313";"30";"6";"1";"22";"1";"1";"4";"1";"[1,2,3,23]";"1";"0";"1"
"314";"3";"6";"1";"15";"1";"1";"4";"2";"[1,2,3,16]";"1";"0";"1"
"315";"4";"6";"1";"7";"1";"1";"4";"1";"[1,2,3,8]";"1";"0";"1"
"316";"35";"6";"1";"20";"1";"1";"4";"2";"[1,2,3,21]";"2";"0";"1"
"317";"36";"6";"1";"37";"1";"1";"4";"1";"[1,2,3,38]";"1";"0";"1"
"318";"17";"6";"1";"33";"1";"1";"4";"2";"[1,2,3,34]";"0";"1";"1"
"319";"28";"6";"1";"18";"1";"1";"4";"1";"[1,2,3,19]";"1";"0";"1"
"320";"19";"6";"1";"26";"1";"1";"4";"2";"[1,2,3,27]";"2";"0";"1"
"321";"16";"6";"1";"2";"1";"1";"4";"1";"[1,3]";"0";"3";"1"
"322";"35";"7";"1";"20";"1";"1";"4";"2";"[1,2,3,21]";"2";"0";"1"
"323";"17";"7";"1";"33";"1";"1";"4";"2";"[1,2,3,34]";"0";"2";"1"
"324";"11";"7";"1";"36";"1";"1";"4";"1";"[1,2,3,37]";"1";"0";"1"
"325";"19";"7";"1";"26";"1";"1";"4";"2";"[1,2,3,27]";"2";"0";"1"
"326";"7";"8";"1";"35";"1";"1";"4";"1";"[1,2,3,36]";"1";"0";"1"
"327";"5";"8";"1";"13";"1";"1";"4";"1";"[1,2,3,14]";"1";"0";"1"
"328";"14";"8";"1";"11";"1";"1";"4";"1";"[1,2,3,12]";"1";"0";"1"
"329";"10";"8";"1";"3";"1";"1";"4";"1";"[1,2,4]";"1";"0";"1"
"330";"11";"8";"1";"36";"1";"1";"4";"1";"[1,2,3,37]";"1";"0";"1"
"331";"17";"8";"1";"33";"1";"1";"4";"2";"[1,2,3,34]";"0";"3";"1"
"332";"7";"9";"1";"35";"1";"1";"4";"1";"[1,2,3,36]";"1";"0";"1"
"333";"16";"9";"1";"2";"1";"1";"4";"1";"[1,3]";"1";"3";"1"
"334";"31";"9";"1";"31";"1";"1";"4";"1";"[1,2,3,32]";"2";"0";"1"
"335";"32";"9";"1";"25";"1";"1";"4";"1";"[1,2,3,26]";"1";"0";"1"
"336";"5";"9";"1";"13";"1";"1";"4";"1";"[1,2,3,14]";"1";"0";"1"
"337";"14";"9";"1";"11";"1";"1";"4";"1";"[1,2,3,12]";"1";"0";"1"
"338";"10";"9";"1";"3";"1";"1";"4";"1";"[1,2,4]";"1";"0";"1"
"339";"6";"9";"1";"16";"1";"1";"4";"1";"[1,2,3,17]";"1";"0";"1"
"340";"17";"10";"1";"33";"1";"1";"4";"2";"[1,2,3,34]";"1";"3";"1"
"341";"26";"10";"1";"38";"1";"1";"4";"2";"[1,2,3,39]";"0";"6";"1"
"342";"16";"10";"1";"2";"1";"1";"4";"1";"[1,3]";"1";"3";"1"
"343";"31";"10";"1";"31";"1";"1";"4";"1";"[1,2,3,32]";"2";"0";"1"
"344";"32";"10";"1";"25";"1";"1";"4";"1";"[1,2,3,26]";"1";"0";"1"
"345";"24";"10";"1";"23";"1";"1";"4";"1";"[1,2,3,24]";"1";"0";"1"
"346";"6";"10";"1";"16";"1";"1";"4";"1";"[1,2,3,17]";"1";"0";"1"
"347";"17";"11";"1";"33";"1";"1";"4";"2";"[1,2,3,34]";"1";"3";"1"
"348";"24";"11";"1";"23";"1";"1";"4";"1";"[1,2,3,24]";"1";"0";"1"
"349";"2";"11";"1";"9";"1";"1";"4";"1";"[1,2,3,10]";"2";"0";"1"
"350";"22";"12";"1";"17";"1";"1";"4";"1";"[1,2,3,18]";"1";"0";"1"
"351";"2";"12";"1";"9";"1";"1";"4";"1";"[1,2,3,10]";"2";"0";"1"
"352";"22";"13";"1";"17";"1";"1";"4";"1";"[1,2,3,18]";"1";"0";"1"
"353";"33";"14";"1";"40";"1";"1";"4";"2";"[1,2,3]";"1";"0";"1"
"354";"38";"14";"1";"10";"1";"1";"4";"2";"[1,2,3,11]";"1";"0";"1"
"355";"33";"15";"1";"40";"1";"1";"4";"2";"[1,2,3]";"1";"0";"1"
"356";"38";"15";"1";"10";"1";"1";"4";"2";"[1,2,3,11]";"1";"0";"1"
"357";"12";"18";"1";"30";"1";"1";"4";"1";"[1,2,3,31]";"1";"0";"1"
"358";"18";"18";"1";"1";"1";"1";"4";"1";"[2,3]";"1";"0";"1"
"359";"12";"19";"1";"30";"1";"1";"4";"1";"[1,2,3,31]";"1";"0";"1"
"360";"26";"19";"1";"38";"1";"1";"4";"2";"[1,2,3,39]";"2";"6";"1"
"361";"18";"19";"1";"1";"1";"1";"4";"1";"[2,3]";"1";"0";"1"
"362";"26";"20";"1";"38";"1";"1";"4";"2";"[1,2,3,39]";"2";"6";"1"
"363";"23";"21";"1";"19";"1";"1";"4";"1";"[1,2,3,20]";"1";"0";"1"
"364";"1";"22";"1";"27";"1";"1";"4";"2";"[1,2,3,28]";"2";"0";"1"
"365";"20";"22";"1";"8";"1";"1";"4";"1";"[1,2,3,9]";"1";"0";"1"
"366";"23";"22";"1";"19";"1";"1";"4";"1";"[1,2,3,20]";"1";"0";"1"
"367";"1";"23";"1";"27";"1";"1";"4";"2";"[1,2,3,28]";"2";"0";"1"
"368";"20";"23";"1";"8";"1";"1";"4";"1";"[1,2,3,9]";"1";"0";"1"
"369";"9";"2";"1";"34";"1";"1";"5";"2";"[1,2,3,35]";"2";"0";"1"
"370";"21";"2";"1";"24";"1";"1";"5";"1";"[1,2,3,25]";"1";"0";"1"
"371";"14";"3";"1";"11";"1";"1";"5";"1";"[1,2,3,12]";"1";"0";"1"
"372";"25";"3";"1";"21";"1";"1";"5";"1";"[1,2,3,22]";"1";"0";"1"
"373";"29";"3";"1";"12";"1";"1";"5";"1";"[1,2,3,13]";"1";"0";"1"
"374";"13";"3";"1";"6";"1";"1";"5";"1";"[1,2,3,7]";"1";"0";"1"
"375";"39";"3";"1";"32";"1";"1";"5";"1";"[1,2,3,33]";"1";"0";"1"
"376";"8";"3";"1";"39";"1";"1";"5";"2";"[1,2,3,40]";"1";"0";"1"
"377";"9";"3";"1";"34";"1";"1";"5";"2";"[1,2,3,35]";"2";"0";"1"
"378";"21";"3";"1";"24";"1";"1";"5";"1";"[1,2,3,25]";"1";"0";"1"
"379";"27";"3";"1";"5";"1";"1";"5";"1";"[1,2,3,6]";"1";"0";"1"
"380";"3";"4";"1";"15";"1";"1";"5";"2";"[1,2,3,16]";"1";"0";"1"
"381";"30";"4";"1";"22";"1";"1";"5";"1";"[1,2,3,23]";"1";"0";"1"
"382";"14";"4";"1";"11";"1";"1";"5";"1";"[1,2,3,12]";"1";"0";"1"
"383";"25";"4";"1";"21";"1";"1";"5";"1";"[1,2,3,22]";"1";"0";"1"
"384";"29";"4";"1";"12";"1";"1";"5";"1";"[1,2,3,13]";"1";"0";"1"
"385";"13";"4";"1";"6";"1";"1";"5";"1";"[1,2,3,7]";"1";"0";"1"
"386";"39";"4";"1";"32";"1";"1";"5";"1";"[1,2,3,33]";"1";"0";"1"
"387";"4";"4";"1";"7";"1";"1";"5";"1";"[1,2,3,8]";"1";"0";"1"
"388";"8";"4";"1";"39";"1";"1";"5";"2";"[1,2,3,40]";"1";"0";"1"
"389";"5";"4";"1";"13";"1";"1";"5";"1";"[1,2,3,14]";"2";"0";"1"
"390";"27";"4";"1";"5";"1";"1";"5";"1";"[1,2,3,6]";"1";"0";"1"
"391";"40";"4";"1";"4";"1";"1";"5";"1";"[1,2,3,5]";"1";"0";"1"
"392";"3";"5";"1";"15";"1";"1";"5";"2";"[1,2,3,16]";"1";"0";"1"
"393";"30";"5";"1";"22";"1";"1";"5";"1";"[1,2,3,23]";"1";"0";"1"
"394";"36";"5";"1";"37";"1";"1";"5";"1";"[1,2,3,38]";"1";"0";"1"
"395";"4";"5";"1";"7";"1";"1";"5";"1";"[1,2,3,8]";"1";"0";"1"
"396";"31";"5";"1";"31";"1";"1";"5";"1";"[1,2,3,32]";"1";"0";"1"
"397";"5";"5";"1";"13";"1";"1";"5";"1";"[1,2,3,14]";"2";"0";"1"
"398";"6";"5";"1";"16";"1";"1";"5";"1";"[1,2,3,17]";"1";"0";"1"
"399";"40";"5";"1";"4";"1";"1";"5";"1";"[1,2,3,5]";"1";"0";"1"
"400";"2";"5";"1";"9";"1";"1";"5";"1";"[1,2,3,10]";"1";"0";"1"
"401";"36";"6";"1";"37";"1";"1";"5";"1";"[1,2,3,38]";"1";"0";"1"
"402";"24";"6";"1";"23";"1";"1";"5";"1";"[1,2,3,24]";"1";"0";"1"
"403";"31";"6";"1";"31";"1";"1";"5";"1";"[1,2,3,32]";"1";"0";"1"
"404";"28";"6";"1";"18";"1";"1";"5";"1";"[1,2,3,19]";"1";"0";"1"
"405";"6";"6";"1";"16";"1";"1";"5";"1";"[1,2,3,17]";"1";"0";"1"
"406";"15";"6";"1";"14";"1";"1";"5";"1";"[1,2,3,15]";"1";"0";"1"
"407";"2";"6";"1";"9";"1";"1";"5";"1";"[1,2,3,10]";"1";"0";"1"
"408";"20";"7";"1";"8";"1";"1";"5";"1";"[1,2,3,9]";"2";"0";"1"
"409";"34";"7";"1";"28";"1";"1";"5";"1";"[1,2,3,29]";"2";"0";"1"
"410";"24";"7";"1";"23";"1";"1";"5";"1";"[1,2,3,24]";"1";"0";"1"
"411";"28";"7";"1";"18";"1";"1";"5";"1";"[1,2,3,19]";"1";"0";"1"
"412";"7";"7";"1";"35";"1";"1";"5";"1";"[1,2,3,36]";"0";"3";"1"
"413";"15";"7";"1";"14";"1";"1";"5";"1";"[1,2,3,15]";"1";"0";"1"
"414";"16";"7";"1";"2";"1";"1";"5";"1";"[1,3]";"0";"6";"1"
"415";"10";"8";"1";"3";"1";"1";"5";"1";"[1,2,4]";"1";"0";"1"
"416";"20";"8";"1";"8";"1";"1";"5";"1";"[1,2,3,9]";"2";"0";"1"
"417";"34";"8";"1";"28";"1";"1";"5";"1";"[1,2,3,29]";"2";"0";"1"
"418";"37";"8";"1";"29";"1";"1";"5";"1";"[1,2,3,30]";"1";"0";"1"
"419";"7";"9";"1";"35";"1";"1";"5";"1";"[1,2,3,36]";"0";"4";"1"
"420";"10";"9";"1";"3";"1";"1";"5";"1";"[1,2,4]";"1";"0";"1"
"421";"37";"9";"1";"29";"1";"1";"5";"1";"[1,2,3,30]";"1";"0";"1"
"422";"7";"9";"1";"35";"1";"1";"5";"1";"[1,2,3,36]";"0";"5";"1"
"423";"19";"10";"1";"26";"1";"1";"5";"2";"[1,2,3,27]";"2";"0";"1"
"424";"7";"10";"1";"35";"1";"1";"5";"1";"[1,2,3,36]";"0";"5";"1"
"425";"19";"11";"1";"26";"1";"1";"5";"2";"[1,2,3,27]";"2";"0";"1"
"426";"7";"11";"1";"35";"1";"1";"5";"1";"[1,2,3,36]";"1";"5";"1"
"427";"18";"11";"1";"1";"1";"1";"5";"1";"[2,3]";"1";"0";"1"
"428";"11";"11";"1";"36";"1";"1";"5";"1";"[1,2,3,37]";"1";"0";"1"
"429";"32";"12";"1";"25";"1";"1";"5";"1";"[1,2,3,26]";"1";"0";"1"
"430";"7";"12";"1";"35";"1";"1";"5";"1";"[1,2,3,36]";"1";"5";"1"
"431";"18";"12";"1";"1";"1";"1";"5";"1";"[2,3]";"1";"0";"1"
"432";"16";"12";"1";"2";"1";"1";"5";"1";"[1,3]";"2";"6";"1"
"433";"11";"12";"1";"36";"1";"1";"5";"1";"[1,2,3,37]";"1";"0";"1"
"434";"26";"13";"1";"38";"1";"1";"5";"2";"[1,2,3,39]";"2";"0";"1"
"435";"32";"13";"1";"25";"1";"1";"5";"1";"[1,2,3,26]";"1";"0";"1"
"436";"16";"13";"1";"2";"1";"1";"5";"1";"[1,3]";"2";"6";"1"
"437";"26";"14";"1";"38";"1";"1";"5";"2";"[1,2,3,39]";"2";"0";"1"
"438";"17";"14";"1";"33";"1";"1";"5";"2";"[1,2,3,34]";"1";"0";"1"
"439";"35";"15";"1";"20";"1";"1";"5";"2";"[1,2,3,21]";"1";"0";"1"
"440";"17";"15";"1";"33";"1";"1";"5";"2";"[1,2,3,34]";"1";"0";"1"
"441";"35";"16";"1";"20";"1";"1";"5";"2";"[1,2,3,21]";"1";"0";"1"
"442";"33";"16";"1";"40";"1";"1";"5";"2";"[1,2,3]";"1";"0";"1"
"443";"33";"17";"1";"40";"1";"1";"5";"2";"[1,2,3]";"1";"0";"1"
"444";"39";"18";"1";"32";"1";"1";"5";"1";"[1,2,3,33]";"1";"5";"1"
"445";"38";"19";"1";"10";"1";"1";"5";"2";"[1,2,3,11]";"1";"0";"1"
"446";"38";"20";"1";"10";"1";"1";"5";"2";"[1,2,3,11]";"1";"0";"1"
"447";"12";"21";"1";"30";"1";"1";"5";"1";"[1,2,3,31]";"1";"0";"1"
"448";"34";"22";"1";"28";"1";"1";"5";"1";"[1,2,3,29]";"2";"1";"1"
"449";"12";"22";"1";"30";"1";"1";"5";"1";"[1,2,3,31]";"1";"0";"1"
"450";"23";"22";"1";"19";"1";"1";"5";"1";"[1,2,3,20]";"1";"0";"1"
"451";"34";"23";"1";"28";"1";"1";"5";"1";"[1,2,3,29]";"2";"2";"1"
"452";"34";"23";"1";"28";"1";"1";"5";"1";"[1,2,3,29]";"2";"3";"1"
"453";"23";"23";"1";"19";"1";"1";"5";"1";"[1,2,3,20]";"1";"0";"1"
"454";"16";"24";"1";"2";"1";"1";"5";"1";"[1,3]";"2";"3";"1"
"455";"34";"24";"1";"28";"1";"1";"5";"1";"[1,2,3,29]";"2";"4";"1"
"456";"34";"24";"1";"28";"1";"1";"5";"1";"[1,2,3,29]";"2";"5";"1"
"457";"34";"25";"1";"28";"1";"1";"5";"1";"[1,2,3,29]";"2";"5";"1"
"458";"16";"26";"1";"2";"1";"1";"5";"1";"[1,3]";"2";"2";"1"
"459";"1";"26";"1";"27";"1";"1";"5";"2";"[1,2,3,28]";"1";"0";"1"
"460";"16";"27";"1";"2";"1";"1";"5";"1";"[1,3]";"2";"1";"1"
"461";"1";"27";"1";"27";"1";"1";"5";"2";"[1,2,3,28]";"1";"0";"1"
"462";"16";"29";"1";"2";"1";"1";"5";"1";"[1,3]";"2";"4";"1"
"463";"22";"30";"1";"17";"1";"1";"5";"1";"[1,2,3,18]";"2";"0";"1"
"464";"22";"31";"1";"17";"1";"1";"5";"1";"[1,2,3,18]";"2";"0";"1"
"465";"34";"1";"1";"28";"1";"1";"6";"1";"[1,2,3,29]";"1";"0";"1"
"466";"8";"2";"1";"39";"1";"1";"6";"2";"[1,2,3,40]";"1";"0";"1"
"467";"34";"2";"1";"28";"1";"1";"6";"1";"[1,2,3,29]";"1";"0";"1"
"468";"21";"3";"1";"24";"1";"1";"6";"1";"[1,2,3,25]";"1";"0";"1"
"469";"9";"3";"1";"34";"1";"1";"6";"2";"[1,2,3,35]";"2";"0";"1"
"470";"8";"3";"1";"39";"1";"1";"6";"2";"[1,2,3,40]";"1";"0";"1"
"471";"37";"3";"1";"29";"1";"1";"6";"1";"[1,2,3,30]";"1";"0";"1"
"472";"21";"4";"1";"24";"1";"1";"6";"1";"[1,2,3,25]";"1";"0";"1"
"473";"9";"4";"1";"34";"1";"1";"6";"2";"[1,2,3,35]";"2";"0";"1"
"474";"5";"4";"1";"13";"1";"1";"6";"1";"[1,2,3,14]";"1";"0";"1"
"475";"30";"4";"1";"22";"1";"1";"6";"1";"[1,2,3,23]";"1";"0";"1"
"476";"7";"4";"1";"35";"1";"1";"6";"1";"[1,2,3,36]";"0";"6";"1"
"477";"13";"4";"1";"6";"1";"1";"6";"1";"[1,2,3,7]";"1";"0";"1"
"478";"3";"4";"1";"15";"1";"1";"6";"2";"[1,2,3,16]";"1";"0";"1"
"479";"37";"4";"1";"29";"1";"1";"6";"1";"[1,2,3,30]";"1";"0";"1"
"480";"29";"4";"1";"12";"1";"1";"6";"1";"[1,2,3,13]";"1";"0";"1"
"481";"4";"4";"1";"7";"1";"1";"6";"1";"[1,2,3,8]";"1";"0";"1"
"482";"27";"5";"1";"5";"1";"1";"6";"1";"[1,2,3,6]";"1";"0";"1"
"483";"39";"5";"1";"32";"1";"1";"6";"1";"[1,2,3,33]";"1";"0";"1"
"484";"7";"5";"1";"35";"1";"1";"6";"1";"[1,2,3,36]";"0";"6";"1"
"485";"5";"5";"1";"13";"1";"1";"6";"1";"[1,2,3,14]";"1";"0";"1"
"486";"30";"5";"1";"22";"1";"1";"6";"1";"[1,2,3,23]";"1";"0";"1"
"487";"2";"5";"1";"9";"1";"1";"6";"1";"[1,2,3,10]";"1";"0";"1"
"488";"13";"5";"1";"6";"1";"1";"6";"1";"[1,2,3,7]";"1";"0";"1"
"489";"3";"5";"1";"15";"1";"1";"6";"2";"[1,2,3,16]";"1";"0";"1"
"490";"29";"5";"1";"12";"1";"1";"6";"1";"[1,2,3,13]";"1";"0";"1"
"491";"4";"5";"1";"7";"1";"1";"6";"1";"[1,2,3,8]";"1";"0";"1"
"492";"7";"6";"1";"35";"1";"1";"6";"1";"[1,2,3,36]";"0";"3";"1"
"493";"27";"6";"1";"5";"1";"1";"6";"1";"[1,2,3,6]";"1";"0";"1"
"494";"39";"6";"1";"32";"1";"1";"6";"1";"[1,2,3,33]";"1";"0";"1"
"495";"28";"6";"1";"18";"1";"1";"6";"1";"[1,2,3,19]";"1";"0";"1"
"496";"26";"6";"1";"38";"1";"1";"6";"2";"[1,2,3,39]";"2";"0";"1"
"497";"2";"6";"1";"9";"1";"1";"6";"1";"[1,2,3,10]";"1";"0";"1"
"498";"25";"6";"1";"21";"1";"1";"6";"1";"[1,2,3,22]";"1";"0";"1"
"499";"14";"6";"1";"11";"1";"1";"6";"1";"[1,2,3,12]";"1";"0";"1"
"500";"28";"7";"1";"18";"1";"1";"6";"1";"[1,2,3,19]";"1";"0";"1"
"501";"7";"7";"1";"35";"1";"1";"6";"1";"[1,2,3,36]";"0";"4";"1"
"502";"26";"7";"1";"38";"1";"1";"6";"2";"[1,2,3,39]";"2";"0";"1"
"503";"25";"7";"1";"21";"1";"1";"6";"1";"[1,2,3,22]";"1";"0";"1"
"504";"14";"7";"1";"11";"1";"1";"6";"1";"[1,2,3,12]";"1";"0";"1"
"505";"40";"7";"1";"4";"1";"1";"6";"1";"[1,2,3,5]";"1";"0";"1"
"506";"7";"8";"1";"35";"1";"1";"6";"1";"[1,2,3,36]";"0";"3";"1"
"507";"7";"8";"1";"35";"1";"1";"6";"1";"[1,2,3,36]";"0";"1";"1"
"508";"17";"8";"1";"33";"1";"1";"6";"2";"[1,2,3,34]";"2";"0";"1"
"509";"11";"8";"1";"36";"1";"1";"6";"1";"[1,2,3,37]";"1";"0";"1"
"510";"40";"9";"1";"4";"1";"1";"6";"1";"[1,2,3,5]";"1";"0";"1"
"511";"39";"9";"1";"32";"1";"1";"6";"1";"[1,2,3,33]";"1";"2";"1"
"512";"31";"9";"1";"31";"1";"1";"6";"1";"[1,2,3,32]";"1";"0";"1"
"513";"7";"9";"1";"35";"1";"1";"6";"1";"[1,2,3,36]";"0";"3";"1"
"514";"17";"9";"1";"33";"1";"1";"6";"2";"[1,2,3,34]";"2";"0";"1"
"515";"11";"9";"1";"36";"1";"1";"6";"1";"[1,2,3,37]";"1";"0";"1"
"516";"10";"10";"1";"3";"1";"1";"6";"1";"[1,2,4]";"1";"0";"1"
"517";"7";"10";"1";"35";"1";"1";"6";"1";"[1,2,3,36]";"0";"5";"1"
"518";"15";"10";"1";"14";"1";"1";"6";"1";"[1,2,3,15]";"1";"0";"1"
"519";"6";"10";"1";"16";"1";"1";"6";"1";"[1,2,3,17]";"1";"0";"1"
"520";"20";"10";"1";"8";"1";"1";"6";"1";"[1,2,3,9]";"2";"0";"1"
"521";"31";"10";"1";"31";"1";"1";"6";"1";"[1,2,3,32]";"1";"0";"1"
"522";"39";"10";"1";"32";"1";"1";"6";"1";"[1,2,3,33]";"1";"1";"1"
"523";"10";"11";"1";"3";"1";"1";"6";"1";"[1,2,4]";"1";"0";"1"
"524";"32";"11";"1";"25";"1";"1";"6";"1";"[1,2,3,26]";"1";"0";"1"
"525";"15";"11";"1";"14";"1";"1";"6";"1";"[1,2,3,15]";"1";"0";"1"
"526";"6";"11";"1";"16";"1";"1";"6";"1";"[1,2,3,17]";"1";"0";"1"
"527";"20";"11";"1";"8";"1";"1";"6";"1";"[1,2,3,9]";"2";"0";"1"
"528";"32";"12";"1";"25";"1";"1";"6";"1";"[1,2,3,26]";"1";"0";"1"
"529";"7";"12";"1";"35";"1";"1";"6";"1";"[1,2,3,36]";"0";"6";"1"
"530";"39";"12";"1";"32";"1";"1";"6";"1";"[1,2,3,33]";"1";"4";"1"
"531";"38";"13";"1";"10";"1";"1";"6";"2";"[1,2,3,11]";"2";"0";"1"
"532";"24";"14";"1";"23";"1";"1";"6";"1";"[1,2,3,24]";"1";"0";"1"
"533";"19";"14";"1";"26";"1";"1";"6";"2";"[1,2,3,27]";"2";"0";"1"
"534";"36";"14";"1";"37";"1";"1";"6";"1";"[1,2,3,38]";"1";"0";"1"
"535";"38";"14";"1";"10";"1";"1";"6";"2";"[1,2,3,11]";"2";"0";"1"
"536";"39";"14";"1";"32";"1";"1";"6";"1";"[1,2,3,33]";"1";"5";"1"
"537";"24";"15";"1";"23";"1";"1";"6";"1";"[1,2,3,24]";"1";"0";"1"
"538";"19";"15";"1";"26";"1";"1";"6";"2";"[1,2,3,27]";"2";"0";"1"
"539";"36";"15";"1";"37";"1";"1";"6";"1";"[1,2,3,38]";"1";"0";"1"
"540";"7";"15";"1";"35";"1";"1";"6";"1";"[1,2,3,36]";"1";"6";"1"
"541";"22";"15";"1";"17";"1";"1";"6";"1";"[1,2,3,18]";"1";"0";"1"
"542";"39";"15";"1";"32";"1";"1";"6";"1";"[1,2,3,33]";"1";"6";"1"
"543";"7";"16";"1";"35";"1";"1";"6";"1";"[1,2,3,36]";"1";"6";"1"
"544";"22";"16";"1";"17";"1";"1";"6";"1";"[1,2,3,18]";"1";"0";"1"
"545";"18";"17";"1";"1";"1";"1";"6";"1";"[2,3]";"1";"0";"1"
"546";"16";"17";"1";"2";"1";"1";"6";"1";"[1,3]";"1";"0";"1"
"547";"18";"18";"1";"1";"1";"1";"6";"1";"[2,3]";"1";"0";"1"
"548";"1";"18";"1";"27";"1";"1";"6";"2";"[1,2,3,28]";"2";"0";"1"
"549";"16";"18";"1";"2";"1";"1";"6";"1";"[1,3]";"1";"0";"1"
"550";"1";"19";"1";"27";"1";"1";"6";"2";"[1,2,3,28]";"2";"0";"1"
"551";"35";"19";"1";"20";"1";"1";"6";"2";"[1,2,3,21]";"2";"0";"1"
"552";"35";"20";"1";"20";"1";"1";"6";"2";"[1,2,3,21]";"2";"0";"1"
"553";"33";"22";"1";"40";"1";"1";"6";"2";"[1,2,3]";"1";"0";"1"
"554";"33";"23";"1";"40";"1";"1";"6";"2";"[1,2,3]";"1";"0";"1"
"555";"23";"23";"1";"19";"1";"1";"6";"1";"[1,2,3,20]";"1";"0";"1"
"556";"23";"24";"1";"19";"1";"1";"6";"1";"[1,2,3,20]";"1";"0";"1"
"557";"12";"27";"1";"30";"1";"1";"6";"1";"[1,2,3,31]";"1";"0";"1"
"558";"12";"28";"1";"30";"1";"1";"6";"1";"[1,2,3,31]";"1";"0";"1"
"559";"8";"2";"1";"39";"1";"1";"7";"2";"[1,2,3,40]";"1";"0";"1"
"560";"6";"2";"1";"16";"1";"1";"7";"1";"[1,2,3,17]";"1";"0";"1"
"561";"9";"2";"1";"34";"1";"1";"7";"2";"[1,2,3,35]";"2";"0";"1"
"562";"24";"2";"1";"23";"1";"1";"7";"1";"[1,2,3,24]";"1";"0";"1"
"563";"12";"2";"1";"30";"1";"1";"7";"1";"[1,2,3,31]";"1";"0";"1"
"564";"3";"3";"1";"15";"1";"1";"7";"2";"[1,2,3,16]";"1";"0";"1"
"565";"29";"3";"1";"12";"1";"1";"7";"1";"[1,2,3,13]";"1";"0";"1"
"566";"8";"3";"1";"39";"1";"1";"7";"2";"[1,2,3,40]";"1";"0";"1"
"567";"34";"3";"1";"28";"1";"1";"7";"1";"[1,2,3,29]";"1";"0";"1"
"568";"33";"3";"1";"40";"1";"1";"7";"2";"[1,2,3]";"1";"0";"1"
"569";"6";"3";"1";"16";"1";"1";"7";"1";"[1,2,3,17]";"1";"0";"1"
"570";"9";"3";"1";"34";"1";"1";"7";"2";"[1,2,3,35]";"2";"0";"1"
"571";"24";"3";"1";"23";"1";"1";"7";"1";"[1,2,3,24]";"1";"0";"1"
"572";"21";"3";"1";"24";"1";"1";"7";"1";"[1,2,3,25]";"1";"0";"1"
"573";"12";"3";"1";"30";"1";"1";"7";"1";"[1,2,3,31]";"1";"0";"1"
"574";"1";"3";"1";"27";"1";"1";"7";"2";"[1,2,3,28]";"2";"0";"1"
"575";"28";"4";"1";"18";"1";"1";"7";"1";"[1,2,3,19]";"1";"0";"1"
"576";"38";"4";"1";"10";"1";"1";"7";"2";"[1,2,3,11]";"1";"0";"1"
"577";"36";"4";"1";"37";"1";"1";"7";"1";"[1,2,3,38]";"1";"0";"1"
"578";"3";"4";"1";"15";"1";"1";"7";"2";"[1,2,3,16]";"1";"0";"1"
"579";"29";"4";"1";"12";"1";"1";"7";"1";"[1,2,3,13]";"1";"0";"1"
"580";"34";"4";"1";"28";"1";"1";"7";"1";"[1,2,3,29]";"1";"0";"1"
"581";"20";"4";"1";"8";"1";"1";"7";"1";"[1,2,3,9]";"1";"0";"1"
"582";"27";"4";"1";"5";"1";"1";"7";"1";"[1,2,3,6]";"1";"0";"1"
"583";"33";"4";"1";"40";"1";"1";"7";"2";"[1,2,3]";"1";"0";"1"
"584";"21";"4";"1";"24";"1";"1";"7";"1";"[1,2,3,25]";"1";"0";"1"
"585";"40";"4";"1";"4";"1";"1";"7";"1";"[1,2,3,5]";"1";"0";"1"
"586";"1";"4";"1";"27";"1";"1";"7";"2";"[1,2,3,28]";"2";"0";"1"
"587";"30";"4";"1";"22";"1";"1";"7";"1";"[1,2,3,23]";"1";"0";"1"
"588";"28";"5";"1";"18";"1";"1";"7";"1";"[1,2,3,19]";"1";"0";"1"
"589";"38";"5";"1";"10";"1";"1";"7";"2";"[1,2,3,11]";"1";"0";"1"
"590";"36";"5";"1";"37";"1";"1";"7";"1";"[1,2,3,38]";"1";"0";"1"
"591";"4";"5";"1";"7";"1";"1";"7";"1";"[1,2,3,8]";"1";"0";"1"
"592";"32";"5";"1";"25";"1";"1";"7";"1";"[1,2,3,26]";"1";"0";"1"
"593";"20";"5";"1";"8";"1";"1";"7";"1";"[1,2,3,9]";"1";"0";"1"
"594";"27";"5";"1";"5";"1";"1";"7";"1";"[1,2,3,6]";"1";"0";"1"
"595";"18";"5";"1";"1";"1";"1";"7";"1";"[2,3]";"1";"0";"1"
"596";"25";"5";"1";"21";"1";"1";"7";"1";"[1,2,3,22]";"1";"0";"1"
"597";"7";"5";"1";"35";"1";"1";"7";"1";"[1,2,3,36]";"1";"0";"1"
"598";"40";"5";"1";"4";"1";"1";"7";"1";"[1,2,3,5]";"1";"0";"1"
"599";"30";"5";"1";"22";"1";"1";"7";"1";"[1,2,3,23]";"1";"0";"1"
"600";"4";"6";"1";"7";"1";"1";"7";"1";"[1,2,3,8]";"1";"0";"1"
"601";"32";"6";"1";"25";"1";"1";"7";"1";"[1,2,3,26]";"1";"0";"1"
"602";"39";"6";"1";"32";"1";"1";"7";"1";"[1,2,3,33]";"1";"0";"1"
"603";"17";"6";"1";"33";"1";"1";"7";"2";"[1,2,3,34]";"2";"0";"1"
"604";"18";"6";"1";"1";"1";"1";"7";"1";"[2,3]";"1";"0";"1"
"605";"25";"6";"1";"21";"1";"1";"7";"1";"[1,2,3,22]";"1";"0";"1"
"606";"7";"6";"1";"35";"1";"1";"7";"1";"[1,2,3,36]";"1";"0";"1"
"607";"2";"6";"1";"9";"1";"1";"7";"1";"[1,2,3,10]";"1";"0";"1"
"608";"10";"7";"1";"3";"1";"1";"7";"1";"[1,2,4]";"1";"0";"1"
"609";"39";"7";"1";"32";"1";"1";"7";"1";"[1,2,3,33]";"1";"0";"1"
"610";"17";"7";"1";"33";"1";"1";"7";"2";"[1,2,3,34]";"2";"0";"1"
"611";"11";"7";"1";"36";"1";"1";"7";"1";"[1,2,3,37]";"1";"0";"1"
"612";"2";"7";"1";"9";"1";"1";"7";"1";"[1,2,3,10]";"1";"0";"1"
"613";"10";"8";"1";"3";"1";"1";"7";"1";"[1,2,4]";"1";"0";"1"
"614";"14";"8";"1";"11";"1";"1";"7";"1";"[1,2,3,12]";"1";"0";"1"
"615";"15";"8";"1";"14";"1";"1";"7";"1";"[1,2,3,15]";"1";"0";"1"
"616";"11";"8";"1";"36";"1";"1";"7";"1";"[1,2,3,37]";"1";"0";"1"
"617";"31";"9";"1";"31";"1";"1";"7";"1";"[1,2,3,32]";"2";"0";"1"
"618";"14";"9";"1";"11";"1";"1";"7";"1";"[1,2,3,12]";"1";"0";"1"
"619";"15";"9";"1";"14";"1";"1";"7";"1";"[1,2,3,15]";"1";"0";"1"
"620";"26";"10";"1";"38";"1";"1";"7";"2";"[1,2,3,39]";"2";"0";"1"
"621";"5";"10";"1";"13";"1";"1";"7";"1";"[1,2,3,14]";"1";"0";"1"
"622";"31";"10";"1";"31";"1";"1";"7";"1";"[1,2,3,32]";"2";"0";"1"
"623";"26";"11";"1";"38";"1";"1";"7";"2";"[1,2,3,39]";"2";"0";"1"
"624";"5";"11";"1";"13";"1";"1";"7";"1";"[1,2,3,14]";"1";"0";"1"
"625";"37";"11";"1";"29";"1";"1";"7";"1";"[1,2,3,30]";"1";"0";"1"
"626";"19";"11";"1";"26";"1";"1";"7";"2";"[1,2,3,27]";"2";"0";"1"
"627";"37";"12";"1";"29";"1";"1";"7";"1";"[1,2,3,30]";"1";"0";"1"
"628";"19";"12";"1";"26";"1";"1";"7";"2";"[1,2,3,27]";"2";"0";"1"
"629";"13";"12";"1";"6";"1";"1";"7";"1";"[1,2,3,7]";"2";"0";"1"
"630";"13";"13";"1";"6";"1";"1";"7";"1";"[1,2,3,7]";"2";"0";"1"
"631";"35";"14";"1";"20";"1";"1";"7";"2";"[1,2,3,21]";"1";"0";"1"
"632";"35";"15";"1";"20";"1";"1";"7";"2";"[1,2,3,21]";"1";"0";"1"
"633";"22";"15";"1";"17";"1";"1";"7";"1";"[1,2,3,18]";"2";"0";"1"
"634";"16";"15";"1";"2";"1";"1";"7";"1";"[1,3]";"1";"0";"1"
"635";"23";"15";"1";"19";"1";"1";"7";"1";"[1,2,3,20]";"1";"0";"1"
"636";"22";"16";"1";"17";"1";"1";"7";"1";"[1,2,3,18]";"2";"0";"1"
"637";"16";"16";"1";"2";"1";"1";"7";"1";"[1,3]";"1";"0";"1"
"638";"23";"16";"1";"19";"1";"1";"7";"1";"[1,2,3,20]";"1";"0";"1"
"639";"34";"2";"1";"28";"1";"1";"8";"1";"[1,2,3,29]";"1";"0";"1"
"640";"15";"2";"1";"14";"1";"1";"8";"1";"[1,2,3,15]";"1";"0";"1"
"641";"8";"2";"1";"39";"1";"1";"8";"2";"[1,2,3,40]";"1";"0";"1"
"642";"2";"2";"1";"9";"1";"1";"8";"1";"[1,2,3,10]";"1";"0";"1"
"643";"21";"2";"1";"24";"1";"1";"8";"1";"[1,2,3,25]";"1";"0";"1"
"644";"33";"2";"1";"40";"1";"1";"8";"2";"[1,2,3]";"1";"0";"1"
"645";"30";"3";"1";"22";"1";"1";"8";"1";"[1,2,3,23]";"1";"0";"1"
"646";"34";"3";"1";"28";"1";"1";"8";"1";"[1,2,3,29]";"1";"0";"1"
"647";"37";"3";"1";"29";"1";"1";"8";"1";"[1,2,3,30]";"1";"0";"1"
"648";"25";"3";"1";"21";"1";"1";"8";"1";"[1,2,3,22]";"1";"0";"1"
"649";"9";"3";"1";"34";"1";"1";"8";"2";"[1,2,3,35]";"2";"0";"1"
"650";"15";"3";"1";"14";"1";"1";"8";"1";"[1,2,3,15]";"1";"0";"1"
"651";"8";"3";"1";"39";"1";"1";"8";"2";"[1,2,3,40]";"1";"0";"1"
"652";"6";"3";"1";"16";"1";"1";"8";"1";"[1,2,3,17]";"1";"0";"1"
"653";"13";"3";"1";"6";"1";"1";"8";"1";"[1,2,3,7]";"1";"0";"1"
"654";"2";"3";"1";"9";"1";"1";"8";"1";"[1,2,3,10]";"1";"0";"1"
"655";"21";"3";"1";"24";"1";"1";"8";"1";"[1,2,3,25]";"1";"0";"1"
"656";"33";"3";"1";"40";"1";"1";"8";"2";"[1,2,3]";"1";"0";"1"
"657";"29";"3";"1";"12";"1";"1";"8";"1";"[1,2,3,13]";"1";"0";"1"
"658";"40";"3";"1";"4";"1";"1";"8";"1";"[1,2,3,5]";"1";"0";"1"
"659";"39";"4";"1";"32";"1";"1";"8";"1";"[1,2,3,33]";"1";"0";"1"
"660";"30";"4";"1";"22";"1";"1";"8";"1";"[1,2,3,23]";"1";"0";"1"
"661";"28";"4";"1";"18";"1";"1";"8";"1";"[1,2,3,19]";"1";"0";"1"
"662";"37";"4";"1";"29";"1";"1";"8";"1";"[1,2,3,30]";"1";"0";"1"
"663";"25";"4";"1";"21";"1";"1";"8";"1";"[1,2,3,22]";"1";"0";"1"
"664";"9";"4";"1";"34";"1";"1";"8";"2";"[1,2,3,35]";"2";"0";"1"
"665";"4";"4";"1";"7";"1";"1";"8";"1";"[1,2,3,8]";"1";"0";"1"
"666";"11";"4";"1";"36";"1";"1";"8";"1";"[1,2,3,37]";"1";"0";"1"
"667";"6";"4";"1";"16";"1";"1";"8";"1";"[1,2,3,17]";"1";"0";"1"
"668";"13";"4";"1";"6";"1";"1";"8";"1";"[1,2,3,7]";"1";"0";"1"
"669";"24";"4";"1";"23";"1";"1";"8";"1";"[1,2,3,24]";"1";"0";"1"
"670";"14";"4";"1";"11";"1";"1";"8";"1";"[1,2,3,12]";"1";"0";"1"
"671";"29";"4";"1";"12";"1";"1";"8";"1";"[1,2,3,13]";"1";"0";"1"
"672";"40";"4";"1";"4";"1";"1";"8";"1";"[1,2,3,5]";"1";"0";"1"
"673";"12";"4";"1";"30";"1";"1";"8";"1";"[1,2,3,31]";"1";"0";"1"
"674";"39";"5";"1";"32";"1";"1";"8";"1";"[1,2,3,33]";"1";"0";"1"
"675";"28";"5";"1";"18";"1";"1";"8";"1";"[1,2,3,19]";"1";"0";"1"
"676";"19";"5";"1";"26";"1";"1";"8";"2";"[1,2,3,27]";"1";"0";"1"
"677";"32";"5";"1";"25";"1";"1";"8";"1";"[1,2,3,26]";"1";"0";"1"
"678";"7";"5";"1";"35";"1";"1";"8";"1";"[1,2,3,36]";"1";"0";"1"
"679";"4";"5";"1";"7";"1";"1";"8";"1";"[1,2,3,8]";"1";"0";"1"
"680";"1";"5";"1";"27";"1";"1";"8";"2";"[1,2,3,28]";"2";"0";"1"
"681";"11";"5";"1";"36";"1";"1";"8";"1";"[1,2,3,37]";"1";"0";"1"
"682";"10";"5";"1";"3";"1";"1";"8";"1";"[1,2,4]";"1";"0";"1"
"683";"26";"5";"1";"38";"1";"1";"8";"2";"[1,2,3,39]";"2";"0";"1"
"684";"24";"5";"1";"23";"1";"1";"8";"1";"[1,2,3,24]";"1";"0";"1"
"685";"23";"5";"1";"19";"1";"1";"8";"1";"[1,2,3,20]";"1";"0";"1"
"686";"14";"5";"1";"11";"1";"1";"8";"1";"[1,2,3,12]";"1";"0";"1"
"687";"12";"5";"1";"30";"1";"1";"8";"1";"[1,2,3,31]";"1";"0";"1"
"688";"19";"6";"1";"26";"1";"1";"8";"2";"[1,2,3,27]";"1";"0";"1"
"689";"32";"6";"1";"25";"1";"1";"8";"1";"[1,2,3,26]";"1";"0";"1"
"690";"7";"6";"1";"35";"1";"1";"8";"1";"[1,2,3,36]";"1";"0";"1"
"691";"1";"6";"1";"27";"1";"1";"8";"2";"[1,2,3,28]";"2";"0";"1"
"692";"10";"6";"1";"3";"1";"1";"8";"1";"[1,2,4]";"1";"0";"1"
"693";"26";"6";"1";"38";"1";"1";"8";"2";"[1,2,3,39]";"2";"0";"1"
"694";"36";"6";"1";"37";"1";"1";"8";"1";"[1,2,3,38]";"1";"0";"1"
"695";"23";"6";"1";"19";"1";"1";"8";"1";"[1,2,3,20]";"1";"0";"1"
"696";"3";"7";"1";"15";"1";"1";"8";"2";"[1,2,3,16]";"1";"0";"1"
"697";"38";"7";"1";"10";"1";"1";"8";"2";"[1,2,3,11]";"1";"0";"1"
"698";"20";"7";"1";"8";"1";"1";"8";"1";"[1,2,3,9]";"1";"0";"1"
"699";"36";"7";"1";"37";"1";"1";"8";"1";"[1,2,3,38]";"1";"0";"1"
"700";"35";"8";"1";"20";"1";"1";"8";"2";"[1,2,3,21]";"2";"0";"1"
"701";"3";"8";"1";"15";"1";"1";"8";"2";"[1,2,3,16]";"1";"0";"1"
"702";"38";"8";"1";"10";"1";"1";"8";"2";"[1,2,3,11]";"1";"0";"1"
"703";"22";"8";"1";"17";"1";"1";"8";"1";"[1,2,3,18]";"1";"0";"1"
"704";"20";"8";"1";"8";"1";"1";"8";"1";"[1,2,3,9]";"1";"0";"1"
"705";"18";"9";"1";"1";"1";"1";"8";"1";"[2,3]";"1";"0";"1"
"706";"35";"9";"1";"20";"1";"1";"8";"2";"[1,2,3,21]";"2";"0";"1"
"707";"16";"9";"1";"2";"1";"1";"8";"1";"[1,3]";"1";"0";"1"
"708";"5";"9";"1";"13";"1";"1";"8";"1";"[1,2,3,14]";"1";"0";"1"
"709";"22";"9";"1";"17";"1";"1";"8";"1";"[1,2,3,18]";"1";"0";"1"
"710";"18";"10";"1";"1";"1";"1";"8";"1";"[2,3]";"1";"0";"1"
"711";"16";"10";"1";"2";"1";"1";"8";"1";"[1,3]";"1";"0";"1"
"712";"5";"10";"1";"13";"1";"1";"8";"1";"[1,2,3,14]";"1";"0";"1"
"713";"27";"11";"1";"5";"1";"1";"8";"1";"[1,2,3,6]";"1";"0";"1"
"714";"27";"12";"1";"5";"1";"1";"8";"1";"[1,2,3,6]";"1";"0";"1"
"715";"17";"12";"1";"33";"1";"1";"8";"2";"[1,2,3,34]";"2";"0";"1"
"716";"17";"13";"1";"33";"1";"1";"8";"2";"[1,2,3,34]";"2";"0";"1"
"717";"31";"13";"1";"31";"1";"1";"8";"1";"[1,2,3,32]";"1";"0";"1"
"718";"31";"14";"1";"31";"1";"1";"8";"1";"[1,2,3,32]";"1";"0";"1"
"719";"13";"1";"1";"6";"1";"1";"9";"1";"[1,2,3,7]";"1";"0";"1"
"720";"9";"1";"1";"34";"1";"1";"9";"2";"[1,2,3,35]";"1";"0";"1"
"721";"21";"1";"1";"24";"1";"1";"9";"1";"[1,2,3,25]";"1";"0";"1"
"722";"25";"1";"1";"21";"1";"1";"9";"1";"[1,2,3,22]";"1";"0";"1"
"723";"34";"1";"1";"28";"1";"1";"9";"1";"[1,2,3,29]";"1";"0";"1"
"724";"30";"2";"1";"22";"1";"1";"9";"1";"[1,2,3,23]";"1";"0";"1"
"725";"37";"2";"1";"29";"1";"1";"9";"1";"[1,2,3,30]";"1";"0";"1"
"726";"29";"2";"1";"12";"1";"1";"9";"1";"[1,2,3,13]";"1";"0";"1"
"727";"27";"2";"1";"5";"1";"1";"9";"1";"[1,2,3,6]";"1";"0";"1"
"728";"31";"2";"1";"31";"1";"1";"9";"1";"[1,2,3,32]";"1";"0";"1"
"729";"13";"2";"1";"6";"1";"1";"9";"1";"[1,2,3,7]";"1";"0";"1"
"730";"9";"2";"1";"34";"1";"1";"9";"2";"[1,2,3,35]";"1";"0";"1"
"731";"33";"2";"1";"40";"1";"1";"9";"2";"[1,2,3]";"1";"0";"1"
"732";"21";"2";"1";"24";"1";"1";"9";"1";"[1,2,3,25]";"1";"0";"1"
"733";"6";"2";"1";"16";"1";"1";"9";"1";"[1,2,3,17]";"1";"0";"1"
"734";"25";"2";"1";"21";"1";"1";"9";"1";"[1,2,3,22]";"1";"0";"1"
"735";"34";"2";"1";"28";"1";"1";"9";"1";"[1,2,3,29]";"1";"0";"1"
"736";"30";"3";"1";"22";"1";"1";"9";"1";"[1,2,3,23]";"1";"0";"1"
"737";"8";"3";"1";"39";"1";"1";"9";"2";"[1,2,3,40]";"1";"0";"1"
"738";"28";"3";"1";"18";"1";"1";"9";"1";"[1,2,3,19]";"1";"0";"1"
"739";"37";"3";"1";"29";"1";"1";"9";"1";"[1,2,3,30]";"1";"0";"1"
"740";"29";"3";"1";"12";"1";"1";"9";"1";"[1,2,3,13]";"1";"0";"1"
"741";"12";"3";"1";"30";"1";"1";"9";"1";"[1,2,3,31]";"1";"0";"1"
"742";"27";"3";"1";"5";"1";"1";"9";"1";"[1,2,3,6]";"1";"0";"1"
"743";"40";"3";"1";"4";"1";"1";"9";"1";"[1,2,3,5]";"1";"0";"1"
"744";"14";"3";"1";"11";"1";"1";"9";"1";"[1,2,3,12]";"1";"0";"1"
"745";"31";"3";"1";"31";"1";"1";"9";"1";"[1,2,3,32]";"1";"0";"1"
"746";"32";"3";"1";"25";"1";"1";"9";"1";"[1,2,3,26]";"1";"0";"1"
"747";"33";"3";"1";"40";"1";"1";"9";"2";"[1,2,3]";"1";"0";"1"
"748";"6";"3";"1";"16";"1";"1";"9";"1";"[1,2,3,17]";"1";"0";"1"
"749";"15";"3";"1";"14";"1";"1";"9";"1";"[1,2,3,15]";"1";"0";"1"
"750";"8";"4";"1";"39";"1";"1";"9";"2";"[1,2,3,40]";"1";"0";"1"
"751";"3";"4";"1";"15";"1";"1";"9";"2";"[1,2,3,16]";"1";"0";"1"
"752";"28";"4";"1";"18";"1";"1";"9";"1";"[1,2,3,19]";"1";"0";"1"
"753";"12";"4";"1";"30";"1";"1";"9";"1";"[1,2,3,31]";"1";"0";"1"
"754";"2";"4";"1";"9";"1";"1";"9";"1";"[1,2,3,10]";"1";"0";"1"
"755";"7";"4";"1";"35";"1";"1";"9";"1";"[1,2,3,36]";"1";"0";"1"
"756";"24";"4";"1";"23";"1";"1";"9";"1";"[1,2,3,24]";"1";"0";"1"
"757";"40";"4";"1";"4";"1";"1";"9";"1";"[1,2,3,5]";"1";"0";"1"
"758";"14";"4";"1";"11";"1";"1";"9";"1";"[1,2,3,12]";"1";"0";"1"
"759";"32";"4";"1";"25";"1";"1";"9";"1";"[1,2,3,26]";"1";"0";"1"
"760";"35";"4";"1";"20";"1";"1";"9";"2";"[1,2,3,21]";"2";"0";"1"
"761";"15";"4";"1";"14";"1";"1";"9";"1";"[1,2,3,15]";"1";"0";"1"
"762";"4";"5";"1";"7";"1";"1";"9";"1";"[1,2,3,8]";"1";"0";"1"
"763";"3";"5";"1";"15";"1";"1";"9";"2";"[1,2,3,16]";"1";"0";"1"
"764";"11";"5";"1";"36";"1";"1";"9";"1";"[1,2,3,37]";"1";"0";"1"
"765";"2";"5";"1";"9";"1";"1";"9";"1";"[1,2,3,10]";"1";"0";"1"
"766";"7";"5";"1";"35";"1";"1";"9";"1";"[1,2,3,36]";"1";"0";"1"
"767";"24";"5";"1";"23";"1";"1";"9";"1";"[1,2,3,24]";"1";"0";"1"
"768";"39";"5";"1";"32";"1";"1";"9";"1";"[1,2,3,33]";"1";"0";"1"
"769";"35";"5";"1";"20";"1";"1";"9";"2";"[1,2,3,21]";"2";"0";"1"
"770";"4";"6";"1";"7";"1";"1";"9";"1";"[1,2,3,8]";"1";"0";"1"
"771";"11";"6";"1";"36";"1";"1";"9";"1";"[1,2,3,37]";"1";"0";"1"
"772";"39";"6";"1";"32";"1";"1";"9";"1";"[1,2,3,33]";"1";"0";"1"
"773";"19";"6";"1";"26";"1";"1";"9";"2";"[1,2,3,27]";"2";"0";"1"
"774";"5";"6";"1";"13";"1";"1";"9";"1";"[1,2,3,14]";"2";"0";"1"
"775";"10";"6";"1";"3";"1";"1";"9";"1";"[1,2,4]";"1";"0";"1"
"776";"18";"7";"1";"1";"1";"1";"9";"1";"[2,3]";"1";"0";"1"
"777";"17";"7";"1";"33";"1";"1";"9";"2";"[1,2,3,34]";"2";"0";"1"
"778";"19";"7";"1";"26";"1";"1";"9";"2";"[1,2,3,27]";"2";"0";"1"
"779";"5";"7";"1";"13";"1";"1";"9";"1";"[1,2,3,14]";"2";"0";"1"
"780";"10";"7";"1";"3";"1";"1";"9";"1";"[1,2,4]";"1";"0";"1"
"781";"26";"8";"1";"38";"1";"1";"9";"2";"[1,2,3,39]";"2";"0";"1"
"782";"31";"8";"1";"31";"1";"1";"9";"1";"[1,2,3,32]";"1";"1";"1"
"783";"18";"8";"1";"1";"1";"1";"9";"1";"[2,3]";"1";"0";"1"
"784";"17";"8";"1";"33";"1";"1";"9";"2";"[1,2,3,34]";"2";"0";"1"
"785";"31";"9";"1";"31";"1";"1";"9";"1";"[1,2,3,32]";"1";"2";"1"
"786";"26";"9";"1";"38";"1";"1";"9";"2";"[1,2,3,39]";"2";"0";"1"
"787";"31";"10";"1";"31";"1";"1";"9";"1";"[1,2,3,32]";"1";"3";"1"
"788";"1";"10";"1";"27";"1";"1";"9";"2";"[1,2,3,28]";"2";"0";"1"
"789";"38";"10";"1";"10";"1";"1";"9";"2";"[1,2,3,11]";"2";"0";"1"
"790";"31";"10";"1";"31";"1";"1";"9";"1";"[1,2,3,32]";"1";"4";"1"
"791";"1";"11";"1";"27";"1";"1";"9";"2";"[1,2,3,28]";"2";"0";"1"
"792";"31";"11";"1";"31";"1";"1";"9";"1";"[1,2,3,32]";"1";"5";"1"
"793";"38";"11";"1";"10";"1";"1";"9";"2";"[1,2,3,11]";"2";"0";"1"
"794";"22";"11";"1";"17";"1";"1";"9";"1";"[1,2,3,18]";"1";"0";"1"
"795";"36";"11";"1";"37";"1";"1";"9";"1";"[1,2,3,38]";"1";"0";"1"
"796";"31";"12";"1";"31";"1";"1";"9";"1";"[1,2,3,32]";"1";"6";"1"
"797";"22";"12";"1";"17";"1";"1";"9";"1";"[1,2,3,18]";"1";"0";"1"
"798";"36";"12";"1";"37";"1";"1";"9";"1";"[1,2,3,38]";"1";"0";"1"
"799";"31";"12";"1";"31";"1";"1";"9";"1";"[1,2,3,32]";"1";"7";"1"
"800";"31";"13";"1";"31";"1";"1";"9";"1";"[1,2,3,32]";"1";"8";"1"
"801";"31";"14";"1";"31";"1";"1";"9";"1";"[1,2,3,32]";"1";"9";"1"
"802";"31";"15";"1";"31";"1";"1";"9";"1";"[1,2,3,32]";"1";"10";"1"
"803";"16";"16";"1";"2";"1";"1";"9";"1";"[1,3]";"1";"0";"1"
"804";"31";"16";"1";"31";"1";"1";"9";"1";"[1,2,3,32]";"1";"10";"1"
"805";"16";"17";"1";"2";"1";"1";"9";"1";"[1,3]";"1";"0";"1"
"806";"20";"19";"1";"8";"1";"1";"9";"1";"[1,2,3,9]";"2";"0";"1"
"807";"20";"20";"1";"8";"1";"1";"9";"1";"[1,2,3,9]";"2";"0";"1"
"808";"23";"24";"1";"19";"1";"1";"9";"1";"[1,2,3,20]";"1";"0";"1"
"809";"23";"25";"1";"19";"1";"1";"9";"1";"[1,2,3,20]";"1";"0";"1"
"810";"13";"1";"1";"6";"1";"1";"10";"1";"[1,2,3,7]";"1";"0";"1"
"811";"34";"1";"1";"28";"1";"1";"10";"1";"[1,2,3,29]";"1";"0";"1"
"812";"9";"1";"1";"34";"1";"1";"10";"2";"[1,2,3,35]";"1";"0";"1"
"813";"8";"2";"1";"39";"1";"1";"10";"2";"[1,2,3,40]";"1";"0";"1"
"814";"13";"2";"1";"6";"1";"1";"10";"1";"[1,2,3,7]";"1";"0";"1"
"815";"34";"2";"1";"28";"1";"1";"10";"1";"[1,2,3,29]";"1";"0";"1"
"816";"27";"2";"1";"5";"1";"1";"10";"1";"[1,2,3,6]";"1";"0";"1"
"817";"38";"2";"1";"10";"1";"1";"10";"2";"[1,2,3,11]";"1";"0";"1"
"818";"3";"2";"1";"15";"1";"1";"10";"2";"[1,2,3,16]";"1";"0";"1"
"819";"21";"2";"1";"24";"1";"1";"10";"1";"[1,2,3,25]";"1";"0";"1"
"820";"9";"2";"1";"34";"1";"1";"10";"2";"[1,2,3,35]";"1";"0";"1"
"821";"15";"2";"1";"14";"1";"1";"10";"1";"[1,2,3,15]";"1";"0";"1"
"822";"28";"2";"1";"18";"1";"1";"10";"1";"[1,2,3,19]";"1";"0";"1"
"823";"11";"2";"1";"36";"1";"1";"10";"1";"[1,2,3,37]";"1";"0";"1"
"824";"25";"2";"1";"21";"1";"1";"10";"1";"[1,2,3,22]";"1";"0";"1"
"825";"29";"2";"1";"12";"1";"1";"10";"1";"[1,2,3,13]";"1";"0";"1"
"826";"33";"3";"1";"40";"1";"1";"10";"2";"[1,2,3]";"1";"0";"1"
"827";"14";"3";"1";"11";"1";"1";"10";"1";"[1,2,3,12]";"1";"0";"1"
"828";"8";"3";"1";"39";"1";"1";"10";"2";"[1,2,3,40]";"1";"0";"1"
"829";"30";"3";"1";"22";"1";"1";"10";"1";"[1,2,3,23]";"1";"0";"1"
"830";"27";"3";"1";"5";"1";"1";"10";"1";"[1,2,3,6]";"1";"0";"1"
"831";"38";"3";"1";"10";"1";"1";"10";"2";"[1,2,3,11]";"1";"0";"1"
"832";"21";"3";"1";"24";"1";"1";"10";"1";"[1,2,3,25]";"1";"0";"1"
"833";"3";"3";"1";"15";"1";"1";"10";"2";"[1,2,3,16]";"1";"0";"1"
"834";"32";"3";"1";"25";"1";"1";"10";"1";"[1,2,3,26]";"1";"0";"1"
"835";"40";"3";"1";"4";"1";"1";"10";"1";"[1,2,3,5]";"1";"0";"1"
"836";"28";"3";"1";"18";"1";"1";"10";"1";"[1,2,3,19]";"1";"0";"1"
"837";"15";"3";"1";"14";"1";"1";"10";"1";"[1,2,3,15]";"1";"0";"1"
"838";"11";"3";"1";"36";"1";"1";"10";"1";"[1,2,3,37]";"1";"0";"1"
"839";"25";"3";"1";"21";"1";"1";"10";"1";"[1,2,3,22]";"1";"0";"1"
"840";"29";"3";"1";"12";"1";"1";"10";"1";"[1,2,3,13]";"1";"0";"1"
"841";"37";"3";"1";"29";"1";"1";"10";"1";"[1,2,3,30]";"1";"0";"1"
"842";"6";"3";"1";"16";"1";"1";"10";"1";"[1,2,3,17]";"1";"0";"1"
"843";"12";"3";"1";"30";"1";"1";"10";"1";"[1,2,3,31]";"1";"0";"1"
"844";"33";"4";"1";"40";"1";"1";"10";"2";"[1,2,3]";"1";"0";"1"
"845";"14";"4";"1";"11";"1";"1";"10";"1";"[1,2,3,12]";"1";"0";"1"
"846";"30";"4";"1";"22";"1";"1";"10";"1";"[1,2,3,23]";"1";"0";"1"
"847";"32";"4";"1";"25";"1";"1";"10";"1";"[1,2,3,26]";"1";"0";"1"
"848";"40";"4";"1";"4";"1";"1";"10";"1";"[1,2,3,5]";"1";"0";"1"
"849";"37";"4";"1";"29";"1";"1";"10";"1";"[1,2,3,30]";"1";"0";"1"
"850";"6";"4";"1";"16";"1";"1";"10";"1";"[1,2,3,17]";"1";"0";"1"
"851";"12";"4";"1";"30";"1";"1";"10";"1";"[1,2,3,31]";"1";"0";"1"
"852";"2";"4";"1";"9";"1";"1";"10";"1";"[1,2,3,10]";"1";"0";"1"
"853";"4";"5";"1";"7";"1";"1";"10";"1";"[1,2,3,8]";"1";"0";"1"
"854";"18";"5";"1";"1";"1";"1";"10";"1";"[2,3]";"1";"0";"1"
"855";"17";"5";"1";"33";"1";"1";"10";"2";"[1,2,3,34]";"1";"0";"1"
"856";"39";"5";"1";"32";"1";"1";"10";"1";"[1,2,3,33]";"1";"0";"1"
"857";"23";"5";"1";"19";"1";"1";"10";"1";"[1,2,3,20]";"1";"0";"1"
"858";"10";"5";"1";"3";"1";"1";"10";"1";"[1,2,4]";"1";"0";"1"
"859";"2";"5";"1";"9";"1";"1";"10";"1";"[1,2,3,10]";"1";"0";"1"
"860";"4";"6";"1";"7";"1";"1";"10";"1";"[1,2,3,8]";"1";"0";"1"
"861";"5";"6";"1";"13";"1";"1";"10";"1";"[1,2,3,14]";"1";"0";"1"
"862";"18";"6";"1";"1";"1";"1";"10";"1";"[2,3]";"1";"0";"1"
"863";"17";"6";"1";"33";"1";"1";"10";"2";"[1,2,3,34]";"1";"0";"1"
"864";"16";"6";"1";"2";"1";"1";"10";"1";"[1,3]";"1";"0";"1"
"865";"31";"6";"1";"31";"1";"1";"10";"1";"[1,2,3,32]";"1";"0";"1"
"866";"39";"6";"1";"32";"1";"1";"10";"1";"[1,2,3,33]";"1";"0";"1"
"867";"23";"6";"1";"19";"1";"1";"10";"1";"[1,2,3,20]";"1";"0";"1"
"868";"10";"6";"1";"3";"1";"1";"10";"1";"[1,2,4]";"1";"0";"1"
"869";"36";"6";"1";"37";"1";"1";"10";"1";"[1,2,3,38]";"1";"0";"1"
"870";"19";"6";"1";"26";"1";"1";"10";"2";"[1,2,3,27]";"2";"0";"1"
"871";"5";"7";"1";"13";"1";"1";"10";"1";"[1,2,3,14]";"1";"0";"1"
"872";"16";"7";"1";"2";"1";"1";"10";"1";"[1,3]";"1";"0";"1"
"873";"31";"7";"1";"31";"1";"1";"10";"1";"[1,2,3,32]";"1";"0";"1"
"874";"20";"7";"1";"8";"1";"1";"10";"1";"[1,2,3,9]";"1";"0";"1"
"875";"36";"7";"1";"37";"1";"1";"10";"1";"[1,2,3,38]";"1";"0";"1"
"876";"19";"7";"1";"26";"1";"1";"10";"2";"[1,2,3,27]";"2";"0";"1"
"877";"35";"8";"1";"20";"1";"1";"10";"2";"[1,2,3,21]";"2";"0";"1"
"878";"20";"8";"1";"8";"1";"1";"10";"1";"[1,2,3,9]";"1";"0";"1"
"879";"24";"9";"1";"23";"1";"1";"10";"1";"[1,2,3,24]";"1";"0";"1"
"880";"35";"9";"1";"20";"1";"1";"10";"2";"[1,2,3,21]";"2";"0";"1"
"881";"7";"10";"1";"35";"1";"1";"10";"1";"[1,2,3,36]";"1";"0";"1"
"882";"24";"10";"1";"23";"1";"1";"10";"1";"[1,2,3,24]";"1";"0";"1"
"883";"7";"11";"1";"35";"1";"1";"10";"1";"[1,2,3,36]";"1";"0";"1"
"884";"22";"13";"1";"17";"1";"1";"10";"1";"[1,2,3,18]";"1";"0";"1"
"885";"22";"14";"1";"17";"1";"1";"10";"1";"[1,2,3,18]";"1";"0";"1"
"886";"1";"15";"1";"27";"1";"1";"10";"2";"[1,2,3,28]";"2";"0";"1"
"887";"1";"16";"1";"27";"1";"1";"10";"2";"[1,2,3,28]";"2";"0";"1"
"888";"26";"17";"1";"38";"1";"1";"10";"2";"[1,2,3,39]";"2";"0";"1"
"889";"26";"18";"1";"38";"1";"1";"10";"2";"[1,2,3,39]";"2";"0";"1"
"890";"9";"1";"1";"34";"1";"1";"11";"2";"[1,2,3,35]";"1";"0";"1"
"891";"21";"1";"1";"24";"1";"1";"11";"1";"[1,2,3,25]";"1";"0";"1"
"892";"34";"2";"1";"28";"1";"1";"11";"1";"[1,2,3,29]";"1";"0";"1"
"893";"15";"2";"1";"14";"1";"1";"11";"1";"[1,2,3,15]";"1";"0";"1"
"894";"6";"2";"1";"16";"1";"1";"11";"1";"[1,2,3,17]";"1";"0";"1"
"895";"9";"2";"1";"34";"1";"1";"11";"2";"[1,2,3,35]";"1";"0";"1"
"896";"30";"2";"1";"22";"1";"1";"11";"1";"[1,2,3,23]";"1";"0";"1"
"897";"8";"2";"1";"39";"1";"1";"11";"2";"[1,2,3,40]";"1";"0";"1"
"898";"3";"2";"1";"15";"1";"1";"11";"2";"[1,2,3,16]";"1";"0";"1"
"899";"37";"2";"1";"29";"1";"1";"11";"1";"[1,2,3,30]";"1";"0";"1"
"900";"21";"2";"1";"24";"1";"1";"11";"1";"[1,2,3,25]";"1";"0";"1"
"901";"31";"2";"1";"31";"1";"1";"11";"1";"[1,2,3,32]";"2";"0";"1"
"902";"25";"2";"1";"21";"1";"1";"11";"1";"[1,2,3,22]";"1";"0";"1"
"903";"28";"2";"1";"18";"1";"1";"11";"1";"[1,2,3,19]";"1";"0";"1"
"904";"14";"2";"1";"11";"1";"1";"11";"1";"[1,2,3,12]";"1";"0";"1"
"905";"34";"3";"1";"28";"1";"1";"11";"1";"[1,2,3,29]";"1";"0";"1"
"906";"15";"3";"1";"14";"1";"1";"11";"1";"[1,2,3,15]";"1";"0";"1"
"907";"27";"3";"1";"5";"1";"1";"11";"1";"[1,2,3,6]";"1";"0";"1"
"908";"6";"3";"1";"16";"1";"1";"11";"1";"[1,2,3,17]";"1";"0";"1"
"909";"33";"3";"1";"40";"1";"1";"11";"2";"[1,2,3]";"1";"0";"1"
"910";"30";"3";"1";"22";"1";"1";"11";"1";"[1,2,3,23]";"1";"0";"1"
"911";"8";"3";"1";"39";"1";"1";"11";"2";"[1,2,3,40]";"1";"0";"1"
"912";"3";"3";"1";"15";"1";"1";"11";"2";"[1,2,3,16]";"1";"0";"1"
"913";"2";"3";"1";"9";"1";"1";"11";"1";"[1,2,3,10]";"1";"0";"1"
"914";"37";"3";"1";"29";"1";"1";"11";"1";"[1,2,3,30]";"1";"0";"1"
"915";"31";"3";"1";"31";"1";"1";"11";"1";"[1,2,3,32]";"2";"0";"1"
"916";"25";"3";"1";"21";"1";"1";"11";"1";"[1,2,3,22]";"1";"0";"1"
"917";"11";"3";"1";"36";"1";"1";"11";"1";"[1,2,3,37]";"1";"0";"1"
"918";"17";"3";"1";"33";"1";"1";"11";"2";"[1,2,3,34]";"1";"0";"1"
"919";"28";"3";"1";"18";"1";"1";"11";"1";"[1,2,3,19]";"1";"0";"1"
"920";"5";"3";"1";"13";"1";"1";"11";"1";"[1,2,3,14]";"1";"0";"1"
"921";"10";"3";"1";"3";"1";"1";"11";"1";"[1,2,4]";"1";"0";"1"
"922";"39";"3";"1";"32";"1";"1";"11";"1";"[1,2,3,33]";"1";"0";"1"
"923";"14";"4";"1";"11";"1";"1";"11";"1";"[1,2,3,12]";"1";"0";"1"
"924";"27";"4";"1";"5";"1";"1";"11";"1";"[1,2,3,6]";"1";"0";"1"
"925";"33";"4";"1";"40";"1";"1";"11";"2";"[1,2,3]";"1";"0";"1"
"926";"40";"4";"1";"4";"1";"1";"11";"1";"[1,2,3,5]";"1";"0";"1"
"927";"2";"4";"1";"9";"1";"1";"11";"1";"[1,2,3,10]";"1";"0";"1"
"928";"29";"4";"1";"12";"1";"1";"11";"1";"[1,2,3,13]";"1";"0";"1"
"929";"11";"4";"1";"36";"1";"1";"11";"1";"[1,2,3,37]";"1";"0";"1"
"930";"17";"4";"1";"33";"1";"1";"11";"2";"[1,2,3,34]";"1";"0";"1"
"931";"5";"4";"1";"13";"1";"1";"11";"1";"[1,2,3,14]";"1";"0";"1"
"932";"10";"4";"1";"3";"1";"1";"11";"1";"[1,2,4]";"1";"0";"1"
"933";"39";"4";"1";"32";"1";"1";"11";"1";"[1,2,3,33]";"1";"0";"1"
"934";"18";"5";"1";"1";"1";"1";"11";"1";"[2,3]";"1";"0";"1"
"935";"38";"5";"1";"10";"1";"1";"11";"2";"[1,2,3,11]";"1";"0";"1"
"936";"19";"5";"1";"26";"1";"1";"11";"2";"[1,2,3,27]";"2";"0";"1"
"937";"40";"5";"1";"4";"1";"1";"11";"1";"[1,2,3,5]";"1";"0";"1"
"938";"29";"5";"1";"12";"1";"1";"11";"1";"[1,2,3,13]";"1";"0";"1"
"939";"36";"5";"1";"37";"1";"1";"11";"1";"[1,2,3,38]";"1";"0";"1"
"940";"18";"6";"1";"1";"1";"1";"11";"1";"[2,3]";"1";"0";"1"
"941";"38";"6";"1";"10";"1";"1";"11";"2";"[1,2,3,11]";"1";"0";"1"
"942";"19";"6";"1";"26";"1";"1";"11";"2";"[1,2,3,27]";"2";"0";"1"
"943";"36";"6";"1";"37";"1";"1";"11";"1";"[1,2,3,38]";"1";"0";"1"
"944";"20";"7";"1";"8";"1";"1";"11";"1";"[1,2,3,9]";"1";"0";"1"
"945";"4";"7";"1";"7";"1";"1";"11";"1";"[1,2,3,8]";"1";"0";"1"
"946";"32";"8";"1";"25";"1";"1";"11";"1";"[1,2,3,26]";"1";"0";"1"
"947";"7";"8";"1";"35";"1";"1";"11";"1";"[1,2,3,36]";"1";"0";"1"
"948";"13";"8";"1";"6";"1";"1";"11";"1";"[1,2,3,7]";"1";"0";"1"
"949";"20";"8";"1";"8";"1";"1";"11";"1";"[1,2,3,9]";"1";"0";"1"
"950";"22";"8";"1";"17";"1";"1";"11";"1";"[1,2,3,18]";"2";"0";"1"
"951";"4";"8";"1";"7";"1";"1";"11";"1";"[1,2,3,8]";"1";"0";"1"
"952";"35";"8";"1";"20";"1";"1";"11";"2";"[1,2,3,21]";"1";"0";"1"
"953";"32";"9";"1";"25";"1";"1";"11";"1";"[1,2,3,26]";"1";"0";"1"
"954";"12";"9";"1";"30";"1";"1";"11";"1";"[1,2,3,31]";"1";"0";"1"
"955";"7";"9";"1";"35";"1";"1";"11";"1";"[1,2,3,36]";"1";"0";"1"
"956";"13";"9";"1";"6";"1";"1";"11";"1";"[1,2,3,7]";"1";"0";"1"
"957";"24";"9";"1";"23";"1";"1";"11";"1";"[1,2,3,24]";"1";"0";"1"
"958";"22";"9";"1";"17";"1";"1";"11";"1";"[1,2,3,18]";"2";"0";"1"
"959";"35";"10";"1";"20";"1";"1";"11";"2";"[1,2,3,21]";"1";"0";"1"
"960";"12";"10";"1";"30";"1";"1";"11";"1";"[1,2,3,31]";"1";"0";"1"
"961";"24";"10";"1";"23";"1";"1";"11";"1";"[1,2,3,24]";"1";"0";"1"
"962";"26";"11";"1";"38";"1";"1";"11";"2";"[1,2,3,39]";"1";"0";"1"
"963";"26";"12";"1";"38";"1";"1";"11";"2";"[1,2,3,39]";"1";"0";"1"
"964";"16";"12";"1";"2";"1";"1";"11";"1";"[1,3]";"1";"0";"1"
"965";"16";"13";"1";"2";"1";"1";"11";"1";"[1,3]";"1";"0";"1"
"966";"24";"15";"1";"23";"1";"1";"11";"1";"[1,2,3,24]";"1";"6";"1"
"967";"1";"16";"1";"27";"1";"1";"11";"2";"[1,2,3,28]";"2";"0";"1"
"968";"23";"16";"1";"19";"1";"1";"11";"1";"[1,2,3,20]";"1";"0";"1"
"969";"24";"16";"1";"23";"1";"1";"11";"1";"[1,2,3,24]";"1";"8";"1"
"970";"1";"17";"1";"27";"1";"1";"11";"2";"[1,2,3,28]";"2";"0";"1"
"971";"24";"17";"1";"23";"1";"1";"11";"1";"[1,2,3,24]";"1";"12";"1"
"972";"23";"17";"1";"19";"1";"1";"11";"1";"[1,2,3,20]";"1";"0";"1"
"973";"34";"1";"1";"28";"1";"1";"12";"1";"[1,2,3,29]";"1";"0";"1"
"974";"6";"1";"1";"16";"1";"1";"12";"1";"[1,2,3,17]";"1";"0";"1"
"975";"21";"1";"1";"24";"1";"1";"12";"1";"[1,2,3,25]";"1";"0";"1"
"976";"8";"2";"1";"39";"1";"1";"12";"2";"[1,2,3,40]";"1";"0";"1"
"977";"16";"2";"1";"2";"1";"1";"12";"1";"[1,3]";"2";"0";"1"
"978";"34";"2";"1";"28";"1";"1";"12";"1";"[1,2,3,29]";"1";"0";"1"
"979";"29";"2";"1";"12";"1";"1";"12";"1";"[1,2,3,13]";"1";"0";"1"
"980";"3";"2";"1";"15";"1";"1";"12";"2";"[1,2,3,16]";"1";"0";"1"
"981";"6";"2";"1";"16";"1";"1";"12";"1";"[1,2,3,17]";"1";"0";"1"
"982";"39";"2";"1";"32";"1";"1";"12";"1";"[1,2,3,33]";"1";"0";"1"
"983";"21";"2";"1";"24";"1";"1";"12";"1";"[1,2,3,25]";"1";"0";"1"
"984";"27";"2";"1";"5";"1";"1";"12";"1";"[1,2,3,6]";"1";"0";"1"
"985";"26";"2";"1";"38";"1";"1";"12";"2";"[1,2,3,39]";"1";"0";"1"
"986";"40";"2";"1";"4";"1";"1";"12";"1";"[1,2,3,5]";"1";"0";"1"
"987";"25";"2";"1";"21";"1";"1";"12";"1";"[1,2,3,22]";"1";"0";"1"
"988";"11";"3";"1";"36";"1";"1";"12";"1";"[1,2,3,37]";"1";"0";"1"
"989";"12";"3";"1";"30";"1";"1";"12";"1";"[1,2,3,31]";"1";"0";"1"
"990";"8";"3";"1";"39";"1";"1";"12";"2";"[1,2,3,40]";"1";"0";"1"
"991";"14";"3";"1";"11";"1";"1";"12";"1";"[1,2,3,12]";"1";"0";"1"
"992";"2";"3";"1";"9";"1";"1";"12";"1";"[1,2,3,10]";"1";"0";"1"
"993";"28";"3";"1";"18";"1";"1";"12";"1";"[1,2,3,19]";"1";"0";"1"
"994";"16";"3";"1";"2";"1";"1";"12";"1";"[1,3]";"2";"0";"1"
"995";"29";"3";"1";"12";"1";"1";"12";"1";"[1,2,3,13]";"1";"0";"1"
"996";"24";"3";"1";"23";"1";"1";"12";"1";"[1,2,3,24]";"1";"0";"1"
"997";"3";"3";"1";"15";"1";"1";"12";"2";"[1,2,3,16]";"1";"0";"1"
"998";"39";"3";"1";"32";"1";"1";"12";"1";"[1,2,3,33]";"1";"0";"1"
"999";"7";"3";"1";"35";"1";"1";"12";"1";"[1,2,3,36]";"1";"0";"1"
"1000";"27";"3";"1";"5";"1";"1";"12";"1";"[1,2,3,6]";"1";"0";"1"
"1001";"26";"3";"1";"38";"1";"1";"12";"2";"[1,2,3,39]";"1";"0";"1"
"1002";"36";"3";"1";"37";"1";"1";"12";"1";"[1,2,3,38]";"1";"0";"1"
"1003";"25";"3";"1";"21";"1";"1";"12";"1";"[1,2,3,22]";"1";"0";"1"
"1004";"40";"3";"1";"4";"1";"1";"12";"1";"[1,2,3,5]";"1";"0";"1"
"1005";"38";"3";"1";"10";"1";"1";"12";"2";"[1,2,3,11]";"1";"0";"1"
"1006";"11";"4";"1";"36";"1";"1";"12";"1";"[1,2,3,37]";"1";"0";"1"
"1007";"30";"4";"1";"22";"1";"1";"12";"1";"[1,2,3,23]";"1";"0";"1"
"1008";"23";"4";"1";"19";"1";"1";"12";"1";"[1,2,3,20]";"1";"0";"1"
"1009";"5";"4";"1";"13";"1";"1";"12";"1";"[1,2,3,14]";"1";"0";"1"
"1010";"37";"4";"1";"29";"1";"1";"12";"1";"[1,2,3,30]";"1";"0";"1"
"1011";"12";"4";"1";"30";"1";"1";"12";"1";"[1,2,3,31]";"1";"0";"1"
"1012";"14";"4";"1";"11";"1";"1";"12";"1";"[1,2,3,12]";"1";"0";"1"
"1013";"2";"4";"1";"9";"1";"1";"12";"1";"[1,2,3,10]";"1";"0";"1"
"1014";"28";"4";"1";"18";"1";"1";"12";"1";"[1,2,3,19]";"1";"0";"1"
"1015";"15";"4";"1";"14";"1";"1";"12";"1";"[1,2,3,15]";"1";"0";"1"
"1016";"31";"4";"1";"31";"1";"1";"12";"1";"[1,2,3,32]";"1";"0";"1"
"1017";"24";"4";"1";"23";"1";"1";"12";"1";"[1,2,3,24]";"1";"0";"1"
"1018";"10";"4";"1";"3";"1";"1";"12";"1";"[1,2,4]";"1";"0";"1"
"1019";"18";"4";"1";"1";"1";"1";"12";"1";"[2,3]";"1";"0";"1"
"1020";"7";"4";"1";"35";"1";"1";"12";"1";"[1,2,3,36]";"1";"0";"1"
"1021";"36";"4";"1";"37";"1";"1";"12";"1";"[1,2,3,38]";"1";"0";"1"
"1022";"38";"4";"1";"10";"1";"1";"12";"2";"[1,2,3,11]";"1";"0";"1"
"1023";"13";"5";"1";"6";"1";"1";"12";"1";"[1,2,3,7]";"1";"0";"1"
"1024";"30";"5";"1";"22";"1";"1";"12";"1";"[1,2,3,23]";"1";"0";"1"
"1025";"23";"5";"1";"19";"1";"1";"12";"1";"[1,2,3,20]";"1";"0";"1"
"1026";"5";"5";"1";"13";"1";"1";"12";"1";"[1,2,3,14]";"1";"0";"1"
"1027";"37";"5";"1";"29";"1";"1";"12";"1";"[1,2,3,30]";"1";"0";"1"
"1028";"9";"5";"1";"34";"1";"1";"12";"2";"[1,2,3,35]";"2";"0";"1"
"1029";"15";"5";"1";"14";"1";"1";"12";"1";"[1,2,3,15]";"1";"0";"1"
"1030";"19";"5";"1";"26";"1";"1";"12";"2";"[1,2,3,27]";"1";"0";"1"
"1031";"31";"5";"1";"31";"1";"1";"12";"1";"[1,2,3,32]";"1";"0";"1"
"1032";"10";"5";"1";"3";"1";"1";"12";"1";"[1,2,4]";"1";"0";"1"
"1033";"18";"5";"1";"1";"1";"1";"12";"1";"[2,3]";"1";"0";"1"
"1034";"17";"5";"1";"33";"1";"1";"12";"2";"[1,2,3,34]";"1";"0";"1"
"1035";"13";"6";"1";"6";"1";"1";"12";"1";"[1,2,3,7]";"1";"0";"1"
"1036";"9";"6";"1";"34";"1";"1";"12";"2";"[1,2,3,35]";"2";"0";"1"
"1037";"32";"6";"1";"25";"1";"1";"12";"1";"[1,2,3,26]";"1";"0";"1"
"1038";"19";"6";"1";"26";"1";"1";"12";"2";"[1,2,3,27]";"1";"0";"1"
"1039";"17";"6";"1";"33";"1";"1";"12";"2";"[1,2,3,34]";"1";"0";"1"
"1040";"32";"7";"1";"25";"1";"1";"12";"1";"[1,2,3,26]";"1";"0";"1"
"1041";"4";"8";"1";"7";"1";"1";"12";"1";"[1,2,3,8]";"1";"0";"1"
"1042";"4";"9";"1";"7";"1";"1";"12";"1";"[1,2,3,8]";"1";"0";"1"
"1043";"22";"10";"1";"17";"1";"1";"12";"1";"[1,2,3,18]";"1";"0";"1"
"1044";"22";"11";"1";"17";"1";"1";"12";"1";"[1,2,3,18]";"1";"0";"1"
"1045";"20";"11";"1";"8";"1";"1";"12";"1";"[1,2,3,9]";"1";"0";"1"
"1046";"35";"11";"1";"20";"1";"1";"12";"2";"[1,2,3,21]";"2";"0";"1"
"1047";"20";"12";"1";"8";"1";"1";"12";"1";"[1,2,3,9]";"1";"0";"1"
"1048";"35";"12";"1";"20";"1";"1";"12";"2";"[1,2,3,21]";"2";"0";"1"
"1049";"33";"13";"1";"40";"1";"1";"12";"2";"[1,2,3]";"1";"0";"1"
"1050";"33";"14";"1";"40";"1";"1";"12";"2";"[1,2,3]";"1";"0";"1"
"1051";"1";"23";"1";"27";"1";"1";"12";"2";"[1,2,3,28]";"2";"0";"1"
"1052";"1";"24";"1";"27";"1";"1";"12";"2";"[1,2,3,28]";"2";"0";"1"
"1053";"13";"0";"1";"39";"1";"2";"12";"1";"[1,2,3,40]";"1";"0";"1"
"1054";"27";"0";"1";"29";"1";"2";"12";"2";"[1,2,3,30]";"1";"0";"1"
"1055";"12";"0";"1";"25";"1";"2";"12";"1";"[1,2,3,26]";"1";"0";"1"
"1056";"25";"0";"1";"24";"1";"2";"12";"1";"[1,2,3,25]";"1";"0";"1"
"1057";"40";"0";"1";"10";"1";"2";"12";"2";"[1,2,3,11]";"1";"0";"1"
"1058";"15";"0";"1";"5";"1";"2";"12";"2";"[1,2,3,6]";"1";"0";"1"
"1059";"39";"0";"1";"6";"1";"2";"12";"1";"[1,2,3,7]";"1";"0";"1"
"1060";"36";"0";"1";"37";"1";"2";"12";"1";"[1,2,3,38]";"1";"0";"1"
"1061";"5";"0";"1";"40";"1";"2";"12";"2";"[1,2,3]";"1";"0";"1"
"1062";"32";"0";"1";"33";"1";"2";"12";"2";"[1,2,3,34]";"1";"0";"1"
"1063";"28";"0";"1";"7";"1";"2";"12";"1";"[1,2,3,8]";"1";"0";"1"
"1064";"14";"0";"1";"20";"1";"2";"12";"1";"[1,2,3,21]";"2";"0";"1"
"1065";"20";"0";"1";"16";"1";"2";"12";"2";"[1,2,3,17]";"1";"0";"1"
"1066";"38";"0";"1";"36";"1";"2";"12";"1";"[1,2,3,37]";"1";"0";"1"
"1067";"24";"0";"1";"9";"1";"2";"12";"2";"[1,2,3,10]";"1";"0";"1"
"1068";"17";"0";"1";"38";"1";"2";"12";"2";"[1,2,3,39]";"1";"0";"1"
"1069";"31";"0";"1";"34";"1";"2";"12";"2";"[1,2,3,35]";"2";"0";"1"
"1070";"9";"0";"1";"19";"1";"2";"12";"1";"[1,2,3,20]";"1";"0";"1"
"1071";"22";"0";"1";"28";"1";"2";"12";"2";"[1,2,3,29]";"1";"0";"1"
"1072";"3";"0";"1";"14";"1";"2";"12";"2";"[1,2,3,15]";"1";"0";"1"
"1073";"37";"0";"1";"26";"1";"2";"12";"1";"[1,2,3,27]";"1";"0";"1"
"1074";"10";"0";"1";"32";"1";"2";"12";"2";"[1,2,3,33]";"1";"0";"1"
"1075";"19";"0";"1";"3";"1";"2";"12";"2";"[1,2,4]";"1";"0";"1"
"1076";"16";"0";"1";"4";"1";"2";"12";"2";"[1,2,3,5]";"1";"0";"1"
"1077";"23";"0";"1";"12";"1";"2";"12";"1";"[1,2,3,13]";"1";"0";"1"
"1078";"11";"0";"1";"21";"1";"2";"12";"2";"[1,2,3,22]";"1";"0";"1"
"1079";"18";"0";"1";"8";"1";"2";"12";"2";"[1,2,3,9]";"1";"0";"1"
"1080";"7";"0";"1";"17";"1";"2";"12";"2";"[1,2,3,18]";"1";"0";"1"
"1081";"35";"0";"1";"30";"1";"2";"12";"2";"[1,2,3,31]";"1";"0";"1"
"1082";"26";"0";"1";"31";"1";"2";"12";"2";"[1,2,3,32]";"1";"0";"1"
"1083";"34";"0";"1";"35";"1";"2";"12";"2";"[1,2,3,36]";"1";"0";"1"
"1084";"4";"0";"1";"2";"1";"2";"12";"2";"[1,3]";"2";"0";"1"
"1085";"30";"0";"1";"13";"1";"2";"12";"2";"[1,2,3,14]";"1";"0";"1"
"1086";"6";"0";"1";"23";"1";"2";"12";"2";"[1,2,3,24]";"1";"0";"1"
"1087";"1";"0";"1";"1";"1";"2";"12";"2";"[2,3]";"1";"0";"1"
"1088";"21";"0";"1";"18";"1";"2";"12";"2";"[1,2,3,19]";"1";"0";"1"
"1089";"2";"0";"1";"27";"1";"2";"12";"1";"[1,2,3,28]";"2";"0";"1"
"1090";"29";"0";"1";"11";"1";"2";"12";"2";"[1,2,3,12]";"1";"0";"1"
"1091";"33";"0";"1";"22";"1";"2";"12";"2";"[1,2,3,23]";"1";"0";"1"
"1092";"8";"0";"1";"15";"1";"2";"12";"1";"[1,2,3,16]";"1";"0";"1"
"1093";"25";"3";"1";"24";"1";"2";"1";"1";"[1,2,3,25]";"1";"0";"1"
"1094";"39";"3";"1";"6";"1";"2";"1";"1";"[1,2,3,7]";"1";"0";"1"
"1095";"37";"3";"1";"26";"1";"2";"1";"1";"[1,2,3,27]";"1";"0";"1"
"1096";"15";"3";"1";"5";"1";"2";"1";"2";"[1,2,3,6]";"2";"0";"1"
"1097";"26";"3";"1";"31";"1";"2";"1";"2";"[1,2,3,32]";"1";"0";"1"
"1098";"22";"4";"1";"28";"1";"2";"1";"2";"[1,2,3,29]";"2";"0";"1"
"1099";"34";"4";"1";"35";"1";"2";"1";"2";"[1,2,3,36]";"2";"0";"1"
"1100";"25";"4";"1";"24";"1";"2";"1";"1";"[1,2,3,25]";"1";"0";"1"
"1101";"13";"4";"1";"39";"1";"2";"1";"1";"[1,2,3,40]";"1";"0";"1"
"1102";"39";"4";"1";"6";"1";"2";"1";"1";"[1,2,3,7]";"1";"0";"1"
"1103";"37";"4";"1";"26";"1";"2";"1";"1";"[1,2,3,27]";"1";"0";"1"
"1104";"32";"4";"1";"33";"1";"2";"1";"2";"[1,2,3,34]";"2";"0";"1"
"1105";"9";"4";"1";"19";"1";"2";"1";"1";"[1,2,3,20]";"1";"0";"1"
"1106";"15";"4";"1";"5";"1";"2";"1";"2";"[1,2,3,6]";"2";"0";"1"
"1107";"7";"4";"1";"17";"1";"2";"1";"2";"[1,2,3,18]";"2";"0";"1"
"1108";"26";"4";"1";"31";"1";"2";"1";"2";"[1,2,3,32]";"1";"0";"1"
"1109";"22";"5";"1";"28";"1";"2";"1";"2";"[1,2,3,29]";"2";"0";"1"
"1110";"34";"5";"1";"35";"1";"2";"1";"2";"[1,2,3,36]";"2";"0";"1"
"1111";"19";"5";"1";"3";"1";"2";"1";"2";"[1,2,4]";"2";"0";"1"
"1112";"27";"5";"1";"29";"1";"2";"1";"2";"[1,2,3,30]";"2";"0";"1"
"1113";"21";"5";"1";"18";"1";"2";"1";"2";"[1,2,3,19]";"2";"0";"1"
"1114";"13";"5";"1";"39";"1";"2";"1";"1";"[1,2,3,40]";"1";"0";"1"
"1115";"29";"5";"1";"11";"1";"2";"1";"2";"[1,2,3,12]";"2";"0";"1"
"1116";"8";"5";"1";"15";"1";"2";"1";"1";"[1,2,3,16]";"1";"0";"1"
"1117";"32";"5";"1";"33";"1";"2";"1";"2";"[1,2,3,34]";"2";"0";"1"
"1118";"9";"5";"1";"19";"1";"2";"1";"1";"[1,2,3,20]";"1";"0";"1"
"1119";"7";"5";"1";"17";"1";"2";"1";"2";"[1,2,3,18]";"2";"0";"1"
"1120";"40";"5";"1";"10";"1";"2";"1";"2";"[1,2,3,11]";"2";"0";"1"
"1121";"6";"5";"1";"23";"1";"2";"1";"2";"[1,2,3,24]";"2";"0";"1"
"1122";"17";"5";"1";"38";"1";"2";"1";"2";"[1,2,3,39]";"2";"0";"1"
"1123";"27";"6";"1";"29";"1";"2";"1";"2";"[1,2,3,30]";"2";"0";"1"
"1124";"19";"6";"1";"3";"1";"2";"1";"2";"[1,2,4]";"2";"0";"1"
"1125";"21";"6";"1";"18";"1";"2";"1";"2";"[1,2,3,19]";"2";"0";"1"
"1126";"29";"6";"1";"11";"1";"2";"1";"2";"[1,2,3,12]";"2";"0";"1"
"1127";"8";"6";"1";"15";"1";"2";"1";"1";"[1,2,3,16]";"1";"0";"1"
"1128";"5";"6";"1";"40";"1";"2";"1";"2";"[1,2,3]";"2";"0";"1"
"1129";"40";"6";"1";"10";"1";"2";"1";"2";"[1,2,3,11]";"2";"0";"1"
"1130";"6";"6";"1";"23";"1";"2";"1";"2";"[1,2,3,24]";"2";"0";"1"
"1131";"17";"6";"1";"38";"1";"2";"1";"2";"[1,2,3,39]";"2";"0";"1"
"1132";"30";"7";"1";"13";"1";"2";"1";"2";"[1,2,3,14]";"2";"0";"1"
"1133";"28";"7";"1";"7";"1";"2";"1";"1";"[1,2,3,8]";"2";"0";"1"
"1134";"5";"7";"1";"40";"1";"2";"1";"2";"[1,2,3]";"2";"0";"1"
"1135";"3";"7";"1";"14";"1";"2";"1";"2";"[1,2,3,15]";"2";"0";"1"
"1136";"11";"7";"1";"21";"1";"2";"1";"2";"[1,2,3,22]";"2";"0";"1"
"1137";"30";"8";"1";"13";"1";"2";"1";"2";"[1,2,3,14]";"2";"0";"1"
"1138";"28";"8";"1";"7";"1";"2";"1";"1";"[1,2,3,8]";"2";"0";"1"
"1139";"3";"8";"1";"14";"1";"2";"1";"2";"[1,2,3,15]";"2";"0";"1"
"1140";"11";"8";"1";"21";"1";"2";"1";"2";"[1,2,3,22]";"2";"0";"1"
"1141";"2";"9";"1";"27";"1";"2";"1";"1";"[1,2,3,28]";"1";"0";"1"
"1142";"20";"9";"1";"16";"1";"2";"1";"2";"[1,2,3,17]";"2";"0";"1"
"1143";"16";"9";"1";"4";"1";"2";"1";"2";"[1,2,3,5]";"2";"0";"1"
"1144";"18";"9";"1";"8";"1";"2";"1";"2";"[1,2,3,9]";"2";"0";"1"
"1145";"35";"9";"1";"30";"1";"2";"1";"2";"[1,2,3,31]";"1";"0";"1"
"1146";"2";"10";"1";"27";"1";"2";"1";"1";"[1,2,3,28]";"1";"0";"1"
"1147";"20";"10";"1";"16";"1";"2";"1";"2";"[1,2,3,17]";"2";"0";"1"
"1148";"16";"10";"1";"4";"1";"2";"1";"2";"[1,2,3,5]";"2";"0";"1"
"1149";"36";"10";"1";"37";"1";"2";"1";"1";"[1,2,3,38]";"1";"0";"1"
"1150";"12";"10";"1";"25";"1";"2";"1";"1";"[1,2,3,26]";"1";"0";"1"
"1151";"18";"10";"1";"8";"1";"2";"1";"2";"[1,2,3,9]";"2";"0";"1"
"1152";"1";"10";"1";"1";"1";"2";"1";"2";"[2,3]";"2";"0";"1"
"1153";"35";"11";"1";"30";"1";"2";"1";"2";"[1,2,3,31]";"1";"0";"1"
"1154";"14";"11";"1";"20";"1";"2";"1";"1";"[1,2,3,21]";"1";"0";"1"
"1155";"36";"11";"1";"37";"1";"2";"1";"1";"[1,2,3,38]";"1";"0";"1"
"1156";"10";"11";"1";"32";"1";"2";"1";"2";"[1,2,3,33]";"2";"0";"1"
"1157";"12";"11";"1";"25";"1";"2";"1";"1";"[1,2,3,26]";"1";"0";"1"
"1158";"31";"11";"1";"34";"1";"2";"1";"2";"[1,2,3,35]";"2";"0";"1"
"1159";"1";"11";"1";"1";"1";"2";"1";"2";"[2,3]";"2";"0";"1"
"1160";"24";"11";"1";"9";"1";"2";"1";"2";"[1,2,3,10]";"2";"0";"1"
"1161";"33";"12";"1";"22";"1";"2";"1";"2";"[1,2,3,23]";"2";"0";"1"
"1162";"14";"12";"1";"20";"1";"2";"1";"1";"[1,2,3,21]";"1";"0";"1"
"1163";"10";"12";"1";"32";"1";"2";"1";"2";"[1,2,3,33]";"2";"0";"1"
"1164";"31";"12";"1";"34";"1";"2";"1";"2";"[1,2,3,35]";"2";"0";"1"
"1165";"24";"12";"1";"9";"1";"2";"1";"2";"[1,2,3,10]";"2";"0";"1"
"1166";"33";"13";"1";"22";"1";"2";"1";"2";"[1,2,3,23]";"2";"0";"1"
"1167";"4";"13";"1";"2";"1";"2";"1";"2";"[1,3]";"2";"0";"1"
"1168";"4";"14";"1";"2";"1";"2";"1";"2";"[1,3]";"2";"0";"1"
"1169";"38";"15";"1";"36";"1";"2";"1";"1";"[1,2,3,37]";"1";"0";"1"
"1170";"23";"16";"1";"12";"1";"2";"1";"1";"[1,2,3,13]";"1";"0";"1"
"1171";"38";"16";"1";"36";"1";"2";"1";"1";"[1,2,3,37]";"1";"0";"1"
"1172";"23";"17";"1";"12";"1";"2";"1";"1";"[1,2,3,13]";"1";"0";"1"
"1173";"13";"1";"1";"39";"1";"2";"2";"1";"[1,2,3,40]";"1";"0";"1"
"1174";"3";"2";"1";"14";"1";"2";"2";"2";"[1,2,3,15]";"2";"0";"1"
"1175";"11";"2";"1";"21";"1";"2";"2";"2";"[1,2,3,22]";"2";"0";"1"
"1176";"6";"2";"1";"23";"1";"2";"2";"2";"[1,2,3,24]";"2";"0";"1"
"1177";"15";"2";"1";"5";"1";"2";"2";"2";"[1,2,3,6]";"2";"0";"1"
"1178";"13";"2";"1";"39";"1";"2";"2";"1";"[1,2,3,40]";"1";"0";"1"
"1179";"34";"2";"1";"35";"1";"2";"2";"2";"[1,2,3,36]";"2";"0";"1"
"1180";"36";"3";"1";"37";"1";"2";"2";"1";"[1,2,3,38]";"2";"0";"1"
"1181";"3";"3";"1";"14";"1";"2";"2";"2";"[1,2,3,15]";"2";"0";"1"
"1182";"11";"3";"1";"21";"1";"2";"2";"2";"[1,2,3,22]";"2";"0";"1"
"1183";"14";"3";"1";"20";"1";"2";"2";"1";"[1,2,3,21]";"2";"0";"1"
"1184";"8";"3";"1";"15";"1";"2";"2";"1";"[1,2,3,16]";"2";"0";"1"
"1185";"6";"3";"1";"23";"1";"2";"2";"2";"[1,2,3,24]";"2";"0";"1"
"1186";"15";"3";"1";"5";"1";"2";"2";"2";"[1,2,3,6]";"2";"0";"1"
"1187";"30";"3";"1";"13";"1";"2";"2";"2";"[1,2,3,14]";"2";"0";"1"
"1188";"40";"3";"1";"10";"1";"2";"2";"2";"[1,2,3,11]";"2";"0";"1"
"1189";"27";"3";"1";"29";"1";"2";"2";"2";"[1,2,3,30]";"2";"0";"1"
"1190";"34";"3";"1";"35";"1";"2";"2";"2";"[1,2,3,36]";"2";"0";"1"
"1191";"36";"4";"1";"37";"1";"2";"2";"1";"[1,2,3,38]";"2";"0";"1"
"1192";"31";"4";"1";"34";"1";"2";"2";"2";"[1,2,3,35]";"2";"0";"1"
"1193";"29";"4";"1";"11";"1";"2";"2";"2";"[1,2,3,12]";"2";"0";"1"
"1194";"32";"4";"1";"33";"1";"2";"2";"2";"[1,2,3,34]";"2";"0";"1"
"1195";"14";"4";"1";"20";"1";"2";"2";"1";"[1,2,3,21]";"2";"0";"1"
"1196";"33";"4";"1";"22";"1";"2";"2";"2";"[1,2,3,23]";"2";"0";"1"
"1197";"8";"4";"1";"15";"1";"2";"2";"1";"[1,2,3,16]";"2";"0";"1"
"1198";"19";"4";"1";"3";"1";"2";"2";"2";"[1,2,4]";"2";"0";"1"
"1199";"38";"4";"1";"36";"1";"2";"2";"1";"[1,2,3,37]";"2";"0";"1"
"1200";"30";"4";"1";"13";"1";"2";"2";"2";"[1,2,3,14]";"2";"0";"1"
"1201";"40";"4";"1";"10";"1";"2";"2";"2";"[1,2,3,11]";"2";"0";"1"
"1202";"39";"4";"1";"6";"1";"2";"2";"1";"[1,2,3,7]";"2";"0";"1"
"1203";"27";"4";"1";"29";"1";"2";"2";"2";"[1,2,3,30]";"2";"0";"1"
"1204";"26";"5";"1";"31";"1";"2";"2";"2";"[1,2,3,32]";"1";"0";"1"
"1205";"31";"5";"1";"34";"1";"2";"2";"2";"[1,2,3,35]";"2";"0";"1"
"1206";"29";"5";"1";"11";"1";"2";"2";"2";"[1,2,3,12]";"2";"0";"1"
"1207";"32";"5";"1";"33";"1";"2";"2";"2";"[1,2,3,34]";"2";"0";"1"
"1208";"33";"5";"1";"22";"1";"2";"2";"2";"[1,2,3,23]";"2";"0";"1"
"1209";"19";"5";"1";"3";"1";"2";"2";"2";"[1,2,4]";"2";"0";"1"
"1210";"38";"5";"1";"36";"1";"2";"2";"1";"[1,2,3,37]";"2";"0";"1"
"1211";"39";"5";"1";"6";"1";"2";"2";"1";"[1,2,3,7]";"2";"0";"1"
"1212";"26";"6";"1";"31";"1";"2";"2";"2";"[1,2,3,32]";"1";"0";"1"
"1213";"37";"6";"1";"26";"1";"2";"2";"1";"[1,2,3,27]";"2";"0";"1"
"1214";"16";"6";"1";"4";"1";"2";"2";"2";"[1,2,3,5]";"2";"0";"1"
"1215";"7";"6";"1";"17";"1";"2";"2";"2";"[1,2,3,18]";"2";"0";"1"
"1216";"18";"7";"1";"8";"1";"2";"2";"2";"[1,2,3,9]";"2";"0";"1"
"1217";"16";"7";"1";"4";"1";"2";"2";"2";"[1,2,3,5]";"2";"0";"1"
"1218";"37";"7";"1";"26";"1";"2";"2";"1";"[1,2,3,27]";"2";"0";"1"
"1219";"28";"7";"1";"7";"1";"2";"2";"1";"[1,2,3,8]";"2";"0";"1"
"1220";"5";"7";"1";"40";"1";"2";"2";"2";"[1,2,3]";"2";"0";"1"
"1221";"7";"7";"1";"17";"1";"2";"2";"2";"[1,2,3,18]";"2";"0";"1"
"1222";"21";"8";"1";"18";"1";"2";"2";"2";"[1,2,3,19]";"2";"0";"1"
"1223";"10";"8";"1";"32";"1";"2";"2";"2";"[1,2,3,33]";"2";"0";"1"
"1224";"18";"8";"1";"8";"1";"2";"2";"2";"[1,2,3,9]";"2";"0";"1"
"1225";"28";"8";"1";"7";"1";"2";"2";"1";"[1,2,3,8]";"2";"0";"1"
"1226";"5";"8";"1";"40";"1";"2";"2";"2";"[1,2,3]";"2";"0";"1"
"1227";"9";"8";"1";"19";"1";"2";"2";"1";"[1,2,3,20]";"2";"0";"1"
"1228";"21";"9";"1";"18";"1";"2";"2";"2";"[1,2,3,19]";"2";"0";"1"
"1229";"10";"9";"1";"32";"1";"2";"2";"2";"[1,2,3,33]";"2";"0";"1"
"1230";"17";"9";"1";"38";"1";"2";"2";"2";"[1,2,3,39]";"2";"0";"1"
"1231";"24";"9";"1";"9";"1";"2";"2";"2";"[1,2,3,10]";"2";"0";"1"
"1232";"25";"9";"1";"24";"1";"2";"2";"1";"[1,2,3,25]";"1";"0";"1"
"1233";"9";"9";"1";"19";"1";"2";"2";"1";"[1,2,3,20]";"2";"0";"1"
"1234";"4";"9";"1";"2";"1";"2";"2";"2";"[1,3]";"2";"0";"1"
"1235";"17";"10";"1";"38";"1";"2";"2";"2";"[1,2,3,39]";"2";"0";"1"
"1236";"24";"10";"1";"9";"1";"2";"2";"2";"[1,2,3,10]";"2";"0";"1"
"1237";"25";"10";"1";"24";"1";"2";"2";"1";"[1,2,3,25]";"1";"0";"1"
"1238";"4";"10";"1";"2";"1";"2";"2";"2";"[1,3]";"2";"0";"1"
"1239";"1";"11";"1";"1";"1";"2";"2";"2";"[2,3]";"2";"0";"1"
"1240";"20";"11";"1";"16";"1";"2";"2";"2";"[1,2,3,17]";"2";"0";"1"
"1241";"23";"12";"1";"12";"1";"2";"2";"1";"[1,2,3,13]";"1";"0";"1"
"1242";"1";"12";"1";"1";"1";"2";"2";"2";"[2,3]";"2";"0";"1"
"1243";"22";"12";"1";"28";"1";"2";"2";"2";"[1,2,3,29]";"2";"0";"1"
"1244";"20";"12";"1";"16";"1";"2";"2";"2";"[1,2,3,17]";"2";"0";"1"
"1245";"23";"13";"1";"12";"1";"2";"2";"1";"[1,2,3,13]";"1";"0";"1"
"1246";"22";"13";"1";"28";"1";"2";"2";"2";"[1,2,3,29]";"2";"0";"1"
"1247";"35";"14";"1";"30";"1";"2";"2";"2";"[1,2,3,31]";"1";"0";"1"
"1248";"2";"14";"1";"27";"1";"2";"2";"1";"[1,2,3,28]";"2";"0";"1"
"1249";"35";"15";"1";"30";"1";"2";"2";"2";"[1,2,3,31]";"1";"0";"1"
"1250";"2";"15";"1";"27";"1";"2";"2";"1";"[1,2,3,28]";"2";"0";"1"
"1251";"12";"15";"1";"25";"1";"2";"2";"1";"[1,2,3,26]";"2";"0";"1"
"1252";"12";"16";"1";"25";"1";"2";"2";"1";"[1,2,3,26]";"2";"0";"1"
"1253";"31";"0";"1";"34";"1";"2";"3";"2";"[1,2,3,35]";"2";"0";"1"
"1254";"8";"1";"1";"15";"1";"2";"3";"1";"[1,2,3,16]";"2";"0";"1"
"1255";"31";"1";"1";"34";"1";"2";"3";"2";"[1,2,3,35]";"2";"0";"1"
"1256";"12";"1";"1";"25";"1";"2";"3";"1";"[1,2,3,26]";"2";"0";"1"
"1257";"15";"1";"1";"5";"1";"2";"3";"2";"[1,2,3,6]";"2";"0";"1"
"1258";"33";"2";"1";"22";"1";"2";"3";"2";"[1,2,3,23]";"2";"0";"1"
"1259";"21";"2";"1";"18";"1";"2";"3";"2";"[1,2,3,19]";"2";"0";"1"
"1260";"3";"2";"1";"14";"1";"2";"3";"2";"[1,2,3,15]";"2";"0";"1"
"1261";"13";"2";"1";"39";"1";"2";"3";"1";"[1,2,3,40]";"1";"0";"1"
"1262";"1";"2";"1";"1";"1";"2";"3";"2";"[2,3]";"2";"0";"1"
"1263";"37";"2";"1";"26";"1";"2";"3";"1";"[1,2,3,27]";"2";"0";"1"
"1264";"11";"2";"1";"21";"1";"2";"3";"2";"[1,2,3,22]";"2";"0";"1"
"1265";"32";"2";"1";"33";"1";"2";"3";"2";"[1,2,3,34]";"2";"0";"1"
"1266";"8";"2";"1";"15";"1";"2";"3";"1";"[1,2,3,16]";"2";"0";"1"
"1267";"6";"2";"1";"23";"1";"2";"3";"2";"[1,2,3,24]";"2";"0";"1"
"1268";"35";"2";"1";"30";"1";"2";"3";"2";"[1,2,3,31]";"2";"0";"1"
"1269";"36";"2";"1";"37";"1";"2";"3";"1";"[1,2,3,38]";"2";"0";"1"
"1270";"12";"2";"1";"25";"1";"2";"3";"1";"[1,2,3,26]";"2";"0";"1"
"1271";"15";"2";"1";"5";"1";"2";"3";"2";"[1,2,3,6]";"2";"0";"1"
"1272";"33";"3";"1";"22";"1";"2";"3";"2";"[1,2,3,23]";"2";"0";"1"
"1273";"39";"3";"1";"6";"1";"2";"3";"1";"[1,2,3,7]";"2";"0";"1"
"1274";"21";"3";"1";"18";"1";"2";"3";"2";"[1,2,3,19]";"2";"0";"1"
"1275";"7";"3";"1";"17";"1";"2";"3";"2";"[1,2,3,18]";"2";"0";"1"
"1276";"3";"3";"1";"14";"1";"2";"3";"2";"[1,2,3,15]";"2";"0";"1"
"1277";"13";"3";"1";"39";"1";"2";"3";"1";"[1,2,3,40]";"1";"0";"1"
"1278";"34";"3";"1";"35";"1";"2";"3";"2";"[1,2,3,36]";"2";"0";"1"
"1279";"27";"3";"1";"29";"1";"2";"3";"2";"[1,2,3,30]";"2";"0";"1"
"1280";"1";"3";"1";"1";"1";"2";"3";"2";"[2,3]";"2";"0";"1"
"1281";"37";"3";"1";"26";"1";"2";"3";"1";"[1,2,3,27]";"2";"0";"1"
"1282";"28";"3";"1";"7";"1";"2";"3";"1";"[1,2,3,8]";"1";"0";"1"
"1283";"40";"3";"1";"10";"1";"2";"3";"2";"[1,2,3,11]";"2";"0";"1"
"1284";"30";"3";"1";"13";"1";"2";"3";"2";"[1,2,3,14]";"2";"0";"1"
"1285";"11";"3";"1";"21";"1";"2";"3";"2";"[1,2,3,22]";"2";"0";"1"
"1286";"32";"3";"1";"33";"1";"2";"3";"2";"[1,2,3,34]";"2";"0";"1"
"1287";"14";"3";"1";"20";"1";"2";"3";"1";"[1,2,3,21]";"2";"0";"1"
"1288";"6";"3";"1";"23";"1";"2";"3";"2";"[1,2,3,24]";"2";"0";"1"
"1289";"35";"3";"1";"30";"1";"2";"3";"2";"[1,2,3,31]";"2";"0";"1"
"1290";"5";"3";"1";"40";"1";"2";"3";"2";"[1,2,3]";"1";"0";"1"
"1291";"36";"3";"1";"37";"1";"2";"3";"1";"[1,2,3,38]";"2";"0";"1"
"1292";"26";"4";"1";"31";"1";"2";"3";"2";"[1,2,3,32]";"1";"0";"1"
"1293";"39";"4";"1";"6";"1";"2";"3";"1";"[1,2,3,7]";"2";"0";"1"
"1294";"7";"4";"1";"17";"1";"2";"3";"2";"[1,2,3,18]";"2";"0";"1"
"1295";"16";"4";"1";"4";"1";"2";"3";"2";"[1,2,3,5]";"2";"0";"1"
"1296";"23";"4";"1";"12";"1";"2";"3";"1";"[1,2,3,13]";"2";"0";"1"
"1297";"34";"4";"1";"35";"1";"2";"3";"2";"[1,2,3,36]";"2";"0";"1"
"1298";"19";"4";"1";"3";"1";"2";"3";"2";"[1,2,4]";"2";"0";"1"
"1299";"27";"4";"1";"29";"1";"2";"3";"2";"[1,2,3,30]";"2";"0";"1"
"1300";"22";"4";"1";"28";"1";"2";"3";"2";"[1,2,3,29]";"2";"0";"1"
"1301";"2";"4";"1";"27";"1";"2";"3";"1";"[1,2,3,28]";"2";"0";"1"
"1302";"28";"4";"1";"7";"1";"2";"3";"1";"[1,2,3,8]";"1";"0";"1"
"1303";"40";"4";"1";"10";"1";"2";"3";"2";"[1,2,3,11]";"2";"0";"1"
"1304";"30";"4";"1";"13";"1";"2";"3";"2";"[1,2,3,14]";"2";"0";"1"
"1305";"17";"4";"1";"38";"1";"2";"3";"2";"[1,2,3,39]";"2";"0";"1"
"1306";"14";"4";"1";"20";"1";"2";"3";"1";"[1,2,3,21]";"2";"0";"1"
"1307";"5";"4";"1";"40";"1";"2";"3";"2";"[1,2,3]";"1";"0";"1"
"1308";"26";"5";"1";"31";"1";"2";"3";"2";"[1,2,3,32]";"1";"0";"1"
"1309";"23";"5";"1";"12";"1";"2";"3";"1";"[1,2,3,13]";"2";"0";"1"
"1310";"16";"5";"1";"4";"1";"2";"3";"2";"[1,2,3,5]";"2";"0";"1"
"1311";"19";"5";"1";"3";"1";"2";"3";"2";"[1,2,4]";"2";"0";"1"
"1312";"22";"5";"1";"28";"1";"2";"3";"2";"[1,2,3,29]";"2";"0";"1"
"1313";"2";"5";"1";"27";"1";"2";"3";"1";"[1,2,3,28]";"2";"0";"1"
"1314";"17";"5";"1";"38";"1";"2";"3";"2";"[1,2,3,39]";"2";"0";"1"
"1315";"29";"5";"1";"11";"1";"2";"3";"2";"[1,2,3,12]";"2";"0";"1"
"1316";"24";"6";"1";"9";"1";"2";"3";"2";"[1,2,3,10]";"2";"0";"1"
"1317";"9";"6";"1";"19";"1";"2";"3";"1";"[1,2,3,20]";"2";"0";"1"
"1318";"25";"6";"1";"24";"1";"2";"3";"1";"[1,2,3,25]";"1";"0";"1"
"1319";"29";"6";"1";"11";"1";"2";"3";"2";"[1,2,3,12]";"2";"0";"1"
"1320";"24";"7";"1";"9";"1";"2";"3";"2";"[1,2,3,10]";"2";"0";"1"
"1321";"10";"7";"1";"32";"1";"2";"3";"2";"[1,2,3,33]";"2";"0";"1"
"1322";"4";"7";"1";"2";"1";"2";"3";"2";"[1,3]";"2";"0";"1"
"1323";"9";"7";"1";"19";"1";"2";"3";"1";"[1,2,3,20]";"2";"0";"1"
"1324";"18";"7";"1";"8";"1";"2";"3";"2";"[1,2,3,9]";"2";"0";"1"
"1325";"25";"7";"1";"24";"1";"2";"3";"1";"[1,2,3,25]";"1";"0";"1"
"1326";"20";"7";"1";"16";"1";"2";"3";"2";"[1,2,3,17]";"1";"0";"1"
"1327";"38";"7";"1";"36";"1";"2";"3";"1";"[1,2,3,37]";"1";"0";"1"
"1328";"10";"8";"1";"32";"1";"2";"3";"2";"[1,2,3,33]";"2";"0";"1"
"1329";"4";"8";"1";"2";"1";"2";"3";"2";"[1,3]";"2";"0";"1"
"1330";"18";"8";"1";"8";"1";"2";"3";"2";"[1,2,3,9]";"2";"0";"1"
"1331";"20";"8";"1";"16";"1";"2";"3";"2";"[1,2,3,17]";"1";"0";"1"
"1332";"38";"8";"1";"36";"1";"2";"3";"1";"[1,2,3,37]";"1";"0";"1"
"1333";"3";"2";"1";"14";"1";"2";"4";"2";"[1,2,3,15]";"2";"0";"1"
"1334";"15";"2";"1";"5";"1";"2";"4";"2";"[1,2,3,6]";"2";"0";"1"
"1335";"13";"2";"1";"39";"1";"2";"4";"1";"[1,2,3,40]";"1";"0";"1"
"1336";"2";"2";"1";"27";"1";"2";"4";"1";"[1,2,3,28]";"2";"0";"1"
"1337";"14";"2";"1";"20";"1";"2";"4";"1";"[1,2,3,21]";"2";"0";"1"
"1338";"21";"2";"1";"18";"1";"2";"4";"2";"[1,2,3,19]";"2";"0";"1"
"1339";"35";"2";"1";"30";"1";"2";"4";"2";"[1,2,3,31]";"2";"0";"1"
"1340";"1";"2";"1";"1";"1";"2";"4";"2";"[2,3]";"2";"0";"1"
"1341";"31";"2";"1";"34";"1";"2";"4";"2";"[1,2,3,35]";"2";"0";"1"
"1342";"25";"2";"1";"24";"1";"2";"4";"1";"[1,2,3,25]";"1";"0";"1"
"1343";"38";"2";"1";"36";"1";"2";"4";"1";"[1,2,3,37]";"2";"0";"1"
"1344";"37";"2";"1";"26";"1";"2";"4";"1";"[1,2,3,27]";"2";"0";"1"
"1345";"32";"2";"1";"33";"1";"2";"4";"2";"[1,2,3,34]";"2";"0";"1"
"1346";"3";"3";"1";"14";"1";"2";"4";"2";"[1,2,3,15]";"2";"0";"1"
"1347";"15";"3";"1";"5";"1";"2";"4";"2";"[1,2,3,6]";"2";"0";"1"
"1348";"40";"3";"1";"10";"1";"2";"4";"2";"[1,2,3,11]";"2";"0";"1"
"1349";"29";"3";"1";"11";"1";"2";"4";"2";"[1,2,3,12]";"2";"0";"1"
"1350";"13";"3";"1";"39";"1";"2";"4";"1";"[1,2,3,40]";"1";"0";"1"
"1351";"9";"3";"1";"19";"1";"2";"4";"1";"[1,2,3,20]";"2";"0";"1"
"1352";"2";"3";"1";"27";"1";"2";"4";"1";"[1,2,3,28]";"2";"0";"1"
"1353";"7";"3";"1";"17";"1";"2";"4";"2";"[1,2,3,18]";"2";"0";"1"
"1354";"34";"3";"1";"35";"1";"2";"4";"2";"[1,2,3,36]";"2";"0";"1"
"1355";"14";"3";"1";"20";"1";"2";"4";"1";"[1,2,3,21]";"2";"0";"1"
"1356";"21";"3";"1";"18";"1";"2";"4";"2";"[1,2,3,19]";"2";"0";"1"
"1357";"35";"3";"1";"30";"1";"2";"4";"2";"[1,2,3,31]";"2";"0";"1"
"1358";"1";"3";"1";"1";"1";"2";"4";"2";"[2,3]";"2";"0";"1"
"1359";"30";"3";"1";"13";"1";"2";"4";"2";"[1,2,3,14]";"2";"0";"1"
"1360";"17";"3";"1";"38";"1";"2";"4";"2";"[1,2,3,39]";"2";"0";"1"
"1361";"31";"3";"1";"34";"1";"2";"4";"2";"[1,2,3,35]";"2";"0";"1"
"1362";"25";"3";"1";"24";"1";"2";"4";"1";"[1,2,3,25]";"1";"0";"1"
"1363";"8";"3";"1";"15";"1";"2";"4";"1";"[1,2,3,16]";"2";"0";"1"
"1364";"38";"3";"1";"36";"1";"2";"4";"1";"[1,2,3,37]";"2";"0";"1"
"1365";"37";"3";"1";"26";"1";"2";"4";"1";"[1,2,3,27]";"2";"0";"1"
"1366";"32";"3";"1";"33";"1";"2";"4";"2";"[1,2,3,34]";"2";"0";"1"
"1367";"24";"3";"1";"9";"1";"2";"4";"2";"[1,2,3,10]";"2";"0";"1"
"1368";"19";"4";"1";"3";"1";"2";"4";"2";"[1,2,4]";"2";"0";"1"
"1369";"40";"4";"1";"10";"1";"2";"4";"2";"[1,2,3,11]";"2";"0";"1"
"1370";"29";"4";"1";"11";"1";"2";"4";"2";"[1,2,3,12]";"2";"0";"1"
"1371";"39";"4";"1";"6";"1";"2";"4";"1";"[1,2,3,7]";"2";"0";"1"
"1372";"9";"4";"1";"19";"1";"2";"4";"1";"[1,2,3,20]";"2";"0";"1"
"1373";"7";"4";"1";"17";"1";"2";"4";"2";"[1,2,3,18]";"2";"0";"1"
"1374";"34";"4";"1";"35";"1";"2";"4";"2";"[1,2,3,36]";"2";"0";"1"
"1375";"10";"4";"1";"32";"1";"2";"4";"2";"[1,2,3,33]";"2";"0";"1"
"1376";"11";"4";"1";"21";"1";"2";"4";"2";"[1,2,3,22]";"2";"0";"1"
"1377";"30";"4";"1";"13";"1";"2";"4";"2";"[1,2,3,14]";"2";"0";"1"
"1378";"17";"4";"1";"38";"1";"2";"4";"2";"[1,2,3,39]";"2";"0";"1"
"1379";"8";"4";"1";"15";"1";"2";"4";"1";"[1,2,3,16]";"2";"0";"1"
"1380";"24";"5";"1";"9";"1";"2";"4";"2";"[1,2,3,10]";"2";"0";"1"
"1381";"22";"5";"1";"28";"1";"2";"4";"2";"[1,2,3,29]";"2";"0";"1"
"1382";"19";"5";"1";"3";"1";"2";"4";"2";"[1,2,4]";"2";"0";"1"
"1383";"39";"5";"1";"6";"1";"2";"4";"1";"[1,2,3,7]";"2";"0";"1"
"1384";"10";"5";"1";"32";"1";"2";"4";"2";"[1,2,3,33]";"2";"0";"1"
"1385";"11";"5";"1";"21";"1";"2";"4";"2";"[1,2,3,22]";"2";"0";"1"
"1386";"4";"5";"1";"2";"1";"2";"4";"2";"[1,3]";"2";"0";"1"
"1387";"28";"5";"1";"7";"1";"2";"4";"1";"[1,2,3,8]";"2";"0";"1"
"1388";"22";"6";"1";"28";"1";"2";"4";"2";"[1,2,3,29]";"2";"0";"1"
"1389";"27";"6";"1";"29";"1";"2";"4";"2";"[1,2,3,30]";"2";"0";"1"
"1390";"4";"6";"1";"2";"1";"2";"4";"2";"[1,3]";"2";"0";"1"
"1391";"28";"6";"1";"7";"1";"2";"4";"1";"[1,2,3,8]";"2";"0";"1"
"1392";"18";"6";"1";"8";"1";"2";"4";"2";"[1,2,3,9]";"2";"0";"1"
"1393";"5";"7";"1";"40";"1";"2";"4";"2";"[1,2,3]";"2";"0";"1"
"1394";"27";"7";"1";"29";"1";"2";"4";"2";"[1,2,3,30]";"2";"0";"1"
"1395";"16";"7";"1";"4";"1";"2";"4";"2";"[1,2,3,5]";"2";"0";"1"
"1396";"18";"7";"1";"8";"1";"2";"4";"2";"[1,2,3,9]";"2";"0";"1"
"1397";"26";"8";"1";"31";"1";"2";"4";"2";"[1,2,3,32]";"1";"0";"1"
"1398";"5";"8";"1";"40";"1";"2";"4";"2";"[1,2,3]";"2";"0";"1"
"1399";"16";"8";"1";"4";"1";"2";"4";"2";"[1,2,3,5]";"2";"0";"1"
"1400";"6";"9";"1";"23";"1";"2";"4";"2";"[1,2,3,24]";"2";"0";"1"
"1401";"23";"9";"1";"12";"1";"2";"4";"1";"[1,2,3,13]";"2";"0";"1"
"1402";"26";"9";"1";"31";"1";"2";"4";"2";"[1,2,3,32]";"1";"0";"1"
"1403";"33";"9";"1";"22";"1";"2";"4";"2";"[1,2,3,23]";"2";"0";"1"
"1404";"36";"9";"1";"37";"1";"2";"4";"1";"[1,2,3,38]";"2";"0";"1"
"1405";"6";"10";"1";"23";"1";"2";"4";"2";"[1,2,3,24]";"2";"0";"1"
"1406";"23";"10";"1";"12";"1";"2";"4";"1";"[1,2,3,13]";"2";"0";"1"
"1407";"33";"10";"1";"22";"1";"2";"4";"2";"[1,2,3,23]";"2";"0";"1"
"1408";"36";"10";"1";"37";"1";"2";"4";"1";"[1,2,3,38]";"2";"0";"1"
"1409";"20";"13";"1";"16";"1";"2";"4";"2";"[1,2,3,17]";"1";"0";"1"
"1410";"12";"14";"1";"25";"1";"2";"4";"1";"[1,2,3,26]";"2";"0";"1"
"1411";"20";"14";"1";"16";"1";"2";"4";"2";"[1,2,3,17]";"1";"0";"1"
"1412";"12";"15";"1";"25";"1";"2";"4";"1";"[1,2,3,26]";"2";"0";"1"
"1413";"3";"1";"1";"14";"1";"2";"5";"2";"[1,2,3,15]";"2";"0";"1"
"1414";"21";"1";"1";"18";"1";"2";"5";"2";"[1,2,3,19]";"2";"0";"1"
"1415";"34";"1";"1";"35";"1";"2";"5";"2";"[1,2,3,36]";"2";"0";"1"
"1416";"33";"1";"1";"22";"1";"2";"5";"2";"[1,2,3,23]";"2";"0";"1"
"1417";"11";"1";"1";"21";"1";"2";"5";"2";"[1,2,3,22]";"2";"0";"1"
"1418";"25";"1";"1";"24";"1";"2";"5";"1";"[1,2,3,25]";"2";"0";"1"
"1419";"6";"1";"1";"23";"1";"2";"5";"2";"[1,2,3,24]";"2";"0";"1"
"1420";"8";"1";"1";"15";"1";"2";"5";"1";"[1,2,3,16]";"2";"0";"1"
"1421";"30";"1";"1";"13";"1";"2";"5";"2";"[1,2,3,14]";"2";"0";"1"
"1422";"37";"2";"1";"26";"1";"2";"5";"1";"[1,2,3,27]";"2";"0";"1"
"1423";"27";"2";"1";"29";"1";"2";"5";"2";"[1,2,3,30]";"2";"0";"1"
"1424";"19";"2";"1";"3";"1";"2";"5";"2";"[1,2,4]";"2";"0";"1"
"1425";"7";"2";"1";"17";"1";"2";"5";"2";"[1,2,3,18]";"2";"0";"1"
"1426";"29";"2";"1";"11";"1";"2";"5";"2";"[1,2,3,12]";"2";"0";"1"
"1427";"31";"2";"1";"34";"1";"2";"5";"2";"[1,2,3,35]";"1";"0";"1"
"1428";"3";"2";"1";"14";"1";"2";"5";"2";"[1,2,3,15]";"2";"0";"1"
"1429";"21";"2";"1";"18";"1";"2";"5";"2";"[1,2,3,19]";"2";"0";"1"
"1430";"15";"2";"1";"5";"1";"2";"5";"2";"[1,2,3,6]";"2";"0";"1"
"1431";"34";"2";"1";"35";"1";"2";"5";"2";"[1,2,3,36]";"2";"0";"1"
"1432";"9";"2";"1";"19";"1";"2";"5";"1";"[1,2,3,20]";"2";"0";"1"
"1433";"33";"2";"1";"22";"1";"2";"5";"2";"[1,2,3,23]";"2";"0";"1"
"1434";"11";"2";"1";"21";"1";"2";"5";"2";"[1,2,3,22]";"2";"0";"1"
"1435";"28";"2";"1";"7";"1";"2";"5";"1";"[1,2,3,8]";"2";"0";"1"
"1436";"25";"2";"1";"24";"1";"2";"5";"1";"[1,2,3,25]";"2";"0";"1"
"1437";"38";"2";"1";"36";"1";"2";"5";"1";"[1,2,3,37]";"2";"0";"1"
"1438";"40";"2";"1";"10";"1";"2";"5";"2";"[1,2,3,11]";"2";"0";"1"
"1439";"6";"2";"1";"23";"1";"2";"5";"2";"[1,2,3,24]";"2";"0";"1"
"1440";"39";"2";"1";"6";"1";"2";"5";"1";"[1,2,3,7]";"2";"0";"1"
"1441";"8";"2";"1";"15";"1";"2";"5";"1";"[1,2,3,16]";"2";"0";"1"
"1442";"30";"3";"1";"13";"1";"2";"5";"2";"[1,2,3,14]";"2";"0";"1"
"1443";"37";"3";"1";"26";"1";"2";"5";"1";"[1,2,3,27]";"2";"0";"1"
"1444";"27";"3";"1";"29";"1";"2";"5";"2";"[1,2,3,30]";"2";"0";"1"
"1445";"19";"3";"1";"3";"1";"2";"5";"2";"[1,2,4]";"2";"0";"1"
"1446";"7";"3";"1";"17";"1";"2";"5";"2";"[1,2,3,18]";"2";"0";"1"
"1447";"22";"3";"1";"28";"1";"2";"5";"2";"[1,2,3,29]";"2";"0";"1"
"1448";"29";"3";"1";"11";"1";"2";"5";"2";"[1,2,3,12]";"2";"0";"1"
"1449";"31";"3";"1";"34";"1";"2";"5";"2";"[1,2,3,35]";"1";"0";"1"
"1450";"15";"3";"1";"5";"1";"2";"5";"2";"[1,2,3,6]";"2";"0";"1"
"1451";"9";"3";"1";"19";"1";"2";"5";"1";"[1,2,3,20]";"2";"0";"1"
"1452";"28";"3";"1";"7";"1";"2";"5";"1";"[1,2,3,8]";"2";"0";"1"
"1453";"38";"3";"1";"36";"1";"2";"5";"1";"[1,2,3,37]";"2";"0";"1"
"1454";"12";"3";"1";"25";"1";"2";"5";"1";"[1,2,3,26]";"2";"0";"1"
"1455";"40";"3";"1";"10";"1";"2";"5";"2";"[1,2,3,11]";"2";"0";"1"
"1456";"39";"3";"1";"6";"1";"2";"5";"1";"[1,2,3,7]";"2";"0";"1"
"1457";"18";"3";"1";"8";"1";"2";"5";"2";"[1,2,3,9]";"2";"0";"1"
"1458";"14";"3";"1";"20";"1";"2";"5";"1";"[1,2,3,21]";"2";"0";"1"
"1459";"36";"3";"1";"37";"1";"2";"5";"1";"[1,2,3,38]";"2";"0";"1"
"1460";"1";"3";"1";"1";"1";"2";"5";"2";"[2,3]";"2";"0";"1"
"1461";"2";"4";"1";"27";"1";"2";"5";"1";"[1,2,3,28]";"2";"0";"1"
"1462";"17";"4";"1";"38";"1";"2";"5";"2";"[1,2,3,39]";"2";"0";"1"
"1463";"22";"4";"1";"28";"1";"2";"5";"2";"[1,2,3,29]";"2";"0";"1"
"1464";"12";"4";"1";"25";"1";"2";"5";"1";"[1,2,3,26]";"2";"0";"1"
"1465";"18";"4";"1";"8";"1";"2";"5";"2";"[1,2,3,9]";"2";"0";"1"
"1466";"14";"4";"1";"20";"1";"2";"5";"1";"[1,2,3,21]";"2";"0";"1"
"1467";"36";"4";"1";"37";"1";"2";"5";"1";"[1,2,3,38]";"2";"0";"1"
"1468";"24";"4";"1";"9";"1";"2";"5";"2";"[1,2,3,10]";"2";"0";"1"
"1469";"1";"4";"1";"1";"1";"2";"5";"2";"[2,3]";"2";"0";"1"
"1470";"2";"5";"1";"27";"1";"2";"5";"1";"[1,2,3,28]";"2";"0";"1"
"1471";"17";"5";"1";"38";"1";"2";"5";"2";"[1,2,3,39]";"2";"0";"1"
"1472";"10";"5";"1";"32";"1";"2";"5";"2";"[1,2,3,33]";"2";"0";"1"
"1473";"24";"5";"1";"9";"1";"2";"5";"2";"[1,2,3,10]";"2";"0";"1"
"1474";"20";"6";"1";"16";"1";"2";"5";"2";"[1,2,3,17]";"2";"0";"1"
"1475";"5";"6";"1";"40";"1";"2";"5";"2";"[1,2,3]";"2";"0";"1"
"1476";"16";"6";"1";"4";"1";"2";"5";"2";"[1,2,3,5]";"2";"0";"1"
"1477";"10";"6";"1";"32";"1";"2";"5";"2";"[1,2,3,33]";"2";"0";"1"
"1478";"26";"6";"1";"31";"1";"2";"5";"2";"[1,2,3,32]";"1";"0";"1"
"1479";"20";"7";"1";"16";"1";"2";"5";"2";"[1,2,3,17]";"2";"0";"1"
"1480";"13";"7";"1";"39";"1";"2";"5";"1";"[1,2,3,40]";"2";"0";"1"
"1481";"5";"7";"1";"40";"1";"2";"5";"2";"[1,2,3]";"2";"0";"1"
"1482";"16";"7";"1";"4";"1";"2";"5";"2";"[1,2,3,5]";"2";"0";"1"
"1483";"26";"7";"1";"31";"1";"2";"5";"2";"[1,2,3,32]";"1";"0";"1"
"1484";"32";"8";"1";"33";"1";"2";"5";"2";"[1,2,3,34]";"2";"0";"1"
"1485";"13";"8";"1";"39";"1";"2";"5";"1";"[1,2,3,40]";"2";"0";"1"
"1486";"32";"9";"1";"33";"1";"2";"5";"2";"[1,2,3,34]";"2";"0";"1"
"1487";"4";"11";"1";"2";"1";"2";"5";"2";"[1,3]";"2";"0";"1"
"1488";"23";"11";"1";"12";"1";"2";"5";"1";"[1,2,3,13]";"2";"0";"1"
"1489";"4";"12";"1";"2";"1";"2";"5";"2";"[1,3]";"2";"0";"1"
"1490";"23";"12";"1";"12";"1";"2";"5";"1";"[1,2,3,13]";"2";"0";"1"
"1491";"35";"25";"1";"30";"1";"2";"5";"2";"[1,2,3,31]";"2";"0";"1"
"1492";"35";"26";"1";"30";"1";"2";"5";"2";"[1,2,3,31]";"2";"0";"1"
"1493";"13";"1";"1";"39";"1";"2";"6";"1";"[1,2,3,40]";"1";"0";"1"
"1494";"37";"1";"1";"26";"1";"2";"6";"1";"[1,2,3,27]";"2";"0";"1"
"1495";"21";"1";"1";"18";"1";"2";"6";"2";"[1,2,3,19]";"2";"0";"1"
"1496";"31";"1";"1";"34";"1";"2";"6";"2";"[1,2,3,35]";"2";"0";"1"
"1497";"11";"1";"1";"21";"1";"2";"6";"2";"[1,2,3,22]";"2";"0";"1"
"1498";"27";"1";"1";"29";"1";"2";"6";"2";"[1,2,3,30]";"2";"0";"1"
"1499";"6";"1";"1";"23";"1";"2";"6";"2";"[1,2,3,24]";"2";"0";"1"
"1500";"14";"2";"1";"20";"1";"2";"6";"1";"[1,2,3,21]";"2";"0";"1"
"1501";"25";"2";"1";"24";"1";"2";"6";"1";"[1,2,3,25]";"2";"0";"1"
"1502";"3";"2";"1";"14";"1";"2";"6";"2";"[1,2,3,15]";"2";"0";"1"
"1503";"15";"2";"1";"5";"1";"2";"6";"2";"[1,2,3,6]";"2";"0";"1"
"1504";"8";"2";"1";"15";"1";"2";"6";"1";"[1,2,3,16]";"2";"0";"1"
"1505";"29";"2";"1";"11";"1";"2";"6";"2";"[1,2,3,12]";"2";"0";"1"
"1506";"30";"2";"1";"13";"1";"2";"6";"2";"[1,2,3,14]";"2";"0";"1"
"1507";"39";"2";"1";"6";"1";"2";"6";"1";"[1,2,3,7]";"2";"0";"1"
"1508";"13";"2";"1";"39";"1";"2";"6";"1";"[1,2,3,40]";"1";"0";"1"
"1509";"17";"2";"1";"38";"1";"2";"6";"2";"[1,2,3,39]";"2";"0";"1"
"1510";"37";"2";"1";"26";"1";"2";"6";"1";"[1,2,3,27]";"2";"0";"1"
"1511";"19";"2";"1";"3";"1";"2";"6";"2";"[1,2,4]";"2";"0";"1"
"1512";"9";"2";"1";"19";"1";"2";"6";"1";"[1,2,3,20]";"2";"0";"1"
"1513";"21";"2";"1";"18";"1";"2";"6";"2";"[1,2,3,19]";"2";"0";"1"
"1514";"31";"2";"1";"34";"1";"2";"6";"2";"[1,2,3,35]";"2";"0";"1"
"1515";"22";"2";"1";"28";"1";"2";"6";"2";"[1,2,3,29]";"2";"0";"1"
"1516";"11";"2";"1";"21";"1";"2";"6";"2";"[1,2,3,22]";"2";"0";"1"
"1517";"40";"2";"1";"10";"1";"2";"6";"2";"[1,2,3,11]";"2";"0";"1"
"1518";"27";"2";"1";"29";"1";"2";"6";"2";"[1,2,3,30]";"2";"0";"1"
"1519";"6";"2";"1";"23";"1";"2";"6";"2";"[1,2,3,24]";"2";"0";"1"
