"id";"id_subj";"time";"session";"id_grp";"grp";"round";"period";"sig";"links";"choice";"hist";"active"
"1";"20";"0";"1";"3";"3";"1";"1";"1";"[1,4,6,9]";"0";"0";"1"
"2";"21";"0";"1";"10";"1";"1";"1";"1";"[2,7,9]";"0";"0";"1"
"3";"35";"0";"1";"3";"4";"1";"1";"1";"[1,4,6,9]";"0";"0";"1"
"4";"24";"0";"1";"6";"1";"1";"1";"1";"[2,3,5,8]";"0";"0";"1"
"5";"30";"0";"1";"2";"4";"1";"1";"1";"[1,5,6,7,8,9,10]";"0";"0";"1"
"6";"25";"0";"1";"2";"1";"1";"1";"1";"[1,5,6,7,8,9,10]";"0";"0";"1"
"7";"36";"0";"1";"5";"2";"1";"1";"2";"[1,2,6]";"0";"0";"1"
"8";"12";"0";"1";"1";"3";"1";"1";"2";"[2,3,5,8,9]";"0";"0";"1"
"9";"33";"0";"1";"6";"2";"1";"1";"1";"[2,3,5,8]";"0";"0";"1"
"10";"2";"0";"1";"5";"3";"1";"1";"2";"[1,2,6]";"0";"0";"1"
"11";"5";"0";"1";"9";"1";"1";"1";"1";"[1,2,3,7,10]";"0";"0";"1"
"12";"29";"0";"1";"3";"1";"1";"1";"2";"[1,4,6,9]";"0";"0";"1"
"13";"39";"0";"1";"4";"1";"1";"1";"2";"[3,7]";"0";"0";"1"
"14";"27";"0";"1";"6";"4";"1";"1";"1";"[2,3,5,8]";"0";"0";"1"
"15";"17";"0";"1";"4";"3";"1";"1";"2";"[3,7]";"0";"0";"1"
"16";"13";"0";"1";"10";"3";"1";"1";"2";"[2,7,9]";"0";"0";"1"
"17";"32";"0";"1";"1";"2";"1";"1";"2";"[2,3,5,8,9]";"0";"0";"1"
"18";"18";"0";"1";"4";"4";"1";"1";"1";"[3,7]";"0";"0";"1"
"19";"4";"0";"1";"7";"1";"1";"1";"1";"[2,4,9,10]";"0";"0";"1"
"20";"37";"0";"1";"1";"4";"1";"1";"1";"[2,3,5,8,9]";"0";"0";"1"
"21";"16";"0";"1";"10";"2";"1";"1";"2";"[2,7,9]";"0";"0";"1"
"22";"31";"0";"1";"2";"2";"1";"1";"1";"[1,5,6,7,8,9,10]";"0";"0";"1"
"23";"38";"0";"1";"9";"2";"1";"1";"1";"[1,2,3,7,10]";"0";"0";"1"
"24";"28";"0";"1";"4";"2";"1";"1";"2";"[3,7]";"0";"0";"1"
"25";"14";"0";"1";"7";"2";"1";"1";"1";"[2,4,9,10]";"0";"0";"1"
"26";"15";"0";"1";"9";"3";"1";"1";"2";"[1,2,3,7,10]";"0";"0";"1"
"27";"6";"0";"1";"2";"3";"1";"1";"1";"[1,5,6,7,8,9,10]";"0";"0";"1"
"28";"7";"0";"1";"5";"4";"1";"1";"1";"[1,2,6]";"0";"0";"1"
"29";"23";"0";"1";"5";"1";"1";"1";"1";"[1,2,6]";"0";"0";"1"
"30";"9";"0";"1";"10";"4";"1";"1";"1";"[2,7,9]";"0";"0";"1"
"31";"34";"0";"1";"8";"1";"1";"1";"2";"[1,2,6]";"0";"0";"1"
"32";"1";"0";"1";"8";"4";"1";"1";"1";"[1,2,6]";"0";"0";"1"
"33";"8";"0";"1";"7";"3";"1";"1";"2";"[2,4,9,10]";"0";"0";"1"
"34";"19";"0";"1";"7";"4";"1";"1";"1";"[2,4,9,10]";"0";"0";"1"
"35";"10";"0";"1";"8";"3";"1";"1";"2";"[1,2,6]";"0";"0";"1"
"36";"26";"0";"1";"6";"3";"1";"1";"2";"[2,3,5,8]";"0";"0";"1"
"37";"40";"0";"1";"3";"2";"1";"1";"1";"[1,4,6,9]";"0";"0";"1"
"38";"11";"0";"1";"9";"4";"1";"1";"2";"[1,2,3,7,10]";"0";"0";"1"
"39";"22";"0";"1";"8";"2";"1";"1";"2";"[1,2,6]";"0";"0";"1"
"40";"3";"0";"1";"1";"1";"1";"1";"2";"[2,3,5,8,9]";"0";"0";"1"
"41";"39";"4";"1";"4";"1";"1";"1";"2";"[3,7]";"2";"0";"1"
"42";"39";"5";"1";"4";"1";"1";"1";"2";"[3,7]";"2";"0";"1"
"43";"35";"5";"1";"3";"4";"1";"1";"1";"[1,4,6,9]";"1";"0";"1"
"44";"19";"5";"1";"7";"4";"1";"1";"1";"[2,4,9,10]";"1";"0";"1"
"45";"37";"5";"1";"1";"4";"1";"1";"1";"[2,3,5,8,9]";"1";"0";"1"
"46";"31";"5";"1";"2";"2";"1";"1";"1";"[1,5,6,7,8,9,10]";"1";"0";"1"
"47";"29";"6";"1";"3";"1";"1";"1";"2";"[1,4,6,9]";"2";"0";"1"
"48";"6";"6";"1";"2";"3";"1";"1";"1";"[1,5,6,7,8,9,10]";"1";"0";"1"
"49";"34";"6";"1";"8";"1";"1";"1";"2";"[1,2,6]";"2";"0";"1"
"50";"22";"6";"1";"8";"2";"1";"1";"2";"[1,2,6]";"2";"0";"1"
"51";"35";"6";"1";"3";"4";"1";"1";"1";"[1,4,6,9]";"1";"0";"1"
"52";"19";"6";"1";"7";"4";"1";"1";"1";"[2,4,9,10]";"1";"0";"1"
"53";"9";"6";"1";"10";"4";"1";"1";"1";"[2,7,9]";"1";"0";"1"
"54";"37";"6";"1";"1";"4";"1";"1";"1";"[2,3,5,8,9]";"1";"0";"1"
"55";"31";"6";"1";"2";"2";"1";"1";"1";"[1,5,6,7,8,9,10]";"1";"0";"1"
"56";"20";"7";"1";"3";"3";"1";"1";"1";"[1,4,6,9]";"1";"0";"1"
"57";"29";"7";"1";"3";"1";"1";"1";"2";"[1,4,6,9]";"2";"0";"1"
"58";"6";"7";"1";"2";"3";"1";"1";"1";"[1,5,6,7,8,9,10]";"1";"0";"1"
"59";"10";"7";"1";"8";"3";"1";"1";"2";"[1,2,6]";"2";"0";"1"
"60";"17";"7";"1";"4";"3";"1";"1";"2";"[3,7]";"2";"0";"1"
"61";"34";"7";"1";"8";"1";"1";"1";"2";"[1,2,6]";"2";"0";"1"
"62";"22";"7";"1";"8";"2";"1";"1";"2";"[1,2,6]";"2";"0";"1"
"63";"9";"7";"1";"10";"4";"1";"1";"1";"[2,7,9]";"1";"0";"1"
"64";"21";"7";"1";"10";"1";"1";"1";"1";"[2,7,9]";"1";"0";"1"
"65";"20";"8";"1";"3";"3";"1";"1";"1";"[1,4,6,9]";"1";"0";"1"
"66";"10";"8";"1";"8";"3";"1";"1";"2";"[1,2,6]";"2";"0";"1"
"67";"17";"8";"1";"4";"3";"1";"1";"2";"[3,7]";"2";"0";"1"
"68";"11";"8";"1";"9";"4";"1";"1";"2";"[1,2,3,7,10]";"2";"0";"1"
"69";"1";"8";"1";"8";"4";"1";"1";"1";"[1,2,6]";"1";"0";"1"
"70";"4";"8";"1";"7";"1";"1";"1";"1";"[2,4,9,10]";"2";"0";"1"
"71";"21";"8";"1";"10";"1";"1";"1";"1";"[2,7,9]";"1";"0";"1"
"72";"24";"8";"1";"6";"1";"1";"1";"1";"[2,3,5,8]";"1";"0";"1"
"73";"27";"9";"1";"6";"4";"1";"1";"1";"[2,3,5,8]";"1";"0";"1"
"74";"36";"9";"1";"5";"2";"1";"1";"2";"[1,2,6]";"2";"0";"1"
"75";"33";"9";"1";"6";"2";"1";"1";"1";"[2,3,5,8]";"1";"0";"1"
"76";"11";"9";"1";"9";"4";"1";"1";"2";"[1,2,3,7,10]";"2";"0";"1"
"77";"32";"9";"1";"1";"2";"1";"1";"2";"[2,3,5,8,9]";"2";"0";"1"
"78";"1";"9";"1";"8";"4";"1";"1";"1";"[1,2,6]";"1";"0";"1"
"79";"4";"9";"1";"7";"1";"1";"1";"1";"[2,4,9,10]";"2";"0";"1"
"80";"24";"9";"1";"6";"1";"1";"1";"1";"[2,3,5,8]";"1";"0";"1"
"81";"13";"9";"1";"10";"3";"1";"1";"2";"[2,7,9]";"2";"0";"1"
"82";"27";"10";"1";"6";"4";"1";"1";"1";"[2,3,5,8]";"1";"0";"1"
"83";"36";"10";"1";"5";"2";"1";"1";"2";"[1,2,6]";"2";"0";"1"
"84";"33";"10";"1";"6";"2";"1";"1";"1";"[2,3,5,8]";"1";"0";"1"
"85";"28";"10";"1";"4";"2";"1";"1";"2";"[3,7]";"2";"0";"1"
"86";"14";"10";"1";"7";"2";"1";"1";"1";"[2,4,9,10]";"1";"0";"1"
"87";"32";"10";"1";"1";"2";"1";"1";"2";"[2,3,5,8,9]";"2";"0";"1"
"88";"13";"10";"1";"10";"3";"1";"1";"2";"[2,7,9]";"2";"0";"1"
"89";"28";"11";"1";"4";"2";"1";"1";"2";"[3,7]";"2";"0";"1"
"90";"14";"11";"1";"7";"2";"1";"1";"1";"[2,4,9,10]";"1";"0";"1"
"91";"12";"11";"1";"1";"3";"1";"1";"2";"[2,3,5,8,9]";"1";"0";"1"
"92";"5";"11";"1";"9";"1";"1";"1";"1";"[1,2,3,7,10]";"1";"0";"1"
"93";"40";"12";"1";"3";"2";"1";"1";"1";"[1,4,6,9]";"1";"0";"1"
"94";"12";"12";"1";"1";"3";"1";"1";"2";"[2,3,5,8,9]";"1";"0";"1"
"95";"5";"12";"1";"9";"1";"1";"1";"1";"[1,2,3,7,10]";"1";"0";"1"
"96";"7";"13";"1";"5";"4";"1";"1";"1";"[1,2,6]";"1";"0";"1"
"97";"30";"13";"1";"2";"4";"1";"1";"1";"[1,5,6,7,8,9,10]";"1";"0";"1"
"98";"40";"13";"1";"3";"2";"1";"1";"1";"[1,4,6,9]";"1";"0";"1"
"99";"2";"13";"1";"5";"3";"1";"1";"2";"[1,2,6]";"2";"0";"1"
"100";"3";"13";"1";"1";"1";"1";"1";"2";"[2,3,5,8,9]";"2";"0";"1"
"101";"18";"13";"1";"4";"4";"1";"1";"1";"[3,7]";"1";"0";"1"
"102";"7";"14";"1";"5";"4";"1";"1";"1";"[1,2,6]";"1";"0";"1"
"103";"30";"14";"1";"2";"4";"1";"1";"1";"[1,5,6,7,8,9,10]";"1";"0";"1"
"104";"2";"14";"1";"5";"3";"1";"1";"2";"[1,2,6]";"2";"0";"1"
"105";"3";"14";"1";"1";"1";"1";"1";"2";"[2,3,5,8,9]";"2";"0";"1"
"106";"18";"14";"1";"4";"4";"1";"1";"1";"[3,7]";"1";"0";"1"
"107";"16";"15";"1";"10";"2";"1";"1";"2";"[2,7,9]";"2";"0";"1"
"108";"26";"15";"1";"6";"3";"1";"1";"2";"[2,3,5,8]";"2";"0";"1"
"109";"16";"16";"1";"10";"2";"1";"1";"2";"[2,7,9]";"2";"0";"1"
"110";"26";"16";"1";"6";"3";"1";"1";"2";"[2,3,5,8]";"2";"0";"1"
"111";"15";"16";"1";"9";"3";"1";"1";"2";"[1,2,3,7,10]";"2";"0";"1"
"112";"23";"17";"1";"5";"1";"1";"1";"1";"[1,2,6]";"1";"0";"1"
"113";"15";"17";"1";"9";"3";"1";"1";"2";"[1,2,3,7,10]";"2";"0";"1"
"114";"23";"18";"1";"5";"1";"1";"1";"1";"[1,2,6]";"1";"0";"1"
"115";"25";"18";"1";"2";"1";"1";"1";"1";"[1,5,6,7,8,9,10]";"2";"0";"1"
"116";"8";"18";"1";"7";"3";"1";"1";"2";"[2,4,9,10]";"2";"0";"1"
"117";"25";"19";"1";"2";"1";"1";"1";"1";"[1,5,6,7,8,9,10]";"2";"0";"1"
"118";"8";"19";"1";"7";"3";"1";"1";"2";"[2,4,9,10]";"2";"0";"1"
"119";"38";"31";"1";"9";"2";"1";"1";"1";"[1,2,3,7,10]";"0";"0";"1"
"120";"0";"30";"1";"9";"2";"1";"1";"1";"[1,2,3,7,10]";"1";"0";"0"
"121";"17";"33";"1";"4";"3";"1";"2";"2";"[3,7]";"2";"0";"1"
"122";"35";"33";"1";"3";"4";"1";"2";"1";"[1,4,6,9]";"1";"0";"1"
"123";"17";"34";"1";"4";"3";"1";"2";"2";"[3,7]";"2";"0";"1"
"124";"35";"34";"1";"3";"4";"1";"2";"1";"[1,4,6,9]";"1";"0";"1"
"125";"28";"36";"1";"4";"2";"1";"2";"2";"[3,7]";"1";"0";"1"
"126";"30";"36";"1";"2";"4";"1";"2";"1";"[1,5,6,7,8,9,10]";"1";"0";"1"
"127";"15";"36";"1";"9";"3";"1";"2";"2";"[1,2,3,7,10]";"2";"0";"1"
"128";"26";"36";"1";"6";"3";"1";"2";"2";"[2,3,5,8]";"2";"0";"1"
"129";"23";"6";"1";"5";"1";"1";"2";"1";"[1,2,6]";"1";"0";"1"
"130";"28";"37";"1";"4";"2";"1";"2";"2";"[3,7]";"1";"0";"1"
"131";"30";"37";"1";"2";"4";"1";"2";"1";"[1,5,6,7,8,9,10]";"1";"0";"1"
"132";"36";"37";"1";"5";"2";"1";"2";"2";"[1,2,6]";"1";"0";"1"
"133";"15";"37";"1";"9";"3";"1";"2";"2";"[1,2,3,7,10]";"2";"0";"1"
"134";"26";"37";"1";"6";"3";"1";"2";"2";"[2,3,5,8]";"2";"0";"1"
"135";"39";"7";"1";"4";"1";"1";"2";"2";"[3,7]";"2";"0";"1"
"136";"27";"38";"1";"6";"4";"1";"2";"1";"[2,3,5,8]";"1";"0";"1"
"137";"5";"7";"1";"9";"1";"1";"2";"1";"[1,2,3,7,10]";"2";"0";"1"
"138";"23";"7";"1";"5";"1";"1";"2";"1";"[1,2,6]";"1";"0";"1"
"139";"19";"38";"1";"7";"4";"1";"2";"1";"[2,4,9,10]";"1";"0";"1"
"140";"36";"38";"1";"5";"2";"1";"2";"2";"[1,2,6]";"1";"0";"1"
"141";"38";"39";"1";"9";"2";"1";"2";"1";"[1,2,3,7,10]";"1";"0";"1"
"142";"39";"8";"1";"4";"1";"1";"2";"2";"[3,7]";"2";"0";"1"
"143";"27";"39";"1";"6";"4";"1";"2";"1";"[2,3,5,8]";"1";"0";"1"
"144";"6";"39";"1";"2";"3";"1";"2";"1";"[1,5,6,7,8,9,10]";"2";"0";"1"
"145";"5";"8";"1";"9";"1";"1";"2";"1";"[1,2,3,7,10]";"2";"0";"1"
"146";"19";"39";"1";"7";"4";"1";"2";"1";"[2,4,9,10]";"1";"0";"1"
"147";"33";"39";"1";"6";"2";"1";"2";"1";"[2,3,5,8]";"1";"0";"1"
"148";"38";"40";"1";"9";"2";"1";"2";"1";"[1,2,3,7,10]";"1";"0";"1"
"149";"6";"40";"1";"2";"3";"1";"2";"1";"[1,5,6,7,8,9,10]";"2";"0";"1"
"150";"18";"40";"1";"4";"4";"1";"2";"1";"[3,7]";"1";"0";"1"
"151";"33";"40";"1";"6";"2";"1";"2";"1";"[2,3,5,8]";"1";"0";"1"
"152";"20";"40";"1";"3";"3";"1";"2";"1";"[1,4,6,9]";"2";"0";"1"
"153";"37";"40";"1";"1";"4";"1";"2";"1";"[2,3,5,8,9]";"1";"0";"1"
"154";"25";"10";"1";"2";"1";"1";"2";"1";"[1,5,6,7,8,9,10]";"1";"0";"1"
"155";"8";"41";"1";"7";"3";"1";"2";"2";"[2,4,9,10]";"2";"0";"1"
"156";"18";"41";"1";"4";"4";"1";"2";"1";"[3,7]";"1";"0";"1"
"157";"14";"41";"1";"7";"2";"1";"2";"1";"[2,4,9,10]";"1";"0";"1"
"158";"20";"41";"1";"3";"3";"1";"2";"1";"[1,4,6,9]";"2";"0";"1"
"159";"37";"41";"1";"1";"4";"1";"2";"1";"[2,3,5,8,9]";"1";"0";"1"
"160";"11";"42";"1";"9";"4";"1";"2";"2";"[1,2,3,7,10]";"1";"0";"1"
"161";"9";"42";"1";"10";"4";"1";"2";"1";"[2,7,9]";"1";"0";"1"
"162";"4";"11";"1";"7";"1";"1";"2";"1";"[2,4,9,10]";"2";"0";"1"
"163";"25";"11";"1";"2";"1";"1";"2";"1";"[1,5,6,7,8,9,10]";"1";"0";"1"
"164";"8";"42";"1";"7";"3";"1";"2";"2";"[2,4,9,10]";"2";"0";"1"
"165";"14";"42";"1";"7";"2";"1";"2";"1";"[2,4,9,10]";"1";"0";"1"
"166";"16";"42";"1";"10";"2";"1";"2";"2";"[2,7,9]";"2";"0";"1"
"167";"11";"43";"1";"9";"4";"1";"2";"2";"[1,2,3,7,10]";"1";"0";"1"
"168";"9";"43";"1";"10";"4";"1";"2";"1";"[2,7,9]";"1";"0";"1"
"169";"4";"12";"1";"7";"1";"1";"2";"1";"[2,4,9,10]";"2";"0";"1"
"170";"24";"12";"1";"6";"1";"1";"2";"1";"[2,3,5,8]";"1";"0";"1"
"171";"16";"44";"1";"10";"2";"1";"2";"2";"[2,7,9]";"2";"0";"1"
"172";"1";"44";"1";"8";"4";"1";"2";"1";"[1,2,6]";"1";"0";"1"
"173";"29";"13";"1";"3";"1";"1";"2";"2";"[1,4,6,9]";"2";"0";"1"
"174";"12";"44";"1";"1";"3";"1";"2";"2";"[2,3,5,8,9]";"1";"0";"1"
"175";"2";"44";"1";"5";"3";"1";"2";"2";"[1,2,6]";"1";"0";"1"
"176";"24";"13";"1";"6";"1";"1";"2";"1";"[2,3,5,8]";"1";"0";"1"
"177";"21";"13";"1";"10";"1";"1";"2";"1";"[2,7,9]";"2";"0";"1"
"178";"13";"45";"1";"10";"3";"1";"2";"2";"[2,7,9]";"2";"0";"1"
"179";"1";"45";"1";"8";"4";"1";"2";"1";"[1,2,6]";"1";"0";"1"
"180";"10";"45";"1";"8";"3";"1";"2";"2";"[1,2,6]";"1";"0";"1"
"181";"29";"14";"1";"3";"1";"1";"2";"2";"[1,4,6,9]";"2";"0";"1"
"182";"12";"45";"1";"1";"3";"1";"2";"2";"[2,3,5,8,9]";"1";"0";"1"
"183";"2";"45";"1";"5";"3";"1";"2";"2";"[1,2,6]";"1";"0";"1"
"184";"21";"14";"1";"10";"1";"1";"2";"1";"[2,7,9]";"2";"0";"1"
"185";"34";"14";"1";"8";"1";"1";"2";"2";"[1,2,6]";"2";"0";"1"
"186";"13";"46";"1";"10";"3";"1";"2";"2";"[2,7,9]";"2";"0";"1"
"187";"10";"46";"1";"8";"3";"1";"2";"2";"[1,2,6]";"1";"0";"1"
"188";"31";"46";"1";"2";"2";"1";"2";"1";"[1,5,6,7,8,9,10]";"1";"0";"1"
"189";"7";"46";"1";"5";"4";"1";"2";"1";"[1,2,6]";"1";"0";"1"
"190";"34";"15";"1";"8";"1";"1";"2";"2";"[1,2,6]";"2";"0";"1"
"191";"31";"47";"1";"2";"2";"1";"2";"1";"[1,5,6,7,8,9,10]";"1";"0";"1"
"192";"7";"47";"1";"5";"4";"1";"2";"1";"[1,2,6]";"1";"0";"1"
"193";"40";"50";"1";"3";"2";"1";"2";"1";"[1,4,6,9]";"1";"0";"1"
"194";"32";"51";"1";"1";"2";"1";"2";"2";"[2,3,5,8,9]";"2";"0";"1"
"195";"40";"51";"1";"3";"2";"1";"2";"1";"[1,4,6,9]";"1";"0";"1"
"196";"32";"52";"1";"1";"2";"1";"2";"2";"[2,3,5,8,9]";"2";"0";"1"
"197";"3";"21";"1";"1";"1";"1";"2";"2";"[2,3,5,8,9]";"1";"0";"1"
"198";"3";"22";"1";"1";"1";"1";"2";"2";"[2,3,5,8,9]";"1";"0";"1"
"199";"22";"53";"1";"8";"2";"1";"2";"2";"[1,2,6]";"2";"0";"1"
"200";"19";"54";"1";"7";"4";"1";"2";"1";"[2,4,9,10]";"1";"2";"1"
"201";"22";"54";"1";"8";"2";"1";"2";"2";"[1,2,6]";"2";"0";"1"
"202";"33";"56";"1";"6";"2";"1";"3";"1";"[2,3,5,8]";"1";"0";"1"
"203";"30";"56";"1";"2";"4";"1";"3";"1";"[1,5,6,7,8,9,10]";"1";"0";"1"
"204";"23";"3";"1";"5";"1";"1";"3";"1";"[1,2,6]";"1";"0";"1"
"205";"35";"57";"1";"3";"4";"1";"3";"1";"[1,4,6,9]";"1";"0";"1"
"206";"33";"57";"1";"6";"2";"1";"3";"1";"[2,3,5,8]";"1";"0";"1"
"207";"1";"57";"1";"8";"4";"1";"3";"1";"[1,2,6]";"1";"0";"1"
"208";"17";"57";"1";"4";"3";"1";"3";"2";"[3,7]";"2";"0";"1"
"209";"30";"57";"1";"2";"4";"1";"3";"1";"[1,5,6,7,8,9,10]";"1";"0";"1"
"210";"20";"57";"1";"3";"3";"1";"3";"1";"[1,4,6,9]";"2";"0";"1"
"211";"23";"4";"1";"5";"1";"1";"3";"1";"[1,2,6]";"1";"0";"1"
"212";"4";"4";"1";"7";"1";"1";"3";"1";"[2,4,9,10]";"2";"0";"1"
"213";"35";"58";"1";"3";"4";"1";"3";"1";"[1,4,6,9]";"1";"0";"1"
"214";"1";"58";"1";"8";"4";"1";"3";"1";"[1,2,6]";"1";"0";"1"
"215";"17";"58";"1";"4";"3";"1";"3";"2";"[3,7]";"2";"0";"1"
"216";"20";"58";"1";"3";"3";"1";"3";"1";"[1,4,6,9]";"2";"0";"1"
"217";"32";"59";"1";"1";"2";"1";"3";"2";"[2,3,5,8,9]";"1";"0";"1"
"218";"4";"5";"1";"7";"1";"1";"3";"1";"[2,4,9,10]";"2";"0";"1"
"219";"24";"5";"1";"6";"1";"1";"3";"1";"[2,3,5,8]";"1";"0";"1"
"220";"29";"5";"1";"3";"1";"1";"3";"2";"[1,4,6,9]";"2";"0";"1"
"221";"27";"59";"1";"6";"4";"1";"3";"1";"[2,3,5,8]";"1";"0";"1"
"222";"28";"60";"1";"4";"2";"1";"3";"2";"[3,7]";"1";"0";"1"
"223";"32";"60";"1";"1";"2";"1";"3";"2";"[2,3,5,8,9]";"1";"0";"1"
"224";"34";"6";"1";"8";"1";"1";"3";"2";"[1,2,6]";"0";"1";"1"
"225";"15";"60";"1";"9";"3";"1";"3";"2";"[1,2,3,7,10]";"2";"0";"1"
"226";"14";"60";"1";"7";"2";"1";"3";"1";"[2,4,9,10]";"0";"1";"1"
"227";"39";"6";"1";"4";"1";"1";"3";"2";"[3,7]";"2";"0";"1"
"228";"24";"6";"1";"6";"1";"1";"3";"1";"[2,3,5,8]";"1";"0";"1"
"229";"29";"6";"1";"3";"1";"1";"3";"2";"[1,4,6,9]";"2";"0";"1"
"230";"27";"60";"1";"6";"4";"1";"3";"1";"[2,3,5,8]";"1";"0";"1"
"231";"28";"61";"1";"4";"2";"1";"3";"2";"[3,7]";"1";"0";"1"
"232";"13";"61";"1";"10";"3";"1";"3";"2";"[2,7,9]";"2";"0";"1"
"233";"37";"61";"1";"1";"4";"1";"3";"1";"[2,3,5,8,9]";"1";"0";"1"
"234";"15";"61";"1";"9";"3";"1";"3";"2";"[1,2,3,7,10]";"2";"0";"1"
"235";"34";"7";"1";"8";"1";"1";"3";"2";"[1,2,6]";"0";"2";"1"
"236";"39";"7";"1";"4";"1";"1";"3";"2";"[3,7]";"2";"0";"1"
"237";"13";"62";"1";"10";"3";"1";"3";"2";"[2,7,9]";"2";"0";"1"
"238";"14";"62";"1";"7";"2";"1";"3";"1";"[2,4,9,10]";"0";"2";"1"
"239";"37";"62";"1";"1";"4";"1";"3";"1";"[2,3,5,8,9]";"1";"0";"1"
"240";"9";"62";"1";"10";"4";"1";"3";"1";"[2,7,9]";"1";"0";"1"
"241";"34";"9";"1";"8";"1";"1";"3";"2";"[1,2,6]";"0";"1";"1"
"242";"9";"63";"1";"10";"4";"1";"3";"1";"[2,7,9]";"1";"0";"1"
"243";"25";"9";"1";"2";"1";"1";"3";"1";"[1,5,6,7,8,9,10]";"1";"0";"1"
"244";"36";"63";"1";"5";"2";"1";"3";"2";"[1,2,6]";"1";"0";"1"
"245";"34";"10";"1";"8";"1";"1";"3";"2";"[1,2,6]";"0";"2";"1"
"246";"19";"64";"1";"7";"4";"1";"3";"1";"[2,4,9,10]";"1";"0";"1"
"247";"18";"64";"1";"4";"4";"1";"3";"1";"[3,7]";"1";"0";"1"
"248";"25";"10";"1";"2";"1";"1";"3";"1";"[1,5,6,7,8,9,10]";"1";"0";"1"
"249";"36";"64";"1";"5";"2";"1";"3";"2";"[1,2,6]";"1";"0";"1"
"250";"19";"65";"1";"7";"4";"1";"3";"1";"[2,4,9,10]";"1";"0";"1"
"251";"21";"11";"1";"10";"1";"1";"3";"1";"[2,7,9]";"2";"0";"1"
"252";"18";"65";"1";"4";"4";"1";"3";"1";"[3,7]";"1";"0";"1"
"253";"16";"65";"1";"10";"2";"1";"3";"2";"[2,7,9]";"1";"0";"1"
"254";"14";"66";"1";"7";"2";"1";"3";"1";"[2,4,9,10]";"1";"2";"1"
"255";"7";"66";"1";"5";"4";"1";"3";"1";"[1,2,6]";"1";"0";"1"
"256";"12";"66";"1";"1";"3";"1";"3";"2";"[2,3,5,8,9]";"1";"0";"1"
"257";"31";"66";"1";"2";"2";"1";"3";"1";"[1,5,6,7,8,9,10]";"1";"0";"1"
"258";"8";"66";"1";"7";"3";"1";"3";"2";"[2,4,9,10]";"2";"0";"1"
"259";"21";"12";"1";"10";"1";"1";"3";"1";"[2,7,9]";"2";"0";"1"
"260";"16";"66";"1";"10";"2";"1";"3";"2";"[2,7,9]";"1";"0";"1"
"261";"14";"67";"1";"7";"2";"1";"3";"1";"[2,4,9,10]";"1";"2";"1"
"262";"34";"13";"1";"8";"1";"1";"3";"2";"[1,2,6]";"0";"1";"1"
"263";"38";"67";"1";"9";"2";"1";"3";"1";"[1,2,3,7,10]";"1";"0";"1"
"264";"7";"67";"1";"5";"4";"1";"3";"1";"[1,2,6]";"1";"0";"1"
"265";"12";"67";"1";"1";"3";"1";"3";"2";"[2,3,5,8,9]";"1";"0";"1"
"266";"31";"67";"1";"2";"2";"1";"3";"1";"[1,5,6,7,8,9,10]";"1";"0";"1"
"267";"8";"67";"1";"7";"3";"1";"3";"2";"[2,4,9,10]";"2";"0";"1"
"268";"6";"67";"1";"2";"3";"1";"3";"1";"[1,5,6,7,8,9,10]";"2";"0";"1"
"269";"34";"14";"1";"8";"1";"1";"3";"2";"[1,2,6]";"0";"2";"1"
"270";"38";"68";"1";"9";"2";"1";"3";"1";"[1,2,3,7,10]";"1";"0";"1"
"271";"6";"68";"1";"2";"3";"1";"3";"1";"[1,5,6,7,8,9,10]";"2";"0";"1"
"272";"11";"69";"1";"9";"4";"1";"3";"2";"[1,2,3,7,10]";"1";"0";"1"
"273";"26";"69";"1";"6";"3";"1";"3";"2";"[2,3,5,8]";"2";"0";"1"
"274";"2";"70";"1";"5";"3";"1";"3";"2";"[1,2,6]";"1";"0";"1"
"275";"11";"70";"1";"9";"4";"1";"3";"2";"[1,2,3,7,10]";"1";"0";"1"
"276";"5";"16";"1";"9";"1";"1";"3";"1";"[1,2,3,7,10]";"2";"0";"1"
"277";"26";"70";"1";"6";"3";"1";"3";"2";"[2,3,5,8]";"2";"0";"1"
"278";"2";"71";"1";"5";"3";"1";"3";"2";"[1,2,6]";"1";"0";"1"
"279";"5";"17";"1";"9";"1";"1";"3";"1";"[1,2,3,7,10]";"2";"0";"1"
"280";"34";"18";"1";"8";"1";"1";"3";"2";"[1,2,6]";"1";"2";"1"
"281";"40";"72";"1";"3";"2";"1";"3";"1";"[1,4,6,9]";"1";"0";"1"
"282";"34";"19";"1";"8";"1";"1";"3";"2";"[1,2,6]";"1";"2";"1"
"283";"40";"73";"1";"3";"2";"1";"3";"1";"[1,4,6,9]";"1";"0";"1"
"284";"4";"21";"1";"7";"1";"1";"3";"1";"[2,4,9,10]";"2";"1";"1"
"285";"4";"22";"1";"7";"1";"1";"3";"1";"[2,4,9,10]";"2";"2";"1"
"286";"10";"77";"1";"8";"3";"1";"3";"2";"[1,2,6]";"1";"0";"1"
"287";"4";"23";"1";"7";"1";"1";"3";"1";"[2,4,9,10]";"2";"3";"1"
"288";"10";"78";"1";"8";"3";"1";"3";"2";"[1,2,6]";"1";"0";"1"
"289";"4";"25";"1";"7";"1";"1";"3";"1";"[2,4,9,10]";"2";"1";"1"
"290";"3";"28";"1";"1";"1";"1";"3";"2";"[2,3,5,8,9]";"1";"0";"1"
"291";"22";"82";"1";"8";"2";"1";"3";"2";"[1,2,6]";"1";"0";"1"
"292";"3";"29";"1";"1";"1";"1";"3";"2";"[2,3,5,8,9]";"1";"0";"1"
"293";"4";"29";"1";"7";"1";"1";"3";"1";"[2,4,9,10]";"2";"2";"1"
"294";"22";"83";"1";"8";"2";"1";"3";"2";"[1,2,6]";"1";"0";"1"
"295";"35";"85";"1";"3";"4";"1";"4";"1";"[1,4,6,9]";"1";"0";"1"
"296";"17";"85";"1";"4";"3";"1";"4";"2";"[3,7]";"2";"0";"1"
"297";"33";"85";"1";"6";"2";"1";"4";"1";"[2,3,5,8]";"1";"0";"1"
"298";"14";"86";"1";"7";"2";"1";"4";"1";"[2,4,9,10]";"1";"0";"1"
"299";"35";"86";"1";"3";"4";"1";"4";"1";"[1,4,6,9]";"1";"0";"1"
"300";"31";"86";"1";"2";"2";"1";"4";"1";"[1,5,6,7,8,9,10]";"1";"0";"1"
"301";"20";"86";"1";"3";"3";"1";"4";"1";"[1,4,6,9]";"2";"0";"1"
"302";"17";"86";"1";"4";"3";"1";"4";"2";"[3,7]";"2";"0";"1"
"303";"23";"3";"1";"5";"1";"1";"4";"1";"[1,2,6]";"0";"1";"1"
"304";"33";"86";"1";"6";"2";"1";"4";"1";"[2,3,5,8]";"1";"0";"1"
"305";"4";"3";"1";"7";"1";"1";"4";"1";"[2,4,9,10]";"1";"0";"1"
"306";"14";"87";"1";"7";"2";"1";"4";"1";"[2,4,9,10]";"1";"0";"1"
"307";"31";"87";"1";"2";"2";"1";"4";"1";"[1,5,6,7,8,9,10]";"1";"0";"1"
"308";"1";"87";"1";"8";"4";"1";"4";"1";"[1,2,6]";"1";"0";"1"
"309";"20";"87";"1";"3";"3";"1";"4";"1";"[1,4,6,9]";"2";"0";"1"
"310";"39";"4";"1";"4";"1";"1";"4";"2";"[3,7]";"2";"0";"1"
"311";"16";"87";"1";"10";"2";"1";"4";"2";"[2,7,9]";"1";"0";"1"
"312";"24";"4";"1";"6";"1";"1";"4";"1";"[2,3,5,8]";"1";"0";"1"
"313";"4";"4";"1";"7";"1";"1";"4";"1";"[2,4,9,10]";"1";"0";"1"
"314";"13";"88";"1";"10";"3";"1";"4";"2";"[2,7,9]";"2";"0";"1"
"315";"29";"5";"1";"3";"1";"1";"4";"2";"[1,4,6,9]";"2";"0";"1"
"316";"36";"88";"1";"5";"2";"1";"4";"2";"[1,2,6]";"1";"0";"1"
"317";"1";"88";"1";"8";"4";"1";"4";"1";"[1,2,6]";"1";"0";"1"
"318";"15";"88";"1";"9";"3";"1";"4";"2";"[1,2,3,7,10]";"2";"0";"1"
"319";"39";"5";"1";"4";"1";"1";"4";"2";"[3,7]";"2";"0";"1"
"320";"16";"88";"1";"10";"2";"1";"4";"2";"[2,7,9]";"1";"0";"1"
"321";"26";"88";"1";"6";"3";"1";"4";"2";"[2,3,5,8]";"2";"0";"1"
"322";"24";"5";"1";"6";"1";"1";"4";"1";"[2,3,5,8]";"1";"0";"1"
"323";"13";"89";"1";"10";"3";"1";"4";"2";"[2,7,9]";"2";"0";"1"
"324";"29";"6";"1";"3";"1";"1";"4";"2";"[1,4,6,9]";"2";"0";"1"
"325";"36";"89";"1";"5";"2";"1";"4";"2";"[1,2,6]";"1";"0";"1"
"326";"15";"89";"1";"9";"3";"1";"4";"2";"[1,2,3,7,10]";"2";"0";"1"
"327";"23";"6";"1";"5";"1";"1";"4";"1";"[1,2,6]";"0";"2";"1"
"328";"26";"89";"1";"6";"3";"1";"4";"2";"[2,3,5,8]";"2";"0";"1"
"329";"21";"7";"1";"10";"1";"1";"4";"1";"[2,7,9]";"2";"0";"1"
"330";"22";"90";"1";"8";"2";"1";"4";"2";"[1,2,6]";"1";"0";"1"
"331";"28";"90";"1";"4";"2";"1";"4";"2";"[3,7]";"1";"0";"1"
"332";"21";"8";"1";"10";"1";"1";"4";"1";"[2,7,9]";"2";"0";"1"
"333";"7";"91";"1";"5";"4";"1";"4";"1";"[1,2,6]";"1";"0";"1"
"334";"23";"8";"1";"5";"1";"1";"4";"1";"[1,2,6]";"0";"3";"1"
"335";"18";"91";"1";"4";"4";"1";"4";"1";"[3,7]";"1";"0";"1"
"336";"22";"91";"1";"8";"2";"1";"4";"2";"[1,2,6]";"1";"0";"1"
"337";"28";"91";"1";"4";"2";"1";"4";"2";"[3,7]";"1";"0";"1"
"338";"30";"92";"1";"2";"4";"1";"4";"1";"[1,5,6,7,8,9,10]";"1";"0";"1"
"339";"7";"92";"1";"5";"4";"1";"4";"1";"[1,2,6]";"1";"0";"1"
"340";"37";"92";"1";"1";"4";"1";"4";"1";"[2,3,5,8,9]";"1";"0";"1"
"341";"23";"9";"1";"5";"1";"1";"4";"1";"[1,2,6]";"0";"4";"1"
"342";"18";"92";"1";"4";"4";"1";"4";"1";"[3,7]";"1";"0";"1"
"343";"34";"9";"1";"8";"1";"1";"4";"2";"[1,2,6]";"0";"2";"1"
"344";"30";"93";"1";"2";"4";"1";"4";"1";"[1,5,6,7,8,9,10]";"1";"0";"1"
"345";"37";"93";"1";"1";"4";"1";"4";"1";"[2,3,5,8,9]";"1";"0";"1"
"346";"32";"93";"1";"1";"2";"1";"4";"2";"[2,3,5,8,9]";"2";"0";"1"
"347";"25";"10";"1";"2";"1";"1";"4";"1";"[1,5,6,7,8,9,10]";"2";"0";"1"
"348";"23";"10";"1";"5";"1";"1";"4";"1";"[1,2,6]";"0";"4";"1"
"349";"27";"94";"1";"6";"4";"1";"4";"1";"[2,3,5,8]";"1";"0";"1"
"350";"11";"94";"1";"9";"4";"1";"4";"2";"[1,2,3,7,10]";"1";"0";"1"
"351";"23";"11";"1";"5";"1";"1";"4";"1";"[1,2,6]";"1";"4";"1"
"352";"32";"94";"1";"1";"2";"1";"4";"2";"[2,3,5,8,9]";"2";"0";"1"
"353";"25";"11";"1";"2";"1";"1";"4";"1";"[1,5,6,7,8,9,10]";"2";"0";"1"
"354";"34";"11";"1";"8";"1";"1";"4";"2";"[1,2,6]";"0";"1";"1"
"355";"40";"94";"1";"3";"2";"1";"4";"1";"[1,4,6,9]";"1";"0";"1"
"356";"27";"95";"1";"6";"4";"1";"4";"1";"[2,3,5,8]";"1";"0";"1"
"357";"11";"95";"1";"9";"4";"1";"4";"2";"[1,2,3,7,10]";"1";"0";"1"
"358";"23";"12";"1";"5";"1";"1";"4";"1";"[1,2,6]";"1";"4";"1"
"359";"2";"95";"1";"5";"3";"1";"4";"2";"[1,2,6]";"1";"0";"1"
"360";"40";"95";"1";"3";"2";"1";"4";"1";"[1,4,6,9]";"1";"0";"1"
"361";"9";"95";"1";"10";"4";"1";"4";"1";"[2,7,9]";"1";"0";"1"
"362";"34";"13";"1";"8";"1";"1";"4";"2";"[1,2,6]";"0";"2";"1"
"363";"2";"96";"1";"5";"3";"1";"4";"2";"[1,2,6]";"1";"0";"1"
"364";"19";"96";"1";"7";"4";"1";"4";"1";"[2,4,9,10]";"2";"0";"1"
"365";"9";"96";"1";"10";"4";"1";"4";"1";"[2,7,9]";"1";"0";"1"
"366";"34";"14";"1";"8";"1";"1";"4";"2";"[1,2,6]";"0";"4";"1"
"367";"5";"14";"1";"9";"1";"1";"4";"1";"[1,2,3,7,10]";"2";"0";"1"
"368";"19";"97";"1";"7";"4";"1";"4";"1";"[2,4,9,10]";"2";"0";"1"
"369";"10";"97";"1";"8";"3";"1";"4";"2";"[1,2,6]";"1";"0";"1"
"370";"5";"15";"1";"9";"1";"1";"4";"1";"[1,2,3,7,10]";"2";"0";"1"
"371";"10";"98";"1";"8";"3";"1";"4";"2";"[1,2,6]";"1";"0";"1"
"372";"34";"17";"1";"8";"1";"1";"4";"2";"[1,2,6]";"1";"4";"1"
"373";"12";"100";"1";"1";"3";"1";"4";"2";"[2,3,5,8,9]";"1";"0";"1"
"374";"34";"18";"1";"8";"1";"1";"4";"2";"[1,2,6]";"1";"4";"1"
"375";"12";"101";"1";"1";"3";"1";"4";"2";"[2,3,5,8,9]";"1";"0";"1"
"376";"38";"103";"1";"9";"2";"1";"4";"1";"[1,2,3,7,10]";"1";"0";"1"
"377";"1";"103";"1";"8";"4";"1";"4";"1";"[1,2,6]";"1";"2";"1"
"378";"8";"103";"1";"7";"3";"1";"4";"2";"[2,4,9,10]";"2";"0";"1"
"379";"6";"103";"1";"2";"3";"1";"4";"1";"[1,5,6,7,8,9,10]";"2";"0";"1"
"380";"38";"104";"1";"9";"2";"1";"4";"1";"[1,2,3,7,10]";"1";"0";"1"
"381";"8";"104";"1";"7";"3";"1";"4";"2";"[2,4,9,10]";"2";"0";"1"
"382";"6";"104";"1";"2";"3";"1";"4";"1";"[1,5,6,7,8,9,10]";"2";"0";"1"
"383";"1";"105";"1";"8";"4";"1";"4";"1";"[1,2,6]";"1";"4";"1"
"384";"13";"106";"1";"10";"3";"1";"4";"2";"[2,7,9]";"2";"2";"1"
"385";"20";"107";"1";"3";"3";"1";"4";"1";"[1,4,6,9]";"2";"2";"1"
"386";"13";"107";"1";"10";"3";"1";"4";"2";"[2,7,9]";"2";"3";"1"
"387";"20";"108";"1";"3";"3";"1";"4";"1";"[1,4,6,9]";"2";"1";"1"
"388";"3";"26";"1";"1";"1";"1";"4";"2";"[2,3,5,8,9]";"1";"0";"1"
"389";"3";"27";"1";"1";"1";"1";"4";"2";"[2,3,5,8,9]";"1";"0";"1"
"390";"20";"111";"1";"3";"3";"1";"5";"1";"[1,4,6,9]";"0";"4";"1"
"391";"33";"111";"1";"6";"2";"1";"5";"1";"[2,3,5,8]";"1";"0";"1"
"392";"22";"112";"1";"8";"2";"1";"5";"2";"[1,2,6]";"1";"0";"1"
"393";"35";"112";"1";"3";"4";"1";"5";"1";"[1,4,6,9]";"1";"0";"1"
"394";"33";"112";"1";"6";"2";"1";"5";"1";"[2,3,5,8]";"1";"0";"1"
"395";"4";"2";"1";"7";"1";"1";"5";"1";"[2,4,9,10]";"2";"0";"1"
"396";"34";"3";"1";"8";"1";"1";"5";"2";"[1,2,6]";"0";"3";"1"
"397";"29";"3";"1";"3";"1";"1";"5";"2";"[1,4,6,9]";"2";"0";"1"
"398";"31";"113";"1";"2";"2";"1";"5";"1";"[1,5,6,7,8,9,10]";"1";"0";"1"
"399";"22";"113";"1";"8";"2";"1";"5";"2";"[1,2,6]";"1";"0";"1"
"400";"35";"113";"1";"3";"4";"1";"5";"1";"[1,4,6,9]";"1";"0";"1"
"401";"14";"113";"1";"7";"2";"1";"5";"1";"[2,4,9,10]";"1";"0";"1"
"402";"20";"113";"1";"3";"3";"1";"5";"1";"[1,4,6,9]";"2";"4";"1"
"403";"34";"3";"1";"8";"1";"1";"5";"2";"[1,2,6]";"0";"4";"1"
"404";"4";"3";"1";"7";"1";"1";"5";"1";"[2,4,9,10]";"2";"0";"1"
"405";"15";"113";"1";"9";"3";"1";"5";"2";"[1,2,3,7,10]";"2";"0";"1"
"406";"28";"113";"1";"4";"2";"1";"5";"2";"[3,7]";"1";"0";"1"
"407";"29";"4";"1";"3";"1";"1";"5";"2";"[1,4,6,9]";"2";"0";"1"
"408";"36";"114";"1";"5";"2";"1";"5";"2";"[1,2,6]";"2";"0";"1"
"409";"31";"114";"1";"2";"2";"1";"5";"1";"[1,5,6,7,8,9,10]";"1";"0";"1"
"410";"14";"114";"1";"7";"2";"1";"5";"1";"[2,4,9,10]";"1";"0";"1"
"411";"20";"114";"1";"3";"3";"1";"5";"1";"[1,4,6,9]";"2";"4";"1"
"412";"24";"4";"1";"6";"1";"1";"5";"1";"[2,3,5,8]";"1";"0";"1"
"413";"17";"114";"1";"4";"3";"1";"5";"2";"[3,7]";"2";"0";"1"
"414";"15";"114";"1";"9";"3";"1";"5";"2";"[1,2,3,7,10]";"2";"0";"1"
"415";"13";"114";"1";"10";"3";"1";"5";"2";"[2,7,9]";"2";"0";"1"
"416";"20";"114";"1";"3";"3";"1";"5";"1";"[1,4,6,9]";"2";"6";"1"
"417";"28";"115";"1";"4";"2";"1";"5";"2";"[3,7]";"1";"0";"1"
"418";"34";"5";"1";"8";"1";"1";"5";"2";"[1,2,6]";"0";"3";"1"
"419";"36";"115";"1";"5";"2";"1";"5";"2";"[1,2,6]";"2";"0";"1"
"420";"1";"115";"1";"8";"4";"1";"5";"1";"[1,2,6]";"1";"0";"1"
"421";"27";"115";"1";"6";"4";"1";"5";"1";"[2,3,5,8]";"1";"0";"1"
"422";"25";"5";"1";"2";"1";"1";"5";"1";"[1,5,6,7,8,9,10]";"2";"0";"1"
"423";"19";"115";"1";"7";"4";"1";"5";"1";"[2,4,9,10]";"1";"0";"1"
"424";"24";"5";"1";"6";"1";"1";"5";"1";"[2,3,5,8]";"1";"0";"1"
"425";"17";"115";"1";"4";"3";"1";"5";"2";"[3,7]";"2";"0";"1"
"426";"23";"5";"1";"5";"1";"1";"5";"1";"[1,2,6]";"1";"0";"1"
"427";"34";"5";"1";"8";"1";"1";"5";"2";"[1,2,6]";"0";"4";"1"
"428";"26";"115";"1";"6";"3";"1";"5";"2";"[2,3,5,8]";"2";"0";"1"
"429";"13";"115";"1";"10";"3";"1";"5";"2";"[2,7,9]";"2";"0";"1"
"430";"37";"116";"1";"1";"4";"1";"5";"1";"[2,3,5,8,9]";"2";"0";"1"
"431";"1";"116";"1";"8";"4";"1";"5";"1";"[1,2,6]";"1";"0";"1"
"432";"27";"116";"1";"6";"4";"1";"5";"1";"[2,3,5,8]";"1";"0";"1"
"433";"25";"6";"1";"2";"1";"1";"5";"1";"[1,5,6,7,8,9,10]";"2";"0";"1"
"434";"10";"116";"1";"8";"3";"1";"5";"2";"[1,2,6]";"2";"0";"1"
"435";"19";"116";"1";"7";"4";"1";"5";"1";"[2,4,9,10]";"1";"0";"1"
"436";"23";"6";"1";"5";"1";"1";"5";"1";"[1,2,6]";"1";"0";"1"
"437";"11";"116";"1";"9";"4";"1";"5";"2";"[1,2,3,7,10]";"2";"0";"1"
"438";"26";"116";"1";"6";"3";"1";"5";"2";"[2,3,5,8]";"2";"0";"1"
"439";"37";"117";"1";"1";"4";"1";"5";"1";"[2,3,5,8,9]";"2";"0";"1"
"440";"10";"117";"1";"8";"3";"1";"5";"2";"[1,2,6]";"2";"0";"1"
"441";"11";"117";"1";"9";"4";"1";"5";"2";"[1,2,3,7,10]";"2";"0";"1"
"442";"8";"118";"1";"7";"3";"1";"5";"2";"[2,4,9,10]";"1";"0";"1"
"443";"12";"118";"1";"1";"3";"1";"5";"2";"[2,3,5,8,9]";"1";"0";"1"
"444";"8";"119";"1";"7";"3";"1";"5";"2";"[2,4,9,10]";"1";"0";"1"
"445";"3";"9";"1";"1";"1";"1";"5";"2";"[2,3,5,8,9]";"2";"0";"1"
"446";"12";"119";"1";"1";"3";"1";"5";"2";"[2,3,5,8,9]";"1";"0";"1"
"447";"3";"10";"1";"1";"1";"1";"5";"2";"[2,3,5,8,9]";"2";"0";"1"
"448";"16";"120";"1";"10";"2";"1";"5";"2";"[2,7,9]";"1";"0";"1"
"449";"7";"120";"1";"5";"4";"1";"5";"1";"[1,2,6]";"2";"0";"1"
"450";"16";"121";"1";"10";"2";"1";"5";"2";"[2,7,9]";"1";"0";"1"
"451";"21";"11";"1";"10";"1";"1";"5";"1";"[2,7,9]";"1";"0";"1"
"452";"5";"11";"1";"9";"1";"1";"5";"1";"[1,2,3,7,10]";"2";"0";"1"
"453";"39";"11";"1";"4";"1";"1";"5";"2";"[3,7]";"2";"0";"1"
"454";"7";"121";"1";"5";"4";"1";"5";"1";"[1,2,6]";"2";"0";"1"
"455";"18";"122";"1";"4";"4";"1";"5";"1";"[3,7]";"1";"0";"1"
"456";"21";"12";"1";"10";"1";"1";"5";"1";"[2,7,9]";"1";"0";"1"
"457";"5";"12";"1";"9";"1";"1";"5";"1";"[1,2,3,7,10]";"2";"0";"1"
"458";"39";"12";"1";"4";"1";"1";"5";"2";"[3,7]";"2";"0";"1"
"459";"30";"123";"1";"2";"4";"1";"5";"1";"[1,5,6,7,8,9,10]";"1";"0";"1"
"460";"18";"123";"1";"4";"4";"1";"5";"1";"[3,7]";"1";"0";"1"
"461";"2";"124";"1";"5";"3";"1";"5";"2";"[1,2,6]";"1";"0";"1"
"462";"38";"124";"1";"9";"2";"1";"5";"1";"[1,2,3,7,10]";"1";"0";"1"
"463";"30";"124";"1";"2";"4";"1";"5";"1";"[1,5,6,7,8,9,10]";"1";"0";"1"
"464";"2";"125";"1";"5";"3";"1";"5";"2";"[1,2,6]";"1";"0";"1"
"465";"38";"125";"1";"9";"2";"1";"5";"1";"[1,2,3,7,10]";"1";"0";"1"
"466";"32";"127";"1";"1";"2";"1";"5";"2";"[2,3,5,8,9]";"0";"3";"1"
"467";"32";"130";"1";"1";"2";"1";"5";"2";"[2,3,5,8,9]";"0";"4";"1"
"468";"6";"130";"1";"2";"3";"1";"5";"1";"[1,5,6,7,8,9,10]";"2";"0";"1"
"469";"6";"131";"1";"2";"3";"1";"5";"1";"[1,5,6,7,8,9,10]";"2";"0";"1"
"470";"32";"132";"1";"1";"2";"1";"5";"2";"[2,3,5,8,9]";"2";"4";"1"
"471";"32";"133";"1";"1";"2";"1";"5";"2";"[2,3,5,8,9]";"2";"4";"1"
"472";"34";"24";"1";"8";"1";"1";"5";"2";"[1,2,6]";"1";"4";"1"
"473";"34";"25";"1";"8";"1";"1";"5";"2";"[1,2,6]";"1";"4";"1"
"474";"9";"135";"1";"10";"4";"1";"5";"1";"[2,7,9]";"1";"0";"1"
"475";"9";"136";"1";"10";"4";"1";"5";"1";"[2,7,9]";"1";"0";"1"
"476";"40";"136";"1";"3";"2";"1";"5";"1";"[1,4,6,9]";"1";"0";"1"
"477";"40";"137";"1";"3";"2";"1";"5";"1";"[1,4,6,9]";"1";"0";"1"
"478";"14";"139";"1";"7";"2";"1";"6";"1";"[2,4,9,10]";"1";"0";"1"
"479";"20";"139";"1";"3";"3";"1";"6";"1";"[1,4,6,9]";"2";"0";"1"
"480";"25";"2";"1";"2";"1";"1";"6";"1";"[1,5,6,7,8,9,10]";"1";"0";"1"
"481";"33";"139";"1";"6";"2";"1";"6";"1";"[2,3,5,8]";"1";"0";"1"
"482";"35";"139";"1";"3";"4";"1";"6";"1";"[1,4,6,9]";"1";"0";"1"
"483";"31";"139";"1";"2";"2";"1";"6";"1";"[1,5,6,7,8,9,10]";"1";"0";"1"
"484";"13";"140";"1";"10";"3";"1";"6";"2";"[2,7,9]";"2";"0";"1"
"485";"20";"140";"1";"3";"3";"1";"6";"1";"[1,4,6,9]";"2";"0";"1"
"486";"14";"140";"1";"7";"2";"1";"6";"1";"[2,4,9,10]";"1";"0";"1"
"487";"4";"3";"1";"7";"1";"1";"6";"1";"[2,4,9,10]";"2";"0";"1"
"488";"25";"3";"1";"2";"1";"1";"6";"1";"[1,5,6,7,8,9,10]";"1";"0";"1"
"489";"33";"140";"1";"6";"2";"1";"6";"1";"[2,3,5,8]";"1";"0";"1"
"490";"24";"3";"1";"6";"1";"1";"6";"1";"[2,3,5,8]";"1";"0";"1"
"491";"35";"140";"1";"3";"4";"1";"6";"1";"[1,4,6,9]";"1";"0";"1"
"492";"31";"140";"1";"2";"2";"1";"6";"1";"[1,5,6,7,8,9,10]";"1";"0";"1"
"493";"5";"3";"1";"9";"1";"1";"6";"1";"[1,2,3,7,10]";"2";"0";"1"
"494";"13";"141";"1";"10";"3";"1";"6";"2";"[2,7,9]";"2";"0";"1"
"495";"4";"4";"1";"7";"1";"1";"6";"1";"[2,4,9,10]";"2";"0";"1"
"496";"21";"4";"1";"10";"1";"1";"6";"1";"[2,7,9]";"2";"0";"1"
"497";"29";"4";"1";"3";"1";"1";"6";"2";"[1,4,6,9]";"2";"0";"1"
"498";"24";"4";"1";"6";"1";"1";"6";"1";"[2,3,5,8]";"1";"0";"1"
"499";"28";"141";"1";"4";"2";"1";"6";"2";"[3,7]";"1";"0";"1"
"500";"23";"4";"1";"5";"1";"1";"6";"1";"[1,2,6]";"1";"0";"1"
"501";"19";"141";"1";"7";"4";"1";"6";"1";"[2,4,9,10]";"1";"0";"1"
"502";"5";"4";"1";"9";"1";"1";"6";"1";"[1,2,3,7,10]";"2";"0";"1"
"503";"26";"142";"1";"6";"3";"1";"6";"2";"[2,3,5,8]";"2";"0";"1"
"504";"21";"5";"1";"10";"1";"1";"6";"1";"[2,7,9]";"2";"0";"1"
"505";"36";"142";"1";"5";"2";"1";"6";"2";"[1,2,6]";"1";"0";"1"
"506";"29";"5";"1";"3";"1";"1";"6";"2";"[1,4,6,9]";"2";"0";"1"
"507";"28";"142";"1";"4";"2";"1";"6";"2";"[3,7]";"1";"0";"1"
"508";"23";"5";"1";"5";"1";"1";"6";"1";"[1,2,6]";"1";"0";"1"
"509";"19";"142";"1";"7";"4";"1";"6";"1";"[2,4,9,10]";"1";"0";"1"
"510";"26";"143";"1";"6";"3";"1";"6";"2";"[2,3,5,8]";"2";"0";"1"
"511";"36";"143";"1";"5";"2";"1";"6";"2";"[1,2,6]";"1";"0";"1"
"512";"15";"143";"1";"9";"3";"1";"6";"2";"[1,2,3,7,10]";"2";"0";"1"
"513";"27";"144";"1";"6";"4";"1";"6";"1";"[2,3,5,8]";"1";"0";"1"
"514";"17";"144";"1";"4";"3";"1";"6";"2";"[3,7]";"2";"0";"1"
"515";"16";"144";"1";"10";"2";"1";"6";"2";"[2,7,9]";"1";"0";"1"
"516";"15";"144";"1";"9";"3";"1";"6";"2";"[1,2,3,7,10]";"2";"0";"1"
"517";"8";"144";"1";"7";"3";"1";"6";"2";"[2,4,9,10]";"2";"0";"1"
"518";"39";"7";"1";"4";"1";"1";"6";"2";"[3,7]";"2";"0";"1"
"519";"37";"144";"1";"1";"4";"1";"6";"1";"[2,3,5,8,9]";"2";"0";"1"
"520";"27";"145";"1";"6";"4";"1";"6";"1";"[2,3,5,8]";"1";"0";"1"
"521";"17";"145";"1";"4";"3";"1";"6";"2";"[3,7]";"2";"0";"1"
"522";"18";"145";"1";"4";"4";"1";"6";"1";"[3,7]";"1";"0";"1"
"523";"16";"145";"1";"10";"2";"1";"6";"2";"[2,7,9]";"1";"0";"1"
"524";"8";"145";"1";"7";"3";"1";"6";"2";"[2,4,9,10]";"2";"0";"1"
"525";"7";"145";"1";"5";"4";"1";"6";"1";"[1,2,6]";"1";"0";"1"
"526";"39";"8";"1";"4";"1";"1";"6";"2";"[3,7]";"2";"0";"1"
"527";"37";"145";"1";"1";"4";"1";"6";"1";"[2,3,5,8,9]";"2";"0";"1"
"528";"18";"146";"1";"4";"4";"1";"6";"1";"[3,7]";"1";"0";"1"
"529";"7";"146";"1";"5";"4";"1";"6";"1";"[1,2,6]";"1";"0";"1"
"530";"2";"146";"1";"5";"3";"1";"6";"2";"[1,2,6]";"1";"0";"1"
"531";"32";"147";"1";"1";"2";"1";"6";"2";"[2,3,5,8,9]";"1";"0";"1"
"532";"2";"147";"1";"5";"3";"1";"6";"2";"[1,2,6]";"1";"0";"1"
"533";"32";"148";"1";"1";"2";"1";"6";"2";"[2,3,5,8,9]";"1";"0";"1"
"534";"10";"149";"1";"8";"3";"1";"6";"2";"[1,2,6]";"2";"0";"1"
"535";"11";"149";"1";"9";"4";"1";"6";"2";"[1,2,3,7,10]";"2";"0";"1"
"536";"10";"150";"1";"8";"3";"1";"6";"2";"[1,2,6]";"2";"0";"1"
"537";"11";"150";"1";"9";"4";"1";"6";"2";"[1,2,3,7,10]";"2";"0";"1"
"538";"9";"150";"1";"10";"4";"1";"6";"1";"[2,7,9]";"1";"0";"1"
"539";"9";"151";"1";"10";"4";"1";"6";"1";"[2,7,9]";"1";"0";"1"
"540";"38";"153";"1";"9";"2";"1";"6";"1";"[1,2,3,7,10]";"1";"0";"1"
"541";"1";"154";"1";"8";"4";"1";"6";"1";"[1,2,6]";"1";"0";"1"
"542";"12";"154";"1";"1";"3";"1";"6";"2";"[2,3,5,8,9]";"1";"0";"1"
"543";"38";"154";"1";"9";"2";"1";"6";"1";"[1,2,3,7,10]";"1";"0";"1"
"544";"30";"155";"1";"2";"4";"1";"6";"1";"[1,5,6,7,8,9,10]";"0";"4";"1"
"545";"1";"155";"1";"8";"4";"1";"6";"1";"[1,2,6]";"1";"0";"1"
"546";"12";"155";"1";"1";"3";"1";"6";"2";"[2,3,5,8,9]";"1";"0";"1"
"547";"30";"157";"1";"2";"4";"1";"6";"1";"[1,5,6,7,8,9,10]";"0";"5";"1"
"548";"3";"20";"1";"1";"1";"1";"6";"2";"[2,3,5,8,9]";"2";"0";"1"
"549";"3";"21";"1";"1";"1";"1";"6";"2";"[2,3,5,8,9]";"2";"0";"1"
"550";"6";"159";"1";"2";"3";"1";"6";"1";"[1,5,6,7,8,9,10]";"2";"0";"1"
"551";"30";"159";"1";"2";"4";"1";"6";"1";"[1,5,6,7,8,9,10]";"1";"5";"1"
"552";"34";"22";"1";"8";"1";"1";"6";"2";"[1,2,6]";"2";"0";"1"
"553";"6";"160";"1";"2";"3";"1";"6";"1";"[1,5,6,7,8,9,10]";"2";"0";"1"
"554";"30";"160";"1";"2";"4";"1";"6";"1";"[1,5,6,7,8,9,10]";"1";"5";"1"
"555";"34";"23";"1";"8";"1";"1";"6";"2";"[1,2,6]";"2";"0";"1"
"556";"22";"162";"1";"8";"2";"1";"6";"2";"[1,2,6]";"1";"0";"1"
"557";"22";"163";"1";"8";"2";"1";"6";"2";"[1,2,6]";"1";"0";"1"
"558";"40";"164";"1";"3";"2";"1";"6";"1";"[1,4,6,9]";"1";"0";"1"
"559";"40";"165";"1";"3";"2";"1";"6";"1";"[1,4,6,9]";"1";"0";"1"
"560";"33";"167";"1";"6";"2";"1";"7";"1";"[2,3,5,8]";"1";"0";"1"
"561";"20";"167";"1";"3";"3";"1";"7";"1";"[1,4,6,9]";"2";"0";"1"
"562";"36";"167";"1";"5";"2";"1";"7";"2";"[1,2,6]";"1";"0";"1"
"563";"33";"168";"1";"6";"2";"1";"7";"1";"[2,3,5,8]";"1";"0";"1"
"564";"31";"168";"1";"2";"2";"1";"7";"1";"[1,5,6,7,8,9,10]";"1";"0";"1"
"565";"20";"168";"1";"3";"3";"1";"7";"1";"[1,4,6,9]";"2";"0";"1"
"566";"23";"3";"1";"5";"1";"1";"7";"1";"[1,2,6]";"1";"0";"1"
"567";"18";"168";"1";"4";"4";"1";"7";"1";"[3,7]";"1";"0";"1"
"568";"13";"168";"1";"10";"3";"1";"7";"2";"[2,7,9]";"1";"0";"1"
"569";"36";"168";"1";"5";"2";"1";"7";"2";"[1,2,6]";"1";"0";"1"
"570";"39";"3";"1";"4";"1";"1";"7";"2";"[3,7]";"2";"0";"1"
"571";"15";"169";"1";"9";"3";"1";"7";"2";"[1,2,3,7,10]";"2";"0";"1"
"572";"38";"169";"1";"9";"2";"1";"7";"1";"[1,2,3,7,10]";"1";"0";"1"
"573";"31";"169";"1";"2";"2";"1";"7";"1";"[1,5,6,7,8,9,10]";"1";"0";"1"
"574";"5";"4";"1";"9";"1";"1";"7";"1";"[1,2,3,7,10]";"2";"0";"1"
"575";"12";"169";"1";"1";"3";"1";"7";"2";"[2,3,5,8,9]";"2";"0";"1"
"576";"23";"4";"1";"5";"1";"1";"7";"1";"[1,2,6]";"1";"0";"1"
"577";"18";"169";"1";"4";"4";"1";"7";"1";"[3,7]";"1";"0";"1"
"578";"13";"169";"1";"10";"3";"1";"7";"2";"[2,7,9]";"1";"0";"1"
"579";"1";"169";"1";"8";"4";"1";"7";"1";"[1,2,6]";"1";"0";"1"
"580";"17";"169";"1";"4";"3";"1";"7";"2";"[3,7]";"2";"0";"1"
"581";"27";"169";"1";"6";"4";"1";"7";"1";"[2,3,5,8]";"1";"0";"1"
"582";"19";"169";"1";"7";"4";"1";"7";"1";"[2,4,9,10]";"1";"0";"1"
"583";"6";"169";"1";"2";"3";"1";"7";"1";"[1,5,6,7,8,9,10]";"2";"0";"1"
"584";"4";"4";"1";"7";"1";"1";"7";"1";"[2,4,9,10]";"1";"0";"1"
"585";"29";"4";"1";"3";"1";"1";"7";"2";"[1,4,6,9]";"2";"0";"1"
"586";"21";"4";"1";"10";"1";"1";"7";"1";"[2,7,9]";"2";"0";"1"
"587";"39";"4";"1";"4";"1";"1";"7";"2";"[3,7]";"2";"0";"1"
"588";"15";"170";"1";"9";"3";"1";"7";"2";"[1,2,3,7,10]";"2";"0";"1"
"589";"38";"170";"1";"9";"2";"1";"7";"1";"[1,2,3,7,10]";"1";"0";"1"
"590";"5";"5";"1";"9";"1";"1";"7";"1";"[1,2,3,7,10]";"2";"0";"1"
"591";"12";"170";"1";"1";"3";"1";"7";"2";"[2,3,5,8,9]";"2";"0";"1"
"592";"16";"170";"1";"10";"2";"1";"7";"2";"[2,7,9]";"1";"0";"1"
"593";"28";"170";"1";"4";"2";"1";"7";"2";"[3,7]";"1";"0";"1"
"594";"1";"170";"1";"8";"4";"1";"7";"1";"[1,2,6]";"1";"0";"1"
"595";"35";"170";"1";"3";"4";"1";"7";"1";"[1,4,6,9]";"1";"0";"1"
"596";"17";"170";"1";"4";"3";"1";"7";"2";"[3,7]";"2";"0";"1"
"597";"27";"170";"1";"6";"4";"1";"7";"1";"[2,3,5,8]";"1";"0";"1"
"598";"6";"170";"1";"2";"3";"1";"7";"1";"[1,5,6,7,8,9,10]";"2";"0";"1"
"599";"19";"170";"1";"7";"4";"1";"7";"1";"[2,4,9,10]";"1";"0";"1"
"600";"14";"170";"1";"7";"2";"1";"7";"1";"[2,4,9,10]";"0";"1";"1"
"601";"29";"5";"1";"3";"1";"1";"7";"2";"[1,4,6,9]";"2";"0";"1"
"602";"4";"5";"1";"7";"1";"1";"7";"1";"[2,4,9,10]";"1";"0";"1"
"603";"21";"5";"1";"10";"1";"1";"7";"1";"[2,7,9]";"2";"0";"1"
"604";"25";"6";"1";"2";"1";"1";"7";"1";"[1,5,6,7,8,9,10]";"1";"0";"1"
"605";"7";"171";"1";"5";"4";"1";"7";"1";"[1,2,6]";"2";"0";"1"
"606";"16";"171";"1";"10";"2";"1";"7";"2";"[2,7,9]";"1";"0";"1"
"607";"28";"171";"1";"4";"2";"1";"7";"2";"[3,7]";"1";"0";"1"
"608";"11";"171";"1";"9";"4";"1";"7";"2";"[1,2,3,7,10]";"1";"0";"1"
"609";"35";"171";"1";"3";"4";"1";"7";"1";"[1,4,6,9]";"1";"0";"1"
"610";"26";"171";"1";"6";"3";"1";"7";"2";"[2,3,5,8]";"2";"0";"1"
"611";"24";"6";"1";"6";"1";"1";"7";"1";"[2,3,5,8]";"1";"0";"1"
"612";"25";"7";"1";"2";"1";"1";"7";"1";"[1,5,6,7,8,9,10]";"1";"0";"1"
"613";"14";"172";"1";"7";"2";"1";"7";"1";"[2,4,9,10]";"0";"2";"1"
"614";"7";"172";"1";"5";"4";"1";"7";"1";"[1,2,6]";"2";"0";"1"
"615";"11";"172";"1";"9";"4";"1";"7";"2";"[1,2,3,7,10]";"1";"0";"1"
"616";"26";"172";"1";"6";"3";"1";"7";"2";"[2,3,5,8]";"2";"0";"1"
"617";"24";"7";"1";"6";"1";"1";"7";"1";"[2,3,5,8]";"1";"0";"1"
"618";"2";"173";"1";"5";"3";"1";"7";"2";"[1,2,6]";"1";"0";"1"
"619";"30";"173";"1";"2";"4";"1";"7";"1";"[1,5,6,7,8,9,10]";"0";"4";"1"
"620";"22";"173";"1";"8";"2";"1";"7";"2";"[1,2,6]";"1";"0";"1"
"621";"37";"173";"1";"1";"4";"1";"7";"1";"[2,3,5,8,9]";"1";"0";"1"
"622";"14";"173";"1";"7";"2";"1";"7";"1";"[2,4,9,10]";"0";"3";"1"
"623";"2";"174";"1";"5";"3";"1";"7";"2";"[1,2,6]";"1";"0";"1"
"624";"22";"174";"1";"8";"2";"1";"7";"2";"[1,2,6]";"1";"0";"1"
"625";"32";"174";"1";"1";"2";"1";"7";"2";"[2,3,5,8,9]";"2";"0";"1"
"626";"30";"174";"1";"2";"4";"1";"7";"1";"[1,5,6,7,8,9,10]";"0";"5";"1"
"627";"37";"174";"1";"1";"4";"1";"7";"1";"[2,3,5,8,9]";"1";"0";"1"
"628";"14";"174";"1";"7";"2";"1";"7";"1";"[2,4,9,10]";"0";"4";"1"
"629";"32";"175";"1";"1";"2";"1";"7";"2";"[2,3,5,8,9]";"2";"0";"1"
"630";"30";"176";"1";"2";"4";"1";"7";"1";"[1,5,6,7,8,9,10]";"0";"7";"1"
"631";"9";"176";"1";"10";"4";"1";"7";"1";"[2,7,9]";"1";"0";"1"
"632";"9";"177";"1";"10";"4";"1";"7";"1";"[2,7,9]";"1";"0";"1"
"633";"30";"177";"1";"2";"4";"1";"7";"1";"[1,5,6,7,8,9,10]";"0";"5";"1"
"634";"14";"178";"1";"7";"2";"1";"7";"1";"[2,4,9,10]";"0";"6";"1"
"635";"30";"179";"1";"2";"4";"1";"7";"1";"[1,5,6,7,8,9,10]";"0";"6";"1"
"636";"30";"179";"1";"2";"4";"1";"7";"1";"[1,5,6,7,8,9,10]";"0";"7";"1"
"637";"14";"180";"1";"7";"2";"1";"7";"1";"[2,4,9,10]";"1";"6";"1"
"638";"30";"181";"1";"2";"4";"1";"7";"1";"[1,5,6,7,8,9,10]";"0";"7";"1"
"639";"14";"181";"1";"7";"2";"1";"7";"1";"[2,4,9,10]";"1";"6";"1"
"640";"30";"183";"1";"2";"4";"1";"7";"1";"[1,5,6,7,8,9,10]";"1";"7";"1"
"641";"40";"183";"1";"3";"2";"1";"7";"1";"[1,4,6,9]";"1";"0";"1"
"642";"30";"184";"1";"2";"4";"1";"7";"1";"[1,5,6,7,8,9,10]";"1";"7";"1"
"643";"40";"184";"1";"3";"2";"1";"7";"1";"[1,4,6,9]";"1";"0";"1"
"644";"8";"186";"1";"7";"3";"1";"7";"2";"[2,4,9,10]";"1";"0";"1"
"645";"8";"187";"1";"7";"3";"1";"7";"2";"[2,4,9,10]";"1";"0";"1"
"646";"34";"23";"1";"8";"1";"1";"7";"2";"[1,2,6]";"1";"0";"1"
"647";"34";"24";"1";"8";"1";"1";"7";"2";"[1,2,6]";"1";"0";"1"
"648";"3";"27";"1";"1";"1";"1";"7";"2";"[2,3,5,8,9]";"1";"0";"1"
"649";"36";"192";"1";"5";"2";"1";"7";"2";"[1,2,6]";"1";"5";"1"
"650";"10";"192";"1";"8";"3";"1";"7";"2";"[1,2,6]";"2";"0";"1"
"651";"3";"28";"1";"1";"1";"1";"7";"2";"[2,3,5,8,9]";"1";"0";"1"
"652";"36";"193";"1";"5";"2";"1";"7";"2";"[1,2,6]";"1";"4";"1"
"653";"10";"193";"1";"8";"3";"1";"7";"2";"[1,2,6]";"2";"0";"1"
"654";"17";"195";"1";"4";"3";"1";"8";"2";"[3,7]";"2";"0";"1"
"655";"20";"195";"1";"3";"3";"1";"8";"1";"[1,4,6,9]";"2";"0";"1"
"656";"33";"195";"1";"6";"2";"1";"8";"1";"[2,3,5,8]";"1";"0";"1"
"657";"23";"2";"1";"5";"1";"1";"8";"1";"[1,2,6]";"1";"0";"1"
"658";"14";"196";"1";"7";"2";"1";"8";"1";"[2,4,9,10]";"1";"0";"1"
"659";"16";"196";"1";"10";"2";"1";"8";"2";"[2,7,9]";"1";"0";"1"
"660";"17";"196";"1";"4";"3";"1";"8";"2";"[3,7]";"2";"0";"1"
"661";"30";"196";"1";"2";"4";"1";"8";"1";"[1,5,6,7,8,9,10]";"1";"0";"1"
"662";"22";"196";"1";"8";"2";"1";"8";"2";"[1,2,6]";"1";"0";"1"
"663";"13";"196";"1";"10";"3";"1";"8";"2";"[2,7,9]";"1";"0";"1"
"664";"20";"196";"1";"3";"3";"1";"8";"1";"[1,4,6,9]";"2";"0";"1"
"665";"33";"196";"1";"6";"2";"1";"8";"1";"[2,3,5,8]";"1";"0";"1"
"666";"23";"3";"1";"5";"1";"1";"8";"1";"[1,2,6]";"1";"0";"1"
"667";"36";"197";"1";"5";"2";"1";"8";"2";"[1,2,6]";"1";"0";"1"
"668";"38";"197";"1";"9";"2";"1";"8";"1";"[1,2,3,7,10]";"2";"0";"1"
"669";"19";"197";"1";"7";"4";"1";"8";"1";"[2,4,9,10]";"1";"0";"1"
"670";"14";"197";"1";"7";"2";"1";"8";"1";"[2,4,9,10]";"1";"0";"1"
"671";"18";"197";"1";"4";"4";"1";"8";"1";"[3,7]";"1";"0";"1"
"672";"16";"197";"1";"10";"2";"1";"8";"2";"[2,7,9]";"1";"0";"1"
"673";"35";"197";"1";"3";"4";"1";"8";"1";"[1,4,6,9]";"1";"0";"1"
"674";"30";"197";"1";"2";"4";"1";"8";"1";"[1,5,6,7,8,9,10]";"1";"0";"1"
"675";"22";"197";"1";"8";"2";"1";"8";"2";"[1,2,6]";"1";"0";"1"
"676";"13";"197";"1";"10";"3";"1";"8";"2";"[2,7,9]";"1";"0";"1"
"677";"28";"197";"1";"4";"2";"1";"8";"2";"[3,7]";"1";"0";"1"
"678";"31";"197";"1";"2";"2";"1";"8";"1";"[1,5,6,7,8,9,10]";"1";"0";"1"
"679";"1";"197";"1";"8";"4";"1";"8";"1";"[1,2,6]";"1";"0";"1"
"680";"36";"198";"1";"5";"2";"1";"8";"2";"[1,2,6]";"1";"0";"1"
"681";"38";"198";"1";"9";"2";"1";"8";"1";"[1,2,3,7,10]";"2";"0";"1"
"682";"24";"5";"1";"6";"1";"1";"8";"1";"[2,3,5,8]";"1";"0";"1"
"683";"19";"198";"1";"7";"4";"1";"8";"1";"[2,4,9,10]";"1";"0";"1"
"684";"18";"198";"1";"4";"4";"1";"8";"1";"[3,7]";"1";"0";"1"
"685";"35";"198";"1";"3";"4";"1";"8";"1";"[1,4,6,9]";"1";"0";"1"
"686";"28";"198";"1";"4";"2";"1";"8";"2";"[3,7]";"1";"0";"1"
"687";"31";"198";"1";"2";"2";"1";"8";"1";"[1,5,6,7,8,9,10]";"1";"0";"1"
"688";"1";"198";"1";"8";"4";"1";"8";"1";"[1,2,6]";"1";"0";"1"
"689";"34";"6";"1";"8";"1";"1";"8";"2";"[1,2,6]";"1";"0";"1"
"690";"7";"199";"1";"5";"4";"1";"8";"1";"[1,2,6]";"1";"0";"1"
"691";"24";"6";"1";"6";"1";"1";"8";"1";"[2,3,5,8]";"1";"0";"1"
"692";"21";"6";"1";"10";"1";"1";"8";"1";"[2,7,9]";"1";"0";"1"
"693";"4";"6";"1";"7";"1";"1";"8";"1";"[2,4,9,10]";"1";"0";"1"
"694";"27";"200";"1";"6";"4";"1";"8";"1";"[2,3,5,8]";"1";"0";"1"
"695";"34";"7";"1";"8";"1";"1";"8";"2";"[1,2,6]";"1";"0";"1"
"696";"7";"200";"1";"5";"4";"1";"8";"1";"[1,2,6]";"1";"0";"1"
"697";"21";"7";"1";"10";"1";"1";"8";"1";"[2,7,9]";"1";"0";"1"
"698";"25";"7";"1";"2";"1";"1";"8";"1";"[1,5,6,7,8,9,10]";"1";"0";"1"
"699";"32";"200";"1";"1";"2";"1";"8";"2";"[2,3,5,8,9]";"1";"0";"1"
"700";"4";"7";"1";"7";"1";"1";"8";"1";"[2,4,9,10]";"1";"0";"1"
"701";"27";"201";"1";"6";"4";"1";"8";"1";"[2,3,5,8]";"1";"0";"1"
"702";"2";"201";"1";"5";"3";"1";"8";"2";"[1,2,6]";"1";"0";"1"
"703";"25";"8";"1";"2";"1";"1";"8";"1";"[1,5,6,7,8,9,10]";"1";"0";"1"
"704";"32";"201";"1";"1";"2";"1";"8";"2";"[2,3,5,8,9]";"1";"0";"1"
"705";"29";"9";"1";"3";"1";"1";"8";"2";"[1,4,6,9]";"2";"0";"1"
"706";"2";"202";"1";"5";"3";"1";"8";"2";"[1,2,6]";"1";"0";"1"
"707";"8";"202";"1";"7";"3";"1";"8";"2";"[2,4,9,10]";"2";"0";"1"
"708";"29";"10";"1";"3";"1";"1";"8";"2";"[1,4,6,9]";"2";"0";"1"
"709";"9";"203";"1";"10";"4";"1";"8";"1";"[2,7,9]";"1";"0";"1"
"710";"8";"203";"1";"7";"3";"1";"8";"2";"[2,4,9,10]";"2";"0";"1"
"711";"30";"203";"1";"2";"4";"1";"8";"1";"[1,5,6,7,8,9,10]";"1";"6";"1"
"712";"12";"204";"1";"1";"3";"1";"8";"2";"[2,3,5,8,9]";"2";"0";"1"
"713";"9";"204";"1";"10";"4";"1";"8";"1";"[2,7,9]";"1";"0";"1"
"714";"37";"204";"1";"1";"4";"1";"8";"1";"[2,3,5,8,9]";"1";"0";"1"
"715";"12";"205";"1";"1";"3";"1";"8";"2";"[2,3,5,8,9]";"2";"0";"1"
"716";"30";"205";"1";"2";"4";"1";"8";"1";"[1,5,6,7,8,9,10]";"1";"2";"1"
"717";"37";"205";"1";"1";"4";"1";"8";"1";"[2,3,5,8,9]";"1";"0";"1"
"718";"11";"205";"1";"9";"4";"1";"8";"2";"[1,2,3,7,10]";"1";"0";"1"
"719";"30";"205";"1";"2";"4";"1";"8";"1";"[1,5,6,7,8,9,10]";"1";"3";"1"
"720";"11";"206";"1";"9";"4";"1";"8";"2";"[1,2,3,7,10]";"1";"0";"1"
"721";"30";"207";"1";"2";"4";"1";"8";"1";"[1,5,6,7,8,9,10]";"1";"4";"1"
"722";"30";"210";"1";"2";"4";"1";"8";"1";"[1,5,6,7,8,9,10]";"1";"5";"1"
"723";"3";"17";"1";"1";"1";"1";"8";"2";"[2,3,5,8,9]";"1";"0";"1"
"724";"15";"211";"1";"9";"3";"1";"8";"2";"[1,2,3,7,10]";"2";"0";"1"
"725";"3";"18";"1";"1";"1";"1";"8";"2";"[2,3,5,8,9]";"1";"0";"1"
"726";"15";"212";"1";"9";"3";"1";"8";"2";"[1,2,3,7,10]";"2";"0";"1"
"727";"5";"20";"1";"9";"1";"1";"8";"1";"[1,2,3,7,10]";"1";"0";"1"
"728";"30";"213";"1";"2";"4";"1";"8";"1";"[1,5,6,7,8,9,10]";"1";"6";"1"
"729";"36";"214";"1";"5";"2";"1";"8";"2";"[1,2,6]";"1";"1";"1"
"730";"5";"21";"1";"9";"1";"1";"8";"1";"[1,2,3,7,10]";"1";"0";"1"
"731";"10";"214";"1";"8";"3";"1";"8";"2";"[1,2,6]";"2";"0";"1"
"732";"40";"214";"1";"3";"2";"1";"8";"1";"[1,4,6,9]";"1";"0";"1"
"733";"30";"215";"1";"2";"4";"1";"8";"1";"[1,5,6,7,8,9,10]";"1";"8";"1"
"734";"36";"215";"1";"5";"2";"1";"8";"2";"[1,2,6]";"1";"2";"1"
"735";"10";"215";"1";"8";"3";"1";"8";"2";"[1,2,6]";"2";"0";"1"
"736";"40";"215";"1";"3";"2";"1";"8";"1";"[1,4,6,9]";"1";"0";"1"
"737";"36";"216";"1";"5";"2";"1";"8";"2";"[1,2,6]";"1";"3";"1"
"738";"30";"217";"1";"2";"4";"1";"8";"1";"[1,5,6,7,8,9,10]";"1";"8";"1"
"739";"6";"217";"1";"2";"3";"1";"8";"1";"[1,5,6,7,8,9,10]";"1";"0";"1"
"740";"39";"24";"1";"4";"1";"1";"8";"2";"[3,7]";"2";"0";"1"
"741";"36";"218";"1";"5";"2";"1";"8";"2";"[1,2,6]";"1";"4";"1"
"742";"6";"218";"1";"2";"3";"1";"8";"1";"[1,5,6,7,8,9,10]";"1";"0";"1"
"743";"36";"218";"1";"5";"2";"1";"8";"2";"[1,2,6]";"1";"5";"1"
"744";"39";"25";"1";"4";"1";"1";"8";"2";"[3,7]";"2";"0";"1"
"745";"30";"219";"1";"2";"4";"1";"8";"1";"[1,5,6,7,8,9,10]";"1";"5";"1"
"746";"36";"219";"1";"5";"2";"1";"8";"2";"[1,2,6]";"1";"6";"1"
"747";"30";"220";"1";"2";"4";"1";"8";"1";"[1,5,6,7,8,9,10]";"1";"8";"1"
"748";"36";"220";"1";"5";"2";"1";"8";"2";"[1,2,6]";"1";"9";"1"
"749";"26";"222";"1";"6";"3";"1";"8";"2";"[2,3,5,8]";"2";"0";"1"
"750";"30";"223";"1";"2";"4";"1";"8";"1";"[1,5,6,7,8,9,10]";"1";"6";"1"
"751";"26";"223";"1";"6";"3";"1";"8";"2";"[2,3,5,8]";"2";"0";"1"
"752";"17";"224";"1";"4";"3";"1";"9";"2";"[3,7]";"2";"0";"1"
"753";"19";"225";"1";"7";"4";"1";"9";"1";"[2,4,9,10]";"1";"0";"1"
"754";"20";"225";"1";"3";"3";"1";"9";"1";"[1,4,6,9]";"2";"0";"1"
"755";"18";"225";"1";"4";"4";"1";"9";"1";"[3,7]";"1";"0";"1"
"756";"22";"225";"1";"8";"2";"1";"9";"2";"[1,2,6]";"1";"0";"1"
"757";"5";"2";"1";"9";"1";"1";"9";"1";"[1,2,3,7,10]";"1";"0";"1"
"758";"17";"225";"1";"4";"3";"1";"9";"2";"[3,7]";"2";"0";"1"
"759";"33";"225";"1";"6";"2";"1";"9";"1";"[2,3,5,8]";"1";"0";"1"
"760";"19";"226";"1";"7";"4";"1";"9";"1";"[2,4,9,10]";"1";"0";"1"
"761";"36";"226";"1";"5";"2";"1";"9";"2";"[1,2,6]";"1";"0";"1"
"762";"20";"226";"1";"3";"3";"1";"9";"1";"[1,4,6,9]";"2";"0";"1"
"763";"14";"226";"1";"7";"2";"1";"9";"1";"[2,4,9,10]";"1";"0";"1"
"764";"26";"226";"1";"6";"3";"1";"9";"2";"[2,3,5,8]";"2";"0";"1"
"765";"28";"226";"1";"4";"2";"1";"9";"2";"[3,7]";"1";"0";"1"
"766";"18";"226";"1";"4";"4";"1";"9";"1";"[3,7]";"1";"0";"1"
"767";"22";"226";"1";"8";"2";"1";"9";"2";"[1,2,6]";"1";"0";"1"
"768";"4";"3";"1";"7";"1";"1";"9";"1";"[2,4,9,10]";"1";"0";"1"
"769";"27";"226";"1";"6";"4";"1";"9";"1";"[2,3,5,8]";"1";"0";"1"
"770";"5";"3";"1";"9";"1";"1";"9";"1";"[1,2,3,7,10]";"1";"0";"1"
"771";"33";"226";"1";"6";"2";"1";"9";"1";"[2,3,5,8]";"1";"0";"1"
"772";"25";"3";"1";"2";"1";"1";"9";"1";"[1,5,6,7,8,9,10]";"2";"0";"1"
"773";"24";"4";"1";"6";"1";"1";"9";"1";"[2,3,5,8]";"1";"0";"1"
"774";"32";"227";"1";"1";"2";"1";"9";"2";"[2,3,5,8,9]";"2";"0";"1"
"775";"36";"227";"1";"5";"2";"1";"9";"2";"[1,2,6]";"1";"0";"1"
"776";"23";"4";"1";"5";"1";"1";"9";"1";"[1,2,6]";"0";"1";"1"
"777";"14";"227";"1";"7";"2";"1";"9";"1";"[2,4,9,10]";"1";"0";"1"
"778";"38";"227";"1";"9";"2";"1";"9";"1";"[1,2,3,7,10]";"1";"0";"1"
"779";"26";"227";"1";"6";"3";"1";"9";"2";"[2,3,5,8]";"2";"0";"1"
"780";"28";"227";"1";"4";"2";"1";"9";"2";"[3,7]";"1";"0";"1"
"781";"8";"227";"1";"7";"3";"1";"9";"2";"[2,4,9,10]";"1";"0";"1"
"782";"13";"227";"1";"10";"3";"1";"9";"2";"[2,7,9]";"2";"0";"1"
"783";"4";"4";"1";"7";"1";"1";"9";"1";"[2,4,9,10]";"1";"0";"1"
"784";"27";"227";"1";"6";"4";"1";"9";"1";"[2,3,5,8]";"1";"0";"1"
"785";"25";"4";"1";"2";"1";"1";"9";"1";"[1,5,6,7,8,9,10]";"2";"0";"1"
"786";"24";"5";"1";"6";"1";"1";"9";"1";"[2,3,5,8]";"1";"0";"1"
"787";"31";"228";"1";"2";"2";"1";"9";"1";"[1,5,6,7,8,9,10]";"1";"0";"1"
"788";"32";"228";"1";"1";"2";"1";"9";"2";"[2,3,5,8,9]";"2";"0";"1"
"789";"21";"5";"1";"10";"1";"1";"9";"1";"[2,7,9]";"1";"0";"1"
"790";"38";"228";"1";"9";"2";"1";"9";"1";"[1,2,3,7,10]";"1";"0";"1"
"791";"23";"5";"1";"5";"1";"1";"9";"1";"[1,2,6]";"0";"2";"1"
"792";"8";"228";"1";"7";"3";"1";"9";"2";"[2,4,9,10]";"1";"0";"1"
"793";"13";"228";"1";"10";"3";"1";"9";"2";"[2,7,9]";"2";"0";"1"
"794";"31";"229";"1";"2";"2";"1";"9";"1";"[1,5,6,7,8,9,10]";"1";"0";"1"
"795";"1";"229";"1";"8";"4";"1";"9";"1";"[1,2,6]";"1";"0";"1"
"796";"29";"6";"1";"3";"1";"1";"9";"2";"[1,4,6,9]";"2";"0";"1"
"797";"21";"6";"1";"10";"1";"1";"9";"1";"[2,7,9]";"1";"0";"1"
"798";"37";"229";"1";"1";"4";"1";"9";"1";"[2,3,5,8,9]";"1";"0";"1"
"799";"35";"229";"1";"3";"4";"1";"9";"1";"[1,4,6,9]";"1";"0";"1"
"800";"7";"229";"1";"5";"4";"1";"9";"1";"[1,2,6]";"2";"0";"1"
"801";"1";"230";"1";"8";"4";"1";"9";"1";"[1,2,6]";"1";"0";"1"
"802";"29";"7";"1";"3";"1";"1";"9";"2";"[1,4,6,9]";"2";"0";"1"
"803";"30";"230";"1";"2";"4";"1";"9";"1";"[1,5,6,7,8,9,10]";"1";"0";"1"
"804";"37";"230";"1";"1";"4";"1";"9";"1";"[2,3,5,8,9]";"1";"0";"1"
"805";"35";"230";"1";"3";"4";"1";"9";"1";"[1,4,6,9]";"1";"0";"1"
"806";"7";"230";"1";"5";"4";"1";"9";"1";"[1,2,6]";"2";"0";"1"
"807";"23";"8";"1";"5";"1";"1";"9";"1";"[1,2,6]";"0";"3";"1"
"808";"30";"231";"1";"2";"4";"1";"9";"1";"[1,5,6,7,8,9,10]";"1";"0";"1"
"809";"15";"231";"1";"9";"3";"1";"9";"2";"[1,2,3,7,10]";"2";"0";"1"
"810";"12";"231";"1";"1";"3";"1";"9";"2";"[2,3,5,8,9]";"2";"0";"1"
"811";"23";"9";"1";"5";"1";"1";"9";"1";"[1,2,6]";"0";"4";"1"
"812";"6";"232";"1";"2";"3";"1";"9";"1";"[1,5,6,7,8,9,10]";"2";"0";"1"
"813";"15";"232";"1";"9";"3";"1";"9";"2";"[1,2,3,7,10]";"2";"0";"1"
"814";"12";"232";"1";"1";"3";"1";"9";"2";"[2,3,5,8,9]";"2";"0";"1"
"815";"10";"232";"1";"8";"3";"1";"9";"2";"[1,2,6]";"2";"0";"1"
"816";"11";"233";"1";"9";"4";"1";"9";"2";"[1,2,3,7,10]";"2";"0";"1"
"817";"23";"10";"1";"5";"1";"1";"9";"1";"[1,2,6]";"0";"5";"1"
"818";"6";"233";"1";"2";"3";"1";"9";"1";"[1,5,6,7,8,9,10]";"2";"0";"1"
"819";"10";"233";"1";"8";"3";"1";"9";"2";"[1,2,6]";"2";"0";"1"
"820";"23";"10";"1";"5";"1";"1";"9";"1";"[1,2,6]";"0";"6";"1"
"821";"11";"234";"1";"9";"4";"1";"9";"2";"[1,2,3,7,10]";"2";"0";"1"
"822";"2";"234";"1";"5";"3";"1";"9";"2";"[1,2,6]";"1";"0";"1"
"823";"23";"11";"1";"5";"1";"1";"9";"1";"[1,2,6]";"0";"7";"1"
"824";"9";"234";"1";"10";"4";"1";"9";"1";"[2,7,9]";"1";"0";"1"
"825";"34";"12";"1";"8";"1";"1";"9";"2";"[1,2,6]";"1";"0";"1"
"826";"23";"12";"1";"5";"1";"1";"9";"1";"[1,2,6]";"0";"8";"1"
"827";"2";"235";"1";"5";"3";"1";"9";"2";"[1,2,6]";"1";"0";"1"
"828";"9";"235";"1";"10";"4";"1";"9";"1";"[2,7,9]";"1";"0";"1"
"829";"23";"12";"1";"5";"1";"1";"9";"1";"[1,2,6]";"0";"9";"1"
"830";"34";"13";"1";"8";"1";"1";"9";"2";"[1,2,6]";"1";"0";"1"
"831";"23";"14";"1";"5";"1";"1";"9";"1";"[1,2,6]";"1";"9";"1"
"832";"23";"15";"1";"5";"1";"1";"9";"1";"[1,2,6]";"1";"9";"1"
"833";"14";"241";"1";"7";"2";"1";"9";"1";"[2,4,9,10]";"1";"5";"1"
"834";"14";"242";"1";"7";"2";"1";"9";"1";"[2,4,9,10]";"1";"1";"1"
"835";"16";"243";"1";"10";"2";"1";"9";"2";"[2,7,9]";"2";"0";"1"
"836";"16";"244";"1";"10";"2";"1";"9";"2";"[2,7,9]";"2";"0";"1"
"837";"14";"244";"1";"7";"2";"1";"9";"1";"[2,4,9,10]";"1";"11";"1"
"838";"40";"246";"1";"3";"2";"1";"9";"1";"[1,4,6,9]";"1";"0";"1"
"839";"30";"247";"1";"2";"4";"1";"9";"1";"[1,5,6,7,8,9,10]";"1";"5";"1"
"840";"40";"247";"1";"3";"2";"1";"9";"1";"[1,4,6,9]";"1";"0";"1"
"841";"30";"247";"1";"2";"4";"1";"9";"1";"[1,5,6,7,8,9,10]";"1";"4";"1"
"842";"30";"249";"1";"2";"4";"1";"9";"1";"[1,5,6,7,8,9,10]";"1";"11";"1"
"843";"3";"27";"1";"1";"1";"1";"9";"2";"[2,3,5,8,9]";"1";"0";"1"
"844";"39";"27";"1";"4";"1";"1";"9";"2";"[3,7]";"2";"0";"1"
"845";"3";"28";"1";"1";"1";"1";"9";"2";"[2,3,5,8,9]";"1";"0";"1"
"846";"30";"251";"1";"2";"4";"1";"9";"1";"[1,5,6,7,8,9,10]";"1";"1";"1"
"847";"39";"28";"1";"4";"1";"1";"9";"2";"[3,7]";"2";"0";"1"
"848";"20";"252";"1";"3";"3";"1";"10";"1";"[1,4,6,9]";"2";"0";"1"
"849";"17";"252";"1";"4";"3";"1";"10";"2";"[3,7]";"2";"0";"1"
"850";"23";"2";"1";"5";"1";"1";"10";"1";"[1,2,6]";"1";"0";"1"
"851";"4";"2";"1";"7";"1";"1";"10";"1";"[2,4,9,10]";"2";"0";"1"
"852";"30";"253";"1";"2";"4";"1";"10";"1";"[1,5,6,7,8,9,10]";"0";"10";"1"
"853";"20";"253";"1";"3";"3";"1";"10";"1";"[1,4,6,9]";"2";"0";"1"
"854";"17";"253";"1";"4";"3";"1";"10";"2";"[3,7]";"2";"0";"1"
"855";"18";"253";"1";"4";"4";"1";"10";"1";"[3,7]";"1";"0";"1"
"856";"23";"3";"1";"5";"1";"1";"10";"1";"[1,2,6]";"1";"0";"1"
"857";"5";"3";"1";"9";"1";"1";"10";"1";"[1,2,3,7,10]";"1";"0";"1"
"858";"4";"3";"1";"7";"1";"1";"10";"1";"[2,4,9,10]";"2";"0";"1"
"859";"22";"254";"1";"8";"2";"1";"10";"2";"[1,2,6]";"1";"0";"1"
"860";"35";"254";"1";"3";"4";"1";"10";"1";"[1,4,6,9]";"2";"0";"1"
"861";"6";"254";"1";"2";"3";"1";"10";"1";"[1,5,6,7,8,9,10]";"2";"0";"1"
"862";"31";"254";"1";"2";"2";"1";"10";"1";"[1,5,6,7,8,9,10]";"1";"0";"1"
"863";"19";"254";"1";"7";"4";"1";"10";"1";"[2,4,9,10]";"1";"0";"1"
"864";"12";"254";"1";"1";"3";"1";"10";"2";"[2,3,5,8,9]";"2";"0";"1"
"865";"18";"254";"1";"4";"4";"1";"10";"1";"[3,7]";"1";"0";"1"
"866";"21";"4";"1";"10";"1";"1";"10";"1";"[2,7,9]";"1";"0";"1"
"867";"14";"255";"1";"7";"2";"1";"10";"1";"[2,4,9,10]";"1";"0";"1"
"868";"29";"4";"1";"3";"1";"1";"10";"2";"[1,4,6,9]";"2";"0";"1"
"869";"5";"4";"1";"9";"1";"1";"10";"1";"[1,2,3,7,10]";"1";"0";"1"
"870";"1";"255";"1";"8";"4";"1";"10";"1";"[1,2,6]";"1";"0";"1"
"871";"22";"255";"1";"8";"2";"1";"10";"2";"[1,2,6]";"1";"0";"1"
"872";"35";"255";"1";"3";"4";"1";"10";"1";"[1,4,6,9]";"2";"0";"1"
"873";"6";"255";"1";"2";"3";"1";"10";"1";"[1,5,6,7,8,9,10]";"2";"0";"1"
"874";"27";"255";"1";"6";"4";"1";"10";"1";"[2,3,5,8]";"1";"0";"1"
"875";"28";"255";"1";"4";"2";"1";"10";"2";"[3,7]";"1";"0";"1"
"876";"31";"255";"1";"2";"2";"1";"10";"1";"[1,5,6,7,8,9,10]";"1";"0";"1"
"877";"25";"4";"1";"2";"1";"1";"10";"1";"[1,5,6,7,8,9,10]";"2";"0";"1"
"878";"19";"255";"1";"7";"4";"1";"10";"1";"[2,4,9,10]";"1";"0";"1"
"879";"26";"255";"1";"6";"3";"1";"10";"2";"[2,3,5,8]";"2";"0";"1"
"880";"12";"255";"1";"1";"3";"1";"10";"2";"[2,3,5,8,9]";"2";"0";"1"
"881";"37";"255";"1";"1";"4";"1";"10";"1";"[2,3,5,8,9]";"2";"0";"1"
"882";"32";"255";"1";"1";"2";"1";"10";"2";"[2,3,5,8,9]";"0";"8";"1"
"883";"21";"5";"1";"10";"1";"1";"10";"1";"[2,7,9]";"1";"0";"1"
"884";"14";"256";"1";"7";"2";"1";"10";"1";"[2,4,9,10]";"1";"0";"1"
"885";"38";"256";"1";"9";"2";"1";"10";"1";"[1,2,3,7,10]";"1";"0";"1"
"886";"29";"5";"1";"3";"1";"1";"10";"2";"[1,4,6,9]";"2";"0";"1"
"887";"1";"256";"1";"8";"4";"1";"10";"1";"[1,2,6]";"1";"0";"1"
"888";"24";"5";"1";"6";"1";"1";"10";"1";"[2,3,5,8]";"1";"0";"1"
"889";"27";"256";"1";"6";"4";"1";"10";"1";"[2,3,5,8]";"1";"0";"1"
"890";"28";"256";"1";"4";"2";"1";"10";"2";"[3,7]";"1";"0";"1"
"891";"25";"5";"1";"2";"1";"1";"10";"1";"[1,5,6,7,8,9,10]";"2";"0";"1"
"892";"26";"256";"1";"6";"3";"1";"10";"2";"[2,3,5,8]";"2";"0";"1"
"893";"37";"256";"1";"1";"4";"1";"10";"1";"[2,3,5,8,9]";"2";"0";"1"
"894";"10";"256";"1";"8";"3";"1";"10";"2";"[1,2,6]";"2";"0";"1"
"895";"8";"257";"1";"7";"3";"1";"10";"2";"[2,4,9,10]";"2";"0";"1"
"896";"38";"257";"1";"9";"2";"1";"10";"1";"[1,2,3,7,10]";"1";"0";"1"
"897";"13";"257";"1";"10";"3";"1";"10";"2";"[2,7,9]";"1";"0";"1"
"898";"24";"6";"1";"6";"1";"1";"10";"1";"[2,3,5,8]";"1";"0";"1"
"899";"30";"257";"1";"2";"4";"1";"10";"1";"[1,5,6,7,8,9,10]";"1";"10";"1"
"900";"15";"257";"1";"9";"3";"1";"10";"2";"[1,2,3,7,10]";"2";"0";"1"
"901";"10";"257";"1";"8";"3";"1";"10";"2";"[1,2,6]";"2";"0";"1"
"902";"32";"257";"1";"1";"2";"1";"10";"2";"[2,3,5,8,9]";"0";"6";"1"
"903";"8";"258";"1";"7";"3";"1";"10";"2";"[2,4,9,10]";"2";"0";"1"
"904";"13";"258";"1";"10";"3";"1";"10";"2";"[2,7,9]";"1";"0";"1"
"905";"30";"258";"1";"2";"4";"1";"10";"1";"[1,5,6,7,8,9,10]";"1";"10";"1"
"906";"9";"258";"1";"10";"4";"1";"10";"1";"[2,7,9]";"1";"0";"1"
"907";"15";"258";"1";"9";"3";"1";"10";"2";"[1,2,3,7,10]";"2";"0";"1"
"908";"33";"258";"1";"6";"2";"1";"10";"1";"[2,3,5,8]";"1";"0";"1"
"909";"7";"258";"1";"5";"4";"1";"10";"1";"[1,2,6]";"2";"0";"1"
"910";"2";"259";"1";"5";"3";"1";"10";"2";"[1,2,6]";"2";"0";"1"
"911";"32";"259";"1";"1";"2";"1";"10";"2";"[2,3,5,8,9]";"0";"5";"1"
"912";"9";"259";"1";"10";"4";"1";"10";"1";"[2,7,9]";"1";"0";"1"
"913";"33";"259";"1";"6";"2";"1";"10";"1";"[2,3,5,8]";"1";"0";"1"
"914";"7";"259";"1";"5";"4";"1";"10";"1";"[1,2,6]";"2";"0";"1"
"915";"2";"260";"1";"5";"3";"1";"10";"2";"[1,2,6]";"2";"0";"1"
"916";"32";"260";"1";"1";"2";"1";"10";"2";"[2,3,5,8,9]";"0";"3";"1"
"917";"32";"262";"1";"1";"2";"1";"10";"2";"[2,3,5,8,9]";"0";"2";"1"
"918";"36";"262";"1";"5";"2";"1";"10";"2";"[1,2,6]";"1";"0";"1"
"919";"40";"262";"1";"3";"2";"1";"10";"1";"[1,4,6,9]";"1";"0";"1"
"920";"11";"262";"1";"9";"4";"1";"10";"2";"[1,2,3,7,10]";"1";"0";"1"
"921";"32";"263";"1";"1";"2";"1";"10";"2";"[2,3,5,8,9]";"0";"1";"1"
"922";"36";"263";"1";"5";"2";"1";"10";"2";"[1,2,6]";"1";"0";"1"
"923";"40";"263";"1";"3";"2";"1";"10";"1";"[1,4,6,9]";"1";"0";"1"
"924";"11";"263";"1";"9";"4";"1";"10";"2";"[1,2,3,7,10]";"1";"0";"1"
"925";"32";"265";"1";"1";"2";"1";"10";"2";"[2,3,5,8,9]";"0";"6";"1"
"926";"32";"266";"1";"1";"2";"1";"10";"2";"[2,3,5,8,9]";"2";"6";"1"
"927";"16";"266";"1";"10";"2";"1";"10";"2";"[2,7,9]";"2";"0";"1"
"928";"32";"267";"1";"1";"2";"1";"10";"2";"[2,3,5,8,9]";"2";"6";"1"
"929";"16";"267";"1";"10";"2";"1";"10";"2";"[2,7,9]";"2";"0";"1"
"930";"34";"20";"1";"8";"1";"1";"10";"2";"[1,2,6]";"1";"0";"1"
"931";"3";"20";"1";"1";"1";"1";"10";"2";"[2,3,5,8,9]";"1";"0";"1"
"932";"34";"21";"1";"8";"1";"1";"10";"2";"[1,2,6]";"1";"0";"1"
"933";"3";"21";"1";"1";"1";"1";"10";"2";"[2,3,5,8,9]";"1";"0";"1"
"934";"39";"26";"1";"4";"1";"1";"10";"2";"[3,7]";"1";"0";"1"
"935";"39";"27";"1";"4";"1";"1";"10";"2";"[3,7]";"1";"0";"1"
"936";"33";"279";"1";"6";"2";"1";"11";"1";"[2,3,5,8]";"1";"0";"1"
"937";"25";"2";"1";"2";"1";"1";"11";"1";"[1,5,6,7,8,9,10]";"1";"0";"1"
"938";"20";"280";"1";"3";"3";"1";"11";"1";"[1,4,6,9]";"2";"0";"1"
"939";"23";"2";"1";"5";"1";"1";"11";"1";"[1,2,6]";"1";"0";"1"
"940";"38";"280";"1";"9";"2";"1";"11";"1";"[1,2,3,7,10]";"1";"0";"1"
"941";"17";"280";"1";"4";"3";"1";"11";"2";"[3,7]";"2";"0";"1"
"942";"13";"280";"1";"10";"3";"1";"11";"2";"[2,7,9]";"2";"0";"1"
"943";"19";"280";"1";"7";"4";"1";"11";"1";"[2,4,9,10]";"1";"0";"1"
"944";"33";"280";"1";"6";"2";"1";"11";"1";"[2,3,5,8]";"1";"0";"1"
"945";"25";"3";"1";"2";"1";"1";"11";"1";"[1,5,6,7,8,9,10]";"1";"0";"1"
"946";"20";"281";"1";"3";"3";"1";"11";"1";"[1,4,6,9]";"2";"0";"1"
"947";"5";"3";"1";"9";"1";"1";"11";"1";"[1,2,3,7,10]";"1";"0";"1"
"948";"29";"3";"1";"3";"1";"1";"11";"2";"[1,4,6,9]";"2";"0";"1"
"949";"23";"3";"1";"5";"1";"1";"11";"1";"[1,2,6]";"1";"0";"1"
"950";"38";"281";"1";"9";"2";"1";"11";"1";"[1,2,3,7,10]";"1";"0";"1"
"951";"12";"281";"1";"1";"3";"1";"11";"2";"[2,3,5,8,9]";"2";"0";"1"
"952";"28";"281";"1";"4";"2";"1";"11";"2";"[3,7]";"1";"0";"1"
"953";"16";"281";"1";"10";"2";"1";"11";"2";"[2,7,9]";"2";"0";"1"
"954";"17";"281";"1";"4";"3";"1";"11";"2";"[3,7]";"2";"0";"1"
"955";"13";"281";"1";"10";"3";"1";"11";"2";"[2,7,9]";"2";"0";"1"
"956";"10";"281";"1";"8";"3";"1";"11";"2";"[1,2,6]";"1";"0";"1"
"957";"14";"281";"1";"7";"2";"1";"11";"1";"[2,4,9,10]";"1";"0";"1"
"958";"36";"281";"1";"5";"2";"1";"11";"2";"[1,2,6]";"1";"0";"1"
"959";"32";"281";"1";"1";"2";"1";"11";"2";"[2,3,5,8,9]";"0";"9";"1"
"960";"19";"281";"1";"7";"4";"1";"11";"1";"[2,4,9,10]";"1";"0";"1"
"961";"5";"4";"1";"9";"1";"1";"11";"1";"[1,2,3,7,10]";"1";"0";"1"
"962";"9";"282";"1";"10";"4";"1";"11";"1";"[2,7,9]";"1";"0";"1"
"963";"29";"4";"1";"3";"1";"1";"11";"2";"[1,4,6,9]";"2";"0";"1"
"964";"7";"282";"1";"5";"4";"1";"11";"1";"[1,2,6]";"1";"0";"1"
"965";"12";"282";"1";"1";"3";"1";"11";"2";"[2,3,5,8,9]";"2";"0";"1"
"966";"28";"282";"1";"4";"2";"1";"11";"2";"[3,7]";"1";"0";"1"
"967";"16";"282";"1";"10";"2";"1";"11";"2";"[2,7,9]";"2";"0";"1"
"968";"10";"282";"1";"8";"3";"1";"11";"2";"[1,2,6]";"1";"0";"1"
"969";"15";"282";"1";"9";"3";"1";"11";"2";"[1,2,3,7,10]";"2";"0";"1"
"970";"31";"282";"1";"2";"2";"1";"11";"1";"[1,5,6,7,8,9,10]";"1";"0";"1"
"971";"14";"282";"1";"7";"2";"1";"11";"1";"[2,4,9,10]";"1";"0";"1"
"972";"27";"282";"1";"6";"4";"1";"11";"1";"[2,3,5,8]";"1";"0";"1"
"973";"24";"4";"1";"6";"1";"1";"11";"1";"[2,3,5,8]";"1";"0";"1"
"974";"36";"282";"1";"5";"2";"1";"11";"2";"[1,2,6]";"1";"0";"1"
"975";"32";"283";"1";"1";"2";"1";"11";"2";"[2,3,5,8,9]";"0";"10";"1"
"976";"9";"283";"1";"10";"4";"1";"11";"1";"[2,7,9]";"1";"0";"1"
"977";"1";"283";"1";"8";"4";"1";"11";"1";"[1,2,6]";"1";"0";"1"
"978";"7";"283";"1";"5";"4";"1";"11";"1";"[1,2,6]";"1";"0";"1"
"979";"4";"5";"1";"7";"1";"1";"11";"1";"[2,4,9,10]";"2";"0";"1"
"980";"39";"5";"1";"4";"1";"1";"11";"2";"[3,7]";"2";"0";"1"
"981";"15";"283";"1";"9";"3";"1";"11";"2";"[1,2,3,7,10]";"2";"0";"1"
"982";"31";"283";"1";"2";"2";"1";"11";"1";"[1,5,6,7,8,9,10]";"1";"0";"1"
"983";"27";"283";"1";"6";"4";"1";"11";"1";"[2,3,5,8]";"1";"0";"1"
"984";"24";"5";"1";"6";"1";"1";"11";"1";"[2,3,5,8]";"1";"0";"1"
"985";"1";"284";"1";"8";"4";"1";"11";"1";"[1,2,6]";"1";"0";"1"
"986";"4";"6";"1";"7";"1";"1";"11";"1";"[2,4,9,10]";"2";"0";"1"
"987";"21";"6";"1";"10";"1";"1";"11";"1";"[2,7,9]";"2";"0";"1"
"988";"39";"6";"1";"4";"1";"1";"11";"2";"[3,7]";"2";"0";"1"
"989";"22";"285";"1";"8";"2";"1";"11";"2";"[1,2,6]";"1";"0";"1"
"990";"21";"7";"1";"10";"1";"1";"11";"1";"[2,7,9]";"2";"0";"1"
"991";"2";"285";"1";"5";"3";"1";"11";"2";"[1,2,6]";"1";"0";"1"
"992";"30";"286";"1";"2";"4";"1";"11";"1";"[1,5,6,7,8,9,10]";"1";"0";"1"
"993";"22";"286";"1";"8";"2";"1";"11";"2";"[1,2,6]";"1";"0";"1"
"994";"26";"286";"1";"6";"3";"1";"11";"2";"[2,3,5,8]";"2";"0";"1"
"995";"2";"286";"1";"5";"3";"1";"11";"2";"[1,2,6]";"1";"0";"1"
"996";"30";"287";"1";"2";"4";"1";"11";"1";"[1,5,6,7,8,9,10]";"1";"0";"1"
"997";"35";"287";"1";"3";"4";"1";"11";"1";"[1,4,6,9]";"1";"0";"1"
"998";"37";"287";"1";"1";"4";"1";"11";"1";"[2,3,5,8,9]";"1";"0";"1"
"999";"26";"287";"1";"6";"3";"1";"11";"2";"[2,3,5,8]";"2";"0";"1"
"1000";"6";"288";"1";"2";"3";"1";"11";"1";"[1,5,6,7,8,9,10]";"2";"0";"1"
"1001";"35";"288";"1";"3";"4";"1";"11";"1";"[1,4,6,9]";"1";"0";"1"
"1002";"8";"288";"1";"7";"3";"1";"11";"2";"[2,4,9,10]";"1";"0";"1"
"1003";"37";"288";"1";"1";"4";"1";"11";"1";"[2,3,5,8,9]";"1";"0";"1"
"1004";"6";"289";"1";"2";"3";"1";"11";"1";"[1,5,6,7,8,9,10]";"2";"0";"1"
"1005";"32";"289";"1";"1";"2";"1";"11";"2";"[2,3,5,8,9]";"0";"9";"1"
"1006";"8";"289";"1";"7";"3";"1";"11";"2";"[2,4,9,10]";"1";"0";"1"
"1007";"32";"289";"1";"1";"2";"1";"11";"2";"[2,3,5,8,9]";"0";"8";"1"
"1008";"18";"290";"1";"4";"4";"1";"11";"1";"[3,7]";"1";"0";"1"
"1009";"32";"290";"1";"1";"2";"1";"11";"2";"[2,3,5,8,9]";"0";"9";"1"
"1010";"18";"291";"1";"4";"4";"1";"11";"1";"[3,7]";"1";"0";"1"
"1011";"11";"292";"1";"9";"4";"1";"11";"2";"[1,2,3,7,10]";"2";"0";"1"
"1012";"11";"293";"1";"9";"4";"1";"11";"2";"[1,2,3,7,10]";"2";"0";"1"
"1013";"40";"294";"1";"3";"2";"1";"11";"1";"[1,4,6,9]";"1";"0";"1"
"1014";"4";"16";"1";"7";"1";"1";"11";"1";"[2,4,9,10]";"2";"8";"1"
"1015";"35";"294";"1";"3";"4";"1";"11";"1";"[1,4,6,9]";"1";"8";"1"
"1016";"4";"17";"1";"7";"1";"1";"11";"1";"[2,4,9,10]";"2";"9";"1"
"1017";"40";"295";"1";"3";"2";"1";"11";"1";"[1,4,6,9]";"1";"0";"1"
"1018";"4";"18";"1";"7";"1";"1";"11";"1";"[2,4,9,10]";"2";"5";"1"
"1019";"4";"19";"1";"7";"1";"1";"11";"1";"[2,4,9,10]";"2";"7";"1"
"1020";"4";"20";"1";"7";"1";"1";"11";"1";"[2,4,9,10]";"2";"9";"1"
"1021";"32";"298";"1";"1";"2";"1";"11";"2";"[2,3,5,8,9]";"1";"9";"1"
"1022";"4";"20";"1";"7";"1";"1";"11";"1";"[2,4,9,10]";"2";"10";"1"
"1023";"35";"299";"1";"3";"4";"1";"11";"1";"[1,4,6,9]";"1";"9";"1"
"1024";"32";"299";"1";"1";"2";"1";"11";"2";"[2,3,5,8,9]";"1";"9";"1"
"1025";"4";"21";"1";"7";"1";"1";"11";"1";"[2,4,9,10]";"2";"12";"1"
"1026";"35";"301";"1";"3";"4";"1";"11";"1";"[1,4,6,9]";"1";"11";"1"
"1027";"3";"23";"1";"1";"1";"1";"11";"2";"[2,3,5,8,9]";"2";"0";"1"
"1028";"4";"23";"1";"7";"1";"1";"11";"1";"[2,4,9,10]";"2";"6";"1"
"1029";"34";"24";"1";"8";"1";"1";"11";"2";"[1,2,6]";"1";"0";"1"
"1030";"3";"24";"1";"1";"1";"1";"11";"2";"[2,3,5,8,9]";"2";"0";"1"
"1031";"4";"24";"1";"7";"1";"1";"11";"1";"[2,4,9,10]";"2";"4";"1"
"1032";"34";"25";"1";"8";"1";"1";"11";"2";"[1,2,6]";"1";"0";"1"
"1033";"10";"304";"1";"8";"3";"1";"12";"2";"[1,2,6]";"2";"0";"1"
"1034";"13";"304";"1";"10";"3";"1";"12";"2";"[2,7,9]";"2";"0";"1"
"1035";"38";"305";"1";"9";"2";"1";"12";"1";"[1,2,3,7,10]";"1";"0";"1"
"1036";"39";"2";"1";"4";"1";"1";"12";"2";"[3,7]";"2";"0";"1"
"1037";"15";"305";"1";"9";"3";"1";"12";"2";"[1,2,3,7,10]";"2";"0";"1"
"1038";"17";"305";"1";"4";"3";"1";"12";"2";"[3,7]";"2";"0";"1"
"1039";"5";"2";"1";"9";"1";"1";"12";"1";"[1,2,3,7,10]";"1";"0";"1"
"1040";"10";"305";"1";"8";"3";"1";"12";"2";"[1,2,6]";"2";"0";"1"
"1041";"13";"305";"1";"10";"3";"1";"12";"2";"[2,7,9]";"2";"0";"1"
"1042";"35";"305";"1";"3";"4";"1";"12";"1";"[1,4,6,9]";"1";"0";"1"
"1043";"29";"2";"1";"3";"1";"1";"12";"2";"[1,4,6,9]";"2";"0";"1"
"1044";"14";"305";"1";"7";"2";"1";"12";"1";"[2,4,9,10]";"1";"0";"1"
"1045";"23";"3";"1";"5";"1";"1";"12";"1";"[1,2,6]";"0";"10";"1"
"1046";"19";"306";"1";"7";"4";"1";"12";"1";"[2,4,9,10]";"1";"0";"1"
"1047";"22";"306";"1";"8";"2";"1";"12";"2";"[1,2,6]";"1";"0";"1"
"1048";"38";"306";"1";"9";"2";"1";"12";"1";"[1,2,3,7,10]";"1";"0";"1"
"1049";"24";"3";"1";"6";"1";"1";"12";"1";"[2,3,5,8]";"1";"0";"1"
"1050";"30";"306";"1";"2";"4";"1";"12";"1";"[1,5,6,7,8,9,10]";"0";"10";"1"
"1051";"39";"3";"1";"4";"1";"1";"12";"2";"[3,7]";"2";"0";"1"
"1052";"15";"306";"1";"9";"3";"1";"12";"2";"[1,2,3,7,10]";"2";"0";"1"
"1053";"8";"306";"1";"7";"3";"1";"12";"2";"[2,4,9,10]";"2";"0";"1"
"1054";"40";"306";"1";"3";"2";"1";"12";"1";"[1,4,6,9]";"1";"0";"1"
"1055";"33";"306";"1";"6";"2";"1";"12";"1";"[2,3,5,8]";"1";"0";"1"
"1056";"17";"306";"1";"4";"3";"1";"12";"2";"[3,7]";"2";"0";"1"
"1057";"1";"306";"1";"8";"4";"1";"12";"1";"[1,2,6]";"1";"0";"1"
"1058";"5";"3";"1";"9";"1";"1";"12";"1";"[1,2,3,7,10]";"1";"0";"1"
"1059";"23";"3";"1";"5";"1";"1";"12";"1";"[1,2,6]";"0";"9";"1"
"1060";"35";"306";"1";"3";"4";"1";"12";"1";"[1,4,6,9]";"1";"0";"1"
"1061";"29";"3";"1";"3";"1";"1";"12";"2";"[1,4,6,9]";"2";"0";"1"
"1062";"27";"306";"1";"6";"4";"1";"12";"1";"[2,3,5,8]";"1";"0";"1"
"1063";"14";"306";"1";"7";"2";"1";"12";"1";"[2,4,9,10]";"1";"0";"1"
"1064";"30";"307";"1";"2";"4";"1";"12";"1";"[1,5,6,7,8,9,10]";"0";"9";"1"
"1065";"19";"307";"1";"7";"4";"1";"12";"1";"[2,4,9,10]";"1";"0";"1"
"1066";"22";"307";"1";"8";"2";"1";"12";"2";"[1,2,6]";"1";"0";"1"
"1067";"24";"4";"1";"6";"1";"1";"12";"1";"[2,3,5,8]";"1";"0";"1"
"1068";"4";"4";"1";"7";"1";"1";"12";"1";"[2,4,9,10]";"2";"0";"1"
"1069";"23";"4";"1";"5";"1";"1";"12";"1";"[1,2,6]";"0";"8";"1"
"1070";"8";"307";"1";"7";"3";"1";"12";"2";"[2,4,9,10]";"2";"0";"1"
"1071";"40";"307";"1";"3";"2";"1";"12";"1";"[1,4,6,9]";"1";"0";"1"
"1072";"33";"307";"1";"6";"2";"1";"12";"1";"[2,3,5,8]";"1";"0";"1"
"1073";"1";"307";"1";"8";"4";"1";"12";"1";"[1,2,6]";"1";"0";"1"
"1074";"25";"4";"1";"2";"1";"1";"12";"1";"[1,5,6,7,8,9,10]";"2";"0";"1"
"1075";"23";"4";"1";"5";"1";"1";"12";"1";"[1,2,6]";"0";"7";"1"
"1076";"27";"307";"1";"6";"4";"1";"12";"1";"[2,3,5,8]";"1";"0";"1"
"1077";"30";"308";"1";"2";"4";"1";"12";"1";"[1,5,6,7,8,9,10]";"0";"8";"1"
"1078";"26";"308";"1";"6";"3";"1";"12";"2";"[2,3,5,8]";"2";"0";"1"
"1079";"4";"5";"1";"7";"1";"1";"12";"1";"[2,4,9,10]";"2";"0";"1"
"1080";"28";"308";"1";"4";"2";"1";"12";"2";"[3,7]";"1";"0";"1"
"1081";"18";"308";"1";"4";"4";"1";"12";"1";"[3,7]";"1";"0";"1"
"1082";"23";"5";"1";"5";"1";"1";"12";"1";"[1,2,6]";"0";"5";"1"
"1083";"36";"308";"1";"5";"2";"1";"12";"2";"[1,2,6]";"1";"0";"1"
"1084";"9";"308";"1";"10";"4";"1";"12";"1";"[2,7,9]";"1";"0";"1"
"1085";"25";"5";"1";"2";"1";"1";"12";"1";"[1,5,6,7,8,9,10]";"2";"0";"1"
"1086";"30";"308";"1";"2";"4";"1";"12";"1";"[1,5,6,7,8,9,10]";"0";"7";"1"
"1087";"23";"5";"1";"5";"1";"1";"12";"1";"[1,2,6]";"0";"4";"1"
"1088";"26";"309";"1";"6";"3";"1";"12";"2";"[2,3,5,8]";"2";"0";"1"
"1089";"11";"309";"1";"9";"4";"1";"12";"2";"[1,2,3,7,10]";"2";"0";"1"
"1090";"28";"309";"1";"4";"2";"1";"12";"2";"[3,7]";"1";"0";"1"
"1091";"18";"309";"1";"4";"4";"1";"12";"1";"[3,7]";"1";"0";"1"
"1092";"32";"309";"1";"1";"2";"1";"12";"2";"[2,3,5,8,9]";"2";"0";"1"
"1093";"2";"309";"1";"5";"3";"1";"12";"2";"[1,2,6]";"1";"0";"1"
"1094";"36";"309";"1";"5";"2";"1";"12";"2";"[1,2,6]";"1";"0";"1"
"1095";"9";"309";"1";"10";"4";"1";"12";"1";"[2,7,9]";"1";"0";"1"
"1096";"16";"309";"1";"10";"2";"1";"12";"2";"[2,7,9]";"2";"0";"1"
"1097";"30";"309";"1";"2";"4";"1";"12";"1";"[1,5,6,7,8,9,10]";"0";"5";"1"
"1098";"23";"6";"1";"5";"1";"1";"12";"1";"[1,2,6]";"0";"9";"1"
"1099";"23";"7";"1";"5";"1";"1";"12";"1";"[1,2,6]";"0";"10";"1"
"1100";"11";"310";"1";"9";"4";"1";"12";"2";"[1,2,3,7,10]";"2";"0";"1"
"1101";"30";"310";"1";"2";"4";"1";"12";"1";"[1,5,6,7,8,9,10]";"0";"3";"1"
"1102";"23";"7";"1";"5";"1";"1";"12";"1";"[1,2,6]";"0";"11";"1"
"1103";"32";"310";"1";"1";"2";"1";"12";"2";"[2,3,5,8,9]";"2";"0";"1"
"1104";"2";"310";"1";"5";"3";"1";"12";"2";"[1,2,6]";"1";"0";"1"
"1105";"31";"310";"1";"2";"2";"1";"12";"1";"[1,5,6,7,8,9,10]";"1";"0";"1"
"1106";"16";"310";"1";"10";"2";"1";"12";"2";"[2,7,9]";"2";"0";"1"
"1107";"21";"7";"1";"10";"1";"1";"12";"1";"[2,7,9]";"2";"0";"1"
"1108";"30";"311";"1";"2";"4";"1";"12";"1";"[1,5,6,7,8,9,10]";"0";"1";"1"
"1109";"6";"311";"1";"2";"3";"1";"12";"1";"[1,5,6,7,8,9,10]";"1";"0";"1"
"1110";"31";"311";"1";"2";"2";"1";"12";"1";"[1,5,6,7,8,9,10]";"1";"0";"1"
"1111";"20";"311";"1";"3";"3";"1";"12";"1";"[1,4,6,9]";"2";"0";"1"
"1112";"12";"311";"1";"1";"3";"1";"12";"2";"[2,3,5,8,9]";"1";"0";"1"
"1113";"30";"311";"1";"2";"4";"1";"12";"1";"[1,5,6,7,8,9,10]";"0";"12";"1"
"1114";"21";"8";"1";"10";"1";"1";"12";"1";"[2,7,9]";"2";"0";"1"
"1115";"6";"312";"1";"2";"3";"1";"12";"1";"[1,5,6,7,8,9,10]";"1";"0";"1"
"1116";"23";"9";"1";"5";"1";"1";"12";"1";"[1,2,6]";"0";"12";"1"
"1117";"20";"312";"1";"3";"3";"1";"12";"1";"[1,4,6,9]";"2";"0";"1"
"1118";"12";"312";"1";"1";"3";"1";"12";"2";"[2,3,5,8,9]";"1";"0";"1"
"1119";"30";"314";"1";"2";"4";"1";"12";"1";"[1,5,6,7,8,9,10]";"0";"10";"1"
"1120";"37";"314";"1";"1";"4";"1";"12";"1";"[2,3,5,8,9]";"1";"0";"1"
"1121";"23";"11";"1";"5";"1";"1";"12";"1";"[1,2,6]";"0";"12";"1"
"1122";"37";"315";"1";"1";"4";"1";"12";"1";"[2,3,5,8,9]";"1";"0";"1"
"1123";"30";"316";"1";"2";"4";"1";"12";"1";"[1,5,6,7,8,9,10]";"0";"9";"1"
"1124";"7";"317";"1";"5";"4";"1";"12";"1";"[1,2,6]";"1";"0";"1"
"1125";"7";"318";"1";"5";"4";"1";"12";"1";"[1,2,6]";"1";"0";"1"
"1126";"30";"318";"1";"2";"4";"1";"12";"1";"[1,5,6,7,8,9,10]";"0";"7";"1"
"1127";"34";"15";"1";"8";"1";"1";"12";"2";"[1,2,6]";"0";"1";"1"
"1128";"30";"319";"1";"2";"4";"1";"12";"1";"[1,5,6,7,8,9,10]";"0";"6";"1"
"1129";"23";"17";"1";"5";"1";"1";"12";"1";"[1,2,6]";"1";"12";"1"
"1130";"34";"17";"1";"8";"1";"1";"12";"2";"[1,2,6]";"0";"11";"1"
"1131";"23";"18";"1";"5";"1";"1";"12";"1";"[1,2,6]";"1";"12";"1"
"1132";"30";"321";"1";"2";"4";"1";"12";"1";"[1,5,6,7,8,9,10]";"0";"4";"1"
"1133";"30";"322";"1";"2";"4";"1";"12";"1";"[1,5,6,7,8,9,10]";"0";"3";"1"
"1134";"30";"323";"1";"2";"4";"1";"12";"1";"[1,5,6,7,8,9,10]";"0";"5";"1"
"1135";"30";"324";"1";"2";"4";"1";"12";"1";"[1,5,6,7,8,9,10]";"0";"4";"1"
"1136";"35";"325";"1";"3";"4";"1";"12";"1";"[1,4,6,9]";"1";"12";"1"
"1137";"3";"22";"1";"1";"1";"1";"12";"2";"[2,3,5,8,9]";"2";"0";"1"
"1138";"30";"326";"1";"2";"4";"1";"12";"1";"[1,5,6,7,8,9,10]";"1";"4";"1"
"1139";"3";"23";"1";"1";"1";"1";"12";"2";"[2,3,5,8,9]";"2";"0";"1"
"1140";"30";"327";"1";"2";"4";"1";"12";"1";"[1,5,6,7,8,9,10]";"1";"4";"1"
"1141";"30";"328";"1";"2";"4";"1";"12";"1";"[1,5,6,7,8,9,10]";"1";"7";"1"
"1142";"30";"329";"1";"2";"4";"1";"12";"1";"[1,5,6,7,8,9,10]";"1";"9";"1"
"1143";"34";"27";"1";"8";"1";"1";"12";"2";"[1,2,6]";"2";"11";"1"
"1144";"30";"330";"1";"2";"4";"1";"12";"1";"[1,5,6,7,8,9,10]";"1";"12";"1"
"1145";"34";"28";"1";"8";"1";"1";"12";"2";"[1,2,6]";"2";"11";"1"
"1146";"20";"0";"1";"1";"3";"2";"12";"1";"[2,3,5,8,9]";"1";"0";"1"
"1147";"24";"0";"1";"4";"1";"2";"12";"2";"[3,7]";"2";"0";"1"
"1148";"35";"0";"1";"3";"4";"2";"12";"2";"[1,4,6,9]";"1";"12";"1"
"1149";"10";"0";"1";"5";"3";"2";"12";"1";"[1,2,6]";"1";"0";"1"
"1150";"15";"0";"1";"3";"3";"2";"12";"1";"[1,4,6,9]";"2";"0";"1"
"1151";"17";"0";"1";"8";"3";"2";"12";"1";"[1,2,6]";"2";"0";"1"
"1152";"23";"0";"1";"6";"1";"2";"12";"2";"[2,3,5,8]";"1";"0";"1"
"1153";"27";"0";"1";"8";"4";"2";"12";"2";"[1,2,6]";"1";"0";"1"
"1154";"9";"0";"1";"5";"4";"2";"12";"1";"[1,2,6]";"1";"0";"1"
"1155";"14";"0";"1";"2";"2";"2";"12";"1";"[1,5,6,7,8,9,10]";"1";"0";"1"
"1156";"6";"0";"1";"4";"3";"2";"12";"1";"[3,7]";"2";"0";"1"
"1157";"18";"0";"1";"2";"4";"2";"12";"2";"[1,5,6,7,8,9,10]";"1";"12";"1"
"1158";"29";"0";"1";"2";"1";"2";"12";"2";"[1,5,6,7,8,9,10]";"2";"0";"1"
"1159";"33";"0";"1";"1";"2";"2";"12";"1";"[2,3,5,8,9]";"2";"0";"1"
"1160";"7";"0";"1";"6";"4";"2";"12";"1";"[2,3,5,8]";"1";"0";"1"
"1161";"4";"0";"1";"3";"1";"2";"12";"2";"[1,4,6,9]";"2";"0";"1"
"1162";"37";"0";"1";"7";"4";"2";"12";"2";"[2,4,9,10]";"1";"0";"1"
"1163";"2";"0";"1";"10";"3";"2";"12";"1";"[2,7,9]";"2";"0";"1"
"1164";"13";"0";"1";"2";"3";"2";"12";"1";"[1,5,6,7,8,9,10]";"1";"0";"1"
"1165";"25";"0";"1";"7";"1";"2";"12";"1";"[2,4,9,10]";"2";"0";"1"
"1166";"32";"0";"1";"9";"2";"2";"12";"1";"[1,2,3,7,10]";"1";"0";"1"
"1167";"8";"0";"1";"9";"3";"2";"12";"1";"[1,2,3,7,10]";"2";"0";"1"
"1168";"21";"0";"1";"8";"1";"2";"12";"2";"[1,2,6]";"2";"11";"1"
"1169";"30";"0";"1";"9";"4";"2";"12";"1";"[1,2,3,7,10]";"2";"0";"1"
"1170";"1";"0";"1";"10";"4";"2";"12";"1";"[2,7,9]";"1";"0";"1"
"1171";"11";"0";"1";"1";"4";"2";"12";"2";"[2,3,5,8,9]";"1";"0";"1"
"1172";"19";"0";"1";"4";"4";"2";"12";"2";"[3,7]";"1";"0";"1"
"1173";"28";"0";"1";"8";"2";"2";"12";"1";"[1,2,6]";"1";"0";"1"
"1174";"38";"0";"1";"10";"2";"2";"12";"1";"[2,7,9]";"2";"0";"1"
"1175";"5";"0";"1";"10";"1";"2";"12";"2";"[2,7,9]";"2";"0";"1"
"1176";"36";"0";"1";"4";"2";"2";"12";"1";"[3,7]";"1";"0";"1"
"1177";"39";"0";"1";"5";"1";"2";"12";"2";"[1,2,6]";"1";"12";"1"
"1178";"22";"0";"1";"5";"2";"2";"12";"1";"[1,2,6]";"1";"0";"1"
"1179";"34";"0";"1";"9";"1";"2";"12";"2";"[1,2,3,7,10]";"1";"0";"1"
"1180";"40";"0";"1";"3";"2";"2";"12";"2";"[1,4,6,9]";"1";"0";"1"
"1181";"12";"0";"1";"6";"3";"2";"12";"2";"[2,3,5,8]";"2";"0";"1"
"1182";"16";"0";"1";"7";"2";"2";"12";"1";"[2,4,9,10]";"1";"0";"1"
"1183";"3";"0";"1";"1";"1";"2";"12";"2";"[2,3,5,8,9]";"2";"0";"1"
"1184";"26";"0";"1";"7";"3";"2";"12";"1";"[2,4,9,10]";"2";"0";"1"
"1185";"31";"0";"1";"6";"2";"2";"12";"1";"[2,3,5,8]";"1";"0";"1"
"1186";"35";"2";"1";"3";"4";"2";"1";"2";"[1,4,6,9]";"2";"0";"1"
"1187";"21";"2";"1";"8";"1";"2";"1";"2";"[1,2,6]";"2";"0";"1"
"1188";"35";"3";"1";"3";"4";"2";"1";"2";"[1,4,6,9]";"2";"0";"1"
"1189";"9";"3";"1";"5";"4";"2";"1";"1";"[1,2,6]";"1";"0";"1"
"1190";"18";"3";"1";"2";"4";"2";"1";"2";"[1,5,6,7,8,9,10]";"2";"0";"1"
"1191";"24";"3";"1";"4";"1";"2";"1";"2";"[3,7]";"2";"0";"1"
"1192";"26";"3";"1";"7";"3";"2";"1";"1";"[2,4,9,10]";"1";"0";"1"
"1193";"13";"3";"1";"2";"3";"2";"1";"1";"[1,5,6,7,8,9,10]";"1";"0";"1"
"1194";"31";"3";"1";"6";"2";"2";"1";"1";"[2,3,5,8]";"1";"0";"1"
"1195";"4";"3";"1";"3";"1";"2";"1";"2";"[1,4,6,9]";"2";"0";"1"
"1196";"21";"3";"1";"8";"1";"2";"1";"2";"[1,2,6]";"2";"0";"1"
"1197";"17";"3";"1";"8";"3";"2";"1";"1";"[1,2,6]";"1";"0";"1"
"1198";"5";"4";"1";"10";"1";"2";"1";"2";"[2,7,9]";"2";"0";"1"
"1199";"9";"4";"1";"5";"4";"2";"1";"1";"[1,2,6]";"1";"0";"1"
"1200";"18";"4";"1";"2";"4";"2";"1";"2";"[1,5,6,7,8,9,10]";"2";"0";"1"
"1201";"24";"4";"1";"4";"1";"2";"1";"2";"[3,7]";"2";"0";"1"
"1202";"12";"4";"1";"6";"3";"2";"1";"2";"[2,3,5,8]";"2";"0";"1"
"1203";"33";"4";"1";"1";"2";"2";"1";"1";"[2,3,5,8,9]";"1";"0";"1"
"1204";"39";"4";"1";"5";"1";"2";"1";"2";"[1,2,6]";"2";"0";"1"
"1205";"26";"4";"1";"7";"3";"2";"1";"1";"[2,4,9,10]";"1";"0";"1"
"1206";"11";"4";"1";"1";"4";"2";"1";"2";"[2,3,5,8,9]";"2";"0";"1"
"1207";"34";"4";"1";"9";"1";"2";"1";"2";"[1,2,3,7,10]";"2";"0";"1"
"1208";"13";"4";"1";"2";"3";"2";"1";"1";"[1,5,6,7,8,9,10]";"1";"0";"1"
"1209";"31";"4";"1";"6";"2";"2";"1";"1";"[2,3,5,8]";"1";"0";"1"
"1210";"4";"4";"1";"3";"1";"2";"1";"2";"[1,4,6,9]";"2";"0";"1"
"1211";"29";"4";"1";"2";"1";"2";"1";"2";"[1,5,6,7,8,9,10]";"2";"0";"1"
"1212";"20";"4";"1";"1";"3";"2";"1";"1";"[2,3,5,8,9]";"1";"0";"1"
"1213";"17";"4";"1";"8";"3";"2";"1";"1";"[1,2,6]";"1";"0";"1"
"1214";"8";"5";"1";"9";"3";"2";"1";"1";"[1,2,3,7,10]";"1";"0";"1"
"1215";"5";"5";"1";"10";"1";"2";"1";"2";"[2,7,9]";"2";"0";"1"
"1216";"30";"5";"1";"9";"4";"2";"1";"1";"[1,2,3,7,10]";"1";"0";"1"
"1217";"12";"5";"1";"6";"3";"2";"1";"2";"[2,3,5,8]";"2";"0";"1"
"1218";"39";"5";"1";"5";"1";"2";"1";"2";"[1,2,6]";"2";"0";"1"
"1219";"33";"5";"1";"1";"2";"2";"1";"1";"[2,3,5,8,9]";"1";"0";"1"
"1220";"37";"5";"1";"7";"4";"2";"1";"2";"[2,4,9,10]";"2";"0";"1"
"1221";"11";"5";"1";"1";"4";"2";"1";"2";"[2,3,5,8,9]";"2";"0";"1"
"1222";"34";"5";"1";"9";"1";"2";"1";"2";"[1,2,3,7,10]";"2";"0";"1"
"1223";"29";"5";"1";"2";"1";"2";"1";"2";"[1,5,6,7,8,9,10]";"2";"0";"1"
"1224";"6";"5";"1";"4";"3";"2";"1";"1";"[3,7]";"1";"0";"1"
"1225";"20";"5";"1";"1";"3";"2";"1";"1";"[2,3,5,8,9]";"1";"0";"1"
"1226";"27";"5";"1";"8";"4";"2";"1";"2";"[1,2,6]";"1";"0";"1"
"1227";"8";"6";"1";"9";"3";"2";"1";"1";"[1,2,3,7,10]";"1";"0";"1"
"1228";"30";"6";"1";"9";"4";"2";"1";"1";"[1,2,3,7,10]";"1";"0";"1"
"1229";"37";"6";"1";"7";"4";"2";"1";"2";"[2,4,9,10]";"2";"0";"1"
"1230";"1";"6";"1";"10";"4";"2";"1";"1";"[2,7,9]";"1";"0";"1"
"1231";"14";"6";"1";"2";"2";"2";"1";"1";"[1,5,6,7,8,9,10]";"1";"0";"1"
"1232";"6";"6";"1";"4";"3";"2";"1";"1";"[3,7]";"1";"0";"1"
"1233";"27";"6";"1";"8";"4";"2";"1";"2";"[1,2,6]";"1";"0";"1"
"1234";"32";"7";"1";"9";"2";"2";"1";"1";"[1,2,3,7,10]";"1";"0";"1"
"1235";"1";"7";"1";"10";"4";"2";"1";"1";"[2,7,9]";"1";"0";"1"
"1236";"14";"7";"1";"2";"2";"2";"1";"1";"[1,5,6,7,8,9,10]";"1";"0";"1"
"1237";"36";"7";"1";"4";"2";"2";"1";"1";"[3,7]";"1";"0";"1"
"1238";"22";"7";"1";"5";"2";"2";"1";"1";"[1,2,6]";"1";"0";"1"
"1239";"25";"8";"1";"7";"1";"2";"1";"1";"[2,4,9,10]";"1";"0";"1"
"1240";"32";"8";"1";"9";"2";"2";"1";"1";"[1,2,3,7,10]";"1";"0";"1"
"1241";"7";"8";"1";"6";"4";"2";"1";"1";"[2,3,5,8]";"1";"0";"1"
"1242";"40";"8";"1";"3";"2";"2";"1";"2";"[1,4,6,9]";"2";"0";"1"
"1243";"36";"8";"1";"4";"2";"2";"1";"1";"[3,7]";"1";"0";"1"
"1244";"2";"8";"1";"10";"3";"2";"1";"1";"[2,7,9]";"1";"0";"1"
"1245";"28";"8";"1";"8";"2";"2";"1";"1";"[1,2,6]";"1";"0";"1"
"1246";"22";"8";"1";"5";"2";"2";"1";"1";"[1,2,6]";"1";"0";"1"
"1247";"16";"8";"1";"7";"2";"2";"1";"1";"[2,4,9,10]";"1";"0";"1"
"1248";"25";"9";"1";"7";"1";"2";"1";"1";"[2,4,9,10]";"1";"0";"1"
"1249";"38";"9";"1";"10";"2";"2";"1";"1";"[2,7,9]";"1";"0";"1"
"1250";"7";"9";"1";"6";"4";"2";"1";"1";"[2,3,5,8]";"1";"0";"1"
"1251";"40";"9";"1";"3";"2";"2";"1";"2";"[1,4,6,9]";"2";"0";"1"
"1252";"2";"9";"1";"10";"3";"2";"1";"1";"[2,7,9]";"1";"0";"1"
"1253";"28";"9";"1";"8";"2";"2";"1";"1";"[1,2,6]";"1";"0";"1"
"1254";"3";"9";"1";"1";"1";"2";"1";"2";"[2,3,5,8,9]";"2";"0";"1"
"1255";"16";"9";"1";"7";"2";"2";"1";"1";"[2,4,9,10]";"1";"0";"1"
"1256";"38";"10";"1";"10";"2";"2";"1";"1";"[2,7,9]";"1";"0";"1"
"1257";"3";"10";"1";"1";"1";"2";"1";"2";"[2,3,5,8,9]";"2";"0";"1"
"1258";"19";"11";"1";"4";"4";"2";"1";"2";"[3,7]";"2";"0";"1"
"1259";"10";"11";"1";"5";"3";"2";"1";"1";"[1,2,6]";"2";"0";"1"
"1260";"19";"12";"1";"4";"4";"2";"1";"2";"[3,7]";"2";"0";"1"
"1261";"10";"12";"1";"5";"3";"2";"1";"1";"[1,2,6]";"2";"0";"1"
"1262";"15";"17";"1";"3";"3";"2";"1";"1";"[1,4,6,9]";"1";"0";"1"
"1263";"15";"18";"1";"3";"3";"2";"1";"1";"[1,4,6,9]";"1";"0";"1"
"1264";"23";"24";"1";"6";"1";"2";"1";"2";"[2,3,5,8]";"2";"0";"1"
"1265";"23";"25";"1";"6";"1";"2";"1";"2";"[2,3,5,8]";"2";"0";"1"
"1266";"33";"27";"1";"1";"2";"2";"2";"1";"[2,3,5,8,9]";"1";"0";"1"
"1267";"38";"27";"1";"10";"2";"2";"2";"1";"[2,7,9]";"1";"0";"1"
"1268";"17";"27";"1";"8";"3";"2";"2";"1";"[1,2,6]";"1";"0";"1"
"1269";"8";"28";"1";"9";"3";"2";"2";"1";"[1,2,3,7,10]";"1";"0";"1"
"1270";"21";"3";"1";"8";"1";"2";"2";"2";"[1,2,6]";"2";"0";"1"
"1271";"33";"28";"1";"1";"2";"2";"2";"1";"[2,3,5,8,9]";"1";"0";"1"
"1272";"38";"28";"1";"10";"2";"2";"2";"1";"[2,7,9]";"1";"0";"1"
"1273";"20";"28";"1";"1";"3";"2";"2";"1";"[2,3,5,8,9]";"1";"0";"1"
"1274";"23";"3";"1";"6";"1";"2";"2";"2";"[2,3,5,8]";"2";"0";"1"
"1275";"17";"28";"1";"8";"3";"2";"2";"1";"[1,2,6]";"1";"0";"1"
"1276";"2";"29";"1";"10";"3";"2";"2";"1";"[2,7,9]";"1";"0";"1"
"1277";"24";"4";"1";"4";"1";"2";"2";"2";"[3,7]";"2";"0";"1"
"1278";"4";"4";"1";"3";"1";"2";"2";"2";"[1,4,6,9]";"2";"0";"1"
"1279";"8";"29";"1";"9";"3";"2";"2";"1";"[1,2,3,7,10]";"1";"0";"1"
"1280";"27";"29";"1";"8";"4";"2";"2";"2";"[1,2,6]";"1";"0";"1"
"1281";"6";"29";"1";"4";"3";"2";"2";"1";"[3,7]";"1";"0";"1"
"1282";"21";"4";"1";"8";"1";"2";"2";"2";"[1,2,6]";"2";"0";"1"
"1283";"35";"29";"1";"3";"4";"2";"2";"2";"[1,4,6,9]";"2";"0";"1"
"1284";"20";"29";"1";"1";"3";"2";"2";"1";"[2,3,5,8,9]";"1";"0";"1"
"1285";"23";"4";"1";"6";"1";"2";"2";"2";"[2,3,5,8]";"2";"0";"1"
"1286";"32";"29";"1";"9";"2";"2";"2";"1";"[1,2,3,7,10]";"1";"0";"1"
"1287";"2";"30";"1";"10";"3";"2";"2";"1";"[2,7,9]";"1";"0";"1"
"1288";"24";"5";"1";"4";"1";"2";"2";"2";"[3,7]";"2";"0";"1"
"1289";"4";"5";"1";"3";"1";"2";"2";"2";"[1,4,6,9]";"2";"0";"1"
"1290";"27";"30";"1";"8";"4";"2";"2";"2";"[1,2,6]";"1";"0";"1"
"1291";"6";"30";"1";"4";"3";"2";"2";"1";"[3,7]";"1";"0";"1"
"1292";"35";"30";"1";"3";"4";"2";"2";"2";"[1,4,6,9]";"2";"0";"1"
"1293";"11";"30";"1";"1";"4";"2";"2";"2";"[2,3,5,8,9]";"2";"0";"1"
"1294";"25";"5";"1";"7";"1";"2";"2";"1";"[2,4,9,10]";"2";"0";"1"
"1295";"32";"30";"1";"9";"2";"2";"2";"1";"[1,2,3,7,10]";"1";"0";"1"
"1296";"39";"6";"1";"5";"1";"2";"2";"2";"[1,2,6]";"2";"0";"1"
"1297";"29";"6";"1";"2";"1";"2";"2";"2";"[1,5,6,7,8,9,10]";"2";"0";"1"
"1298";"11";"31";"1";"1";"4";"2";"2";"2";"[2,3,5,8,9]";"2";"0";"1"
"1299";"13";"31";"1";"2";"3";"2";"2";"1";"[1,5,6,7,8,9,10]";"1";"0";"1"
"1300";"25";"6";"1";"7";"1";"2";"2";"1";"[2,4,9,10]";"2";"0";"1"
"1301";"40";"32";"1";"3";"2";"2";"2";"2";"[1,4,6,9]";"1";"0";"1"
"1302";"39";"7";"1";"5";"1";"2";"2";"2";"[1,2,6]";"2";"0";"1"
"1303";"5";"7";"1";"10";"1";"2";"2";"2";"[2,7,9]";"2";"0";"1"
"1304";"29";"7";"1";"2";"1";"2";"2";"2";"[1,5,6,7,8,9,10]";"2";"0";"1"
"1305";"13";"32";"1";"2";"3";"2";"2";"1";"[1,5,6,7,8,9,10]";"1";"0";"1"
"1306";"40";"33";"1";"3";"2";"2";"2";"2";"[1,4,6,9]";"1";"0";"1"
"1307";"5";"8";"1";"10";"1";"2";"2";"2";"[2,7,9]";"2";"0";"1"
"1308";"16";"33";"1";"7";"2";"2";"2";"1";"[2,4,9,10]";"1";"0";"1"
"1309";"28";"33";"1";"8";"2";"2";"2";"1";"[1,2,6]";"1";"0";"1"
"1310";"26";"34";"1";"7";"3";"2";"2";"1";"[2,4,9,10]";"1";"0";"1"
"1311";"36";"34";"1";"4";"2";"2";"2";"1";"[3,7]";"1";"0";"1"
"1312";"34";"9";"1";"9";"1";"2";"2";"2";"[1,2,3,7,10]";"2";"0";"1"
"1313";"10";"34";"1";"5";"3";"2";"2";"1";"[1,2,6]";"1";"0";"1"
"1314";"16";"34";"1";"7";"2";"2";"2";"1";"[2,4,9,10]";"1";"0";"1"
"1315";"28";"34";"1";"8";"2";"2";"2";"1";"[1,2,6]";"1";"0";"1"
"1316";"18";"34";"1";"2";"4";"2";"2";"2";"[1,5,6,7,8,9,10]";"1";"0";"1"
"1317";"26";"35";"1";"7";"3";"2";"2";"1";"[2,4,9,10]";"1";"0";"1"
"1318";"36";"35";"1";"4";"2";"2";"2";"1";"[3,7]";"1";"0";"1"
"1319";"34";"10";"1";"9";"1";"2";"2";"2";"[1,2,3,7,10]";"2";"0";"1"
"1320";"10";"35";"1";"5";"3";"2";"2";"1";"[1,2,6]";"1";"0";"1"
"1321";"22";"35";"1";"5";"2";"2";"2";"1";"[1,2,6]";"1";"0";"1"
"1322";"18";"35";"1";"2";"4";"2";"2";"2";"[1,5,6,7,8,9,10]";"1";"0";"1"
"1323";"14";"36";"1";"2";"2";"2";"2";"1";"[1,5,6,7,8,9,10]";"1";"0";"1"
"1324";"22";"36";"1";"5";"2";"2";"2";"1";"[1,2,6]";"1";"0";"1"
"1325";"7";"36";"1";"6";"4";"2";"2";"1";"[2,3,5,8]";"1";"0";"1"
"1326";"14";"37";"1";"2";"2";"2";"2";"1";"[1,5,6,7,8,9,10]";"1";"0";"1"
"1327";"12";"37";"1";"6";"3";"2";"2";"2";"[2,3,5,8]";"2";"0";"1"
"1328";"15";"37";"1";"3";"3";"2";"2";"1";"[1,4,6,9]";"1";"0";"1"
"1329";"7";"37";"1";"6";"4";"2";"2";"1";"[2,3,5,8]";"1";"0";"1"
"1330";"19";"37";"1";"4";"4";"2";"2";"2";"[3,7]";"1";"0";"1"
"1331";"31";"38";"1";"6";"2";"2";"2";"1";"[2,3,5,8]";"1";"0";"1"
"1332";"12";"38";"1";"6";"3";"2";"2";"2";"[2,3,5,8]";"2";"0";"1"
"1333";"9";"38";"1";"5";"4";"2";"2";"1";"[1,2,6]";"2";"0";"1"
"1334";"15";"38";"1";"3";"3";"2";"2";"1";"[1,4,6,9]";"1";"0";"1"
"1335";"19";"38";"1";"4";"4";"2";"2";"2";"[3,7]";"1";"0";"1"
"1336";"31";"39";"1";"6";"2";"2";"2";"1";"[2,3,5,8]";"1";"0";"1"
"1337";"37";"39";"1";"7";"4";"2";"2";"2";"[2,4,9,10]";"2";"0";"1"
"1338";"9";"39";"1";"5";"4";"2";"2";"1";"[1,2,6]";"2";"0";"1"
"1339";"37";"40";"1";"7";"4";"2";"2";"2";"[2,4,9,10]";"2";"0";"1"
"1340";"1";"40";"1";"10";"4";"2";"2";"1";"[2,7,9]";"1";"0";"1"
"1341";"1";"41";"1";"10";"4";"2";"2";"1";"[2,7,9]";"1";"0";"1"
"1342";"30";"42";"1";"9";"4";"2";"2";"1";"[1,2,3,7,10]";"2";"0";"1"
"1343";"30";"43";"1";"9";"4";"2";"2";"1";"[1,2,3,7,10]";"2";"0";"1"
"1344";"3";"26";"1";"1";"1";"2";"2";"2";"[2,3,5,8,9]";"2";"0";"1"
"1345";"3";"27";"1";"1";"1";"2";"2";"2";"[2,3,5,8,9]";"2";"0";"1"
"1346";"20";"54";"1";"1";"3";"2";"3";"1";"[2,3,5,8,9]";"1";"0";"1"
"1347";"24";"2";"1";"4";"1";"2";"3";"2";"[3,7]";"2";"0";"1"
"1348";"27";"54";"1";"8";"4";"2";"3";"2";"[1,2,6]";"1";"0";"1"
"1349";"17";"54";"1";"8";"3";"2";"3";"1";"[1,2,6]";"1";"0";"1"
"1350";"14";"54";"1";"2";"2";"2";"3";"1";"[1,5,6,7,8,9,10]";"1";"0";"1"
"1351";"4";"3";"1";"3";"1";"2";"3";"2";"[1,4,6,9]";"2";"0";"1"
"1352";"21";"3";"1";"8";"1";"2";"3";"2";"[1,2,6]";"2";"0";"1"
"1353";"8";"55";"1";"9";"3";"2";"3";"1";"[1,2,3,7,10]";"1";"0";"1"
"1354";"5";"3";"1";"10";"1";"2";"3";"2";"[2,7,9]";"2";"0";"1"
"1355";"20";"55";"1";"1";"3";"2";"3";"1";"[2,3,5,8,9]";"1";"0";"1"
"1356";"24";"3";"1";"4";"1";"2";"3";"2";"[3,7]";"2";"0";"1"
"1357";"27";"55";"1";"8";"4";"2";"3";"2";"[1,2,6]";"1";"0";"1"
"1358";"28";"55";"1";"8";"2";"2";"3";"1";"[1,2,6]";"1";"0";"1"
"1359";"17";"55";"1";"8";"3";"2";"3";"1";"[1,2,6]";"1";"0";"1"
"1360";"33";"55";"1";"1";"2";"2";"3";"1";"[2,3,5,8,9]";"1";"0";"1"
"1361";"14";"55";"1";"2";"2";"2";"3";"1";"[1,5,6,7,8,9,10]";"1";"0";"1"
"1362";"4";"4";"1";"3";"1";"2";"3";"2";"[1,4,6,9]";"2";"0";"1"
"1363";"21";"4";"1";"8";"1";"2";"3";"2";"[1,2,6]";"2";"0";"1"
"1364";"8";"56";"1";"9";"3";"2";"3";"1";"[1,2,3,7,10]";"1";"0";"1"
"1365";"5";"4";"1";"10";"1";"2";"3";"2";"[2,7,9]";"2";"0";"1"
"1366";"34";"4";"1";"9";"1";"2";"3";"2";"[1,2,3,7,10]";"2";"0";"1"
"1367";"2";"56";"1";"10";"3";"2";"3";"1";"[2,7,9]";"2";"0";"1"
"1368";"15";"56";"1";"3";"3";"2";"3";"1";"[1,4,6,9]";"1";"0";"1"
"1369";"28";"56";"1";"8";"2";"2";"3";"1";"[1,2,6]";"1";"0";"1"
"1370";"33";"56";"1";"1";"2";"2";"3";"1";"[2,3,5,8,9]";"1";"0";"1"
"1371";"22";"57";"1";"5";"2";"2";"3";"1";"[1,2,6]";"1";"0";"1"
"1372";"16";"57";"1";"7";"2";"2";"3";"1";"[2,4,9,10]";"1";"0";"1"
"1373";"34";"5";"1";"9";"1";"2";"3";"2";"[1,2,3,7,10]";"2";"0";"1"
"1374";"31";"57";"1";"6";"2";"2";"3";"1";"[2,3,5,8]";"1";"0";"1"
"1375";"2";"57";"1";"10";"3";"2";"3";"1";"[2,7,9]";"2";"0";"1"
"1376";"13";"57";"1";"2";"3";"2";"3";"1";"[1,5,6,7,8,9,10]";"1";"0";"1"
"1377";"15";"57";"1";"3";"3";"2";"3";"1";"[1,4,6,9]";"1";"0";"1"
"1378";"12";"57";"1";"6";"3";"2";"3";"2";"[2,3,5,8]";"1";"0";"1"
"1379";"23";"5";"1";"6";"1";"2";"3";"2";"[2,3,5,8]";"2";"0";"1"
"1380";"22";"58";"1";"5";"2";"2";"3";"1";"[1,2,6]";"1";"0";"1"
"1381";"16";"58";"1";"7";"2";"2";"3";"1";"[2,4,9,10]";"1";"0";"1"
"1382";"1";"58";"1";"10";"4";"2";"3";"1";"[2,7,9]";"2";"0";"1"
"1383";"31";"58";"1";"6";"2";"2";"3";"1";"[2,3,5,8]";"1";"0";"1"
"1384";"13";"58";"1";"2";"3";"2";"3";"1";"[1,5,6,7,8,9,10]";"1";"0";"1"
"1385";"12";"58";"1";"6";"3";"2";"3";"2";"[2,3,5,8]";"1";"0";"1"
"1386";"30";"58";"1";"9";"4";"2";"3";"1";"[1,2,3,7,10]";"0";"1";"1"
"1387";"23";"6";"1";"6";"1";"2";"3";"2";"[2,3,5,8]";"2";"0";"1"
"1388";"38";"58";"1";"10";"2";"2";"3";"1";"[2,7,9]";"1";"0";"1"
"1389";"7";"59";"1";"6";"4";"2";"3";"1";"[2,3,5,8]";"2";"0";"1"
"1390";"1";"59";"1";"10";"4";"2";"3";"1";"[2,7,9]";"2";"0";"1"
"1391";"19";"59";"1";"4";"4";"2";"3";"2";"[3,7]";"2";"0";"1"
"1392";"11";"59";"1";"1";"4";"2";"3";"2";"[2,3,5,8,9]";"1";"0";"1"
"1393";"10";"59";"1";"5";"3";"2";"3";"1";"[1,2,6]";"1";"0";"1"
"1394";"38";"60";"1";"10";"2";"2";"3";"1";"[2,7,9]";"1";"0";"1"
"1395";"7";"60";"1";"6";"4";"2";"3";"1";"[2,3,5,8]";"2";"0";"1"
"1396";"19";"60";"1";"4";"4";"2";"3";"2";"[3,7]";"2";"0";"1"
"1397";"26";"60";"1";"7";"3";"2";"3";"1";"[2,4,9,10]";"1";"0";"1"
"1398";"11";"60";"1";"1";"4";"2";"3";"2";"[2,3,5,8,9]";"1";"0";"1"
"1399";"10";"60";"1";"5";"3";"2";"3";"1";"[1,2,6]";"1";"0";"1"
"1400";"29";"8";"1";"2";"1";"2";"3";"2";"[1,5,6,7,8,9,10]";"2";"0";"1"
"1401";"26";"61";"1";"7";"3";"2";"3";"1";"[2,4,9,10]";"1";"0";"1"
"1402";"36";"61";"1";"4";"2";"2";"3";"1";"[3,7]";"1";"0";"1"
"1403";"25";"9";"1";"7";"1";"2";"3";"1";"[2,4,9,10]";"2";"0";"1"
"1404";"29";"10";"1";"2";"1";"2";"3";"2";"[1,5,6,7,8,9,10]";"2";"0";"1"
"1405";"40";"62";"1";"3";"2";"2";"3";"2";"[1,4,6,9]";"1";"0";"1"
"1406";"30";"62";"1";"9";"4";"2";"3";"1";"[1,2,3,7,10]";"0";"2";"1"
"1407";"36";"62";"1";"4";"2";"2";"3";"1";"[3,7]";"1";"0";"1"
"1408";"25";"10";"1";"7";"1";"2";"3";"1";"[2,4,9,10]";"2";"0";"1"
"1409";"40";"63";"1";"3";"2";"2";"3";"2";"[1,4,6,9]";"1";"0";"1"
"1410";"37";"63";"1";"7";"4";"2";"3";"2";"[2,4,9,10]";"2";"0";"1"
"1411";"33";"64";"1";"1";"2";"2";"3";"1";"[2,3,5,8,9]";"1";"1";"1"
"1412";"30";"64";"1";"9";"4";"2";"3";"1";"[1,2,3,7,10]";"0";"1";"1"
"1413";"37";"64";"1";"7";"4";"2";"3";"2";"[2,4,9,10]";"2";"0";"1"
"1414";"33";"66";"1";"1";"2";"2";"3";"1";"[2,3,5,8,9]";"1";"6";"1"
"1415";"35";"66";"1";"3";"4";"2";"3";"2";"[1,4,6,9]";"2";"0";"1"
"1416";"30";"66";"1";"9";"4";"2";"3";"1";"[1,2,3,7,10]";"0";"2";"1"
"1417";"35";"67";"1";"3";"4";"2";"3";"2";"[1,4,6,9]";"2";"0";"1"
"1418";"6";"67";"1";"4";"3";"2";"3";"1";"[3,7]";"1";"0";"1"
"1419";"9";"67";"1";"5";"4";"2";"3";"1";"[1,2,6]";"1";"0";"1"
"1420";"6";"68";"1";"4";"3";"2";"3";"1";"[3,7]";"1";"0";"1"
"1421";"9";"68";"1";"5";"4";"2";"3";"1";"[1,2,6]";"1";"0";"1"
"1422";"39";"17";"1";"5";"1";"2";"3";"2";"[1,2,6]";"2";"0";"1"
"1423";"30";"69";"1";"9";"4";"2";"3";"1";"[1,2,3,7,10]";"2";"2";"1"
"1424";"39";"18";"1";"5";"1";"2";"3";"2";"[1,2,6]";"2";"0";"1"
"1425";"32";"70";"1";"9";"2";"2";"3";"1";"[1,2,3,7,10]";"2";"0";"1"
"1426";"18";"70";"1";"2";"4";"2";"3";"2";"[1,5,6,7,8,9,10]";"2";"0";"1"
"1427";"30";"70";"1";"9";"4";"2";"3";"1";"[1,2,3,7,10]";"2";"2";"1"
"1428";"32";"71";"1";"9";"2";"2";"3";"1";"[1,2,3,7,10]";"2";"0";"1"
"1429";"18";"71";"1";"2";"4";"2";"3";"2";"[1,5,6,7,8,9,10]";"2";"0";"1"
"1430";"3";"24";"1";"1";"1";"2";"3";"2";"[2,3,5,8,9]";"1";"0";"1"
"1431";"3";"25";"1";"1";"1";"2";"3";"2";"[2,3,5,8,9]";"1";"0";"1"
"1432";"17";"78";"1";"8";"3";"2";"4";"1";"[1,2,6]";"1";"0";"1"
"1433";"21";"2";"1";"8";"1";"2";"4";"2";"[1,2,6]";"2";"0";"1"
"1434";"20";"79";"1";"1";"3";"2";"4";"1";"[2,3,5,8,9]";"1";"0";"1"
"1435";"22";"79";"1";"5";"2";"2";"4";"1";"[1,2,6]";"1";"0";"1"
"1436";"17";"79";"1";"8";"3";"2";"4";"1";"[1,2,6]";"1";"0";"1"
"1437";"13";"80";"1";"2";"3";"2";"4";"1";"[1,5,6,7,8,9,10]";"1";"0";"1"
"1438";"1";"80";"1";"10";"4";"2";"4";"1";"[2,7,9]";"2";"0";"1"
"1439";"24";"3";"1";"4";"1";"2";"4";"2";"[3,7]";"2";"0";"1"
"1440";"21";"3";"1";"8";"1";"2";"4";"2";"[1,2,6]";"2";"0";"1"
"1441";"15";"80";"1";"3";"3";"2";"4";"1";"[1,4,6,9]";"1";"0";"1"
"1442";"20";"80";"1";"1";"3";"2";"4";"1";"[2,3,5,8,9]";"1";"0";"1"
"1443";"23";"3";"1";"6";"1";"2";"4";"2";"[2,3,5,8]";"0";"2";"1"
"1444";"10";"80";"1";"5";"3";"2";"4";"1";"[1,2,6]";"1";"0";"1"
"1445";"22";"80";"1";"5";"2";"2";"4";"1";"[1,2,6]";"1";"0";"1"
"1446";"33";"80";"1";"1";"2";"2";"4";"1";"[2,3,5,8,9]";"1";"0";"1"
"1447";"25";"3";"1";"7";"1";"2";"4";"1";"[2,4,9,10]";"1";"0";"1"
"1448";"23";"3";"1";"6";"1";"2";"4";"2";"[2,3,5,8]";"0";"1";"1"
"1449";"13";"81";"1";"2";"3";"2";"4";"1";"[1,5,6,7,8,9,10]";"1";"0";"1"
"1450";"1";"81";"1";"10";"4";"2";"4";"1";"[2,7,9]";"2";"0";"1"
"1451";"24";"4";"1";"4";"1";"2";"4";"2";"[3,7]";"2";"0";"1"
"1452";"5";"4";"1";"10";"1";"2";"4";"2";"[2,7,9]";"2";"0";"1"
"1453";"27";"81";"1";"8";"4";"2";"4";"2";"[1,2,6]";"1";"0";"1"
"1454";"15";"81";"1";"3";"3";"2";"4";"1";"[1,4,6,9]";"1";"0";"1"
"1455";"28";"81";"1";"8";"2";"2";"4";"1";"[1,2,6]";"1";"0";"1"
"1456";"36";"81";"1";"4";"2";"2";"4";"1";"[3,7]";"1";"0";"1"
"1457";"10";"81";"1";"5";"3";"2";"4";"1";"[1,2,6]";"1";"0";"1"
"1458";"30";"81";"1";"9";"4";"2";"4";"1";"[1,2,3,7,10]";"2";"0";"1"
"1459";"33";"81";"1";"1";"2";"2";"4";"1";"[2,3,5,8,9]";"1";"0";"1"
"1460";"29";"4";"1";"2";"1";"2";"4";"2";"[1,5,6,7,8,9,10]";"2";"0";"1"
"1461";"25";"4";"1";"7";"1";"2";"4";"1";"[2,4,9,10]";"1";"0";"1"
"1462";"23";"5";"1";"6";"1";"2";"4";"2";"[2,3,5,8]";"0";"2";"1"
"1463";"5";"5";"1";"10";"1";"2";"4";"2";"[2,7,9]";"2";"0";"1"
"1464";"27";"82";"1";"8";"4";"2";"4";"2";"[1,2,6]";"1";"0";"1"
"1465";"19";"82";"1";"4";"4";"2";"4";"2";"[3,7]";"2";"0";"1"
"1466";"28";"82";"1";"8";"2";"2";"4";"1";"[1,2,6]";"1";"0";"1"
"1467";"36";"82";"1";"4";"2";"2";"4";"1";"[3,7]";"1";"0";"1"
"1468";"34";"5";"1";"9";"1";"2";"4";"2";"[1,2,3,7,10]";"0";"1";"1"
"1469";"16";"82";"1";"7";"2";"2";"4";"1";"[2,4,9,10]";"1";"0";"1"
"1470";"30";"82";"1";"9";"4";"2";"4";"1";"[1,2,3,7,10]";"2";"0";"1"
"1471";"32";"82";"1";"9";"2";"2";"4";"1";"[1,2,3,7,10]";"1";"0";"1"
"1472";"23";"5";"1";"6";"1";"2";"4";"2";"[2,3,5,8]";"0";"3";"1"
"1473";"29";"5";"1";"2";"1";"2";"4";"2";"[1,5,6,7,8,9,10]";"2";"0";"1"
"1474";"12";"83";"1";"6";"3";"2";"4";"2";"[2,3,5,8]";"1";"0";"1"
"1475";"19";"83";"1";"4";"4";"2";"4";"2";"[3,7]";"2";"0";"1"
"1476";"23";"6";"1";"6";"1";"2";"4";"2";"[2,3,5,8]";"2";"3";"1"
"1477";"4";"6";"1";"3";"1";"2";"4";"2";"[1,4,6,9]";"2";"0";"1"
"1478";"16";"83";"1";"7";"2";"2";"4";"1";"[2,4,9,10]";"1";"0";"1"
"1479";"8";"83";"1";"9";"3";"2";"4";"1";"[1,2,3,7,10]";"1";"0";"1"
"1480";"32";"83";"1";"9";"2";"2";"4";"1";"[1,2,3,7,10]";"1";"0";"1"
"1481";"12";"84";"1";"6";"3";"2";"4";"2";"[2,3,5,8]";"1";"0";"1"
"1482";"9";"84";"1";"5";"4";"2";"4";"1";"[1,2,6]";"2";"0";"1"
"1483";"31";"84";"1";"6";"2";"2";"4";"1";"[2,3,5,8]";"1";"0";"1"
"1484";"23";"7";"1";"6";"1";"2";"4";"2";"[2,3,5,8]";"2";"3";"1"
"1485";"4";"7";"1";"3";"1";"2";"4";"2";"[1,4,6,9]";"2";"0";"1"
"1486";"8";"84";"1";"9";"3";"2";"4";"1";"[1,2,3,7,10]";"1";"0";"1"
"1487";"7";"84";"1";"6";"4";"2";"4";"1";"[2,3,5,8]";"2";"0";"1"
"1488";"2";"85";"1";"10";"3";"2";"4";"1";"[2,7,9]";"1";"0";"1"
"1489";"34";"8";"1";"9";"1";"2";"4";"2";"[1,2,3,7,10]";"0";"3";"1"
"1490";"9";"85";"1";"5";"4";"2";"4";"1";"[1,2,6]";"2";"0";"1"
"1491";"31";"85";"1";"6";"2";"2";"4";"1";"[2,3,5,8]";"1";"0";"1"
"1492";"37";"85";"1";"7";"4";"2";"4";"2";"[2,4,9,10]";"2";"0";"1"
"1493";"7";"85";"1";"6";"4";"2";"4";"1";"[2,3,5,8]";"2";"0";"1"
"1494";"2";"86";"1";"10";"3";"2";"4";"1";"[2,7,9]";"1";"0";"1"
"1495";"37";"86";"1";"7";"4";"2";"4";"2";"[2,4,9,10]";"2";"0";"1"
"1496";"26";"88";"1";"7";"3";"2";"4";"1";"[2,4,9,10]";"1";"0";"1"
"1497";"34";"12";"1";"9";"1";"2";"4";"2";"[1,2,3,7,10]";"2";"3";"1"
"1498";"26";"89";"1";"7";"3";"2";"4";"1";"[2,4,9,10]";"1";"0";"1"
"1499";"34";"13";"1";"9";"1";"2";"4";"2";"[1,2,3,7,10]";"2";"3";"1"
"1500";"14";"91";"1";"2";"2";"2";"4";"1";"[1,5,6,7,8,9,10]";"1";"0";"1"
"1501";"11";"91";"1";"1";"4";"2";"4";"2";"[2,3,5,8,9]";"1";"0";"1"
"1502";"14";"92";"1";"2";"2";"2";"4";"1";"[1,5,6,7,8,9,10]";"1";"0";"1"
"1503";"11";"92";"1";"1";"4";"2";"4";"2";"[2,3,5,8,9]";"1";"0";"1"
"1504";"34";"17";"1";"9";"1";"2";"4";"2";"[1,2,3,7,10]";"2";"1";"1"
"1505";"35";"95";"1";"3";"4";"2";"4";"2";"[1,4,6,9]";"2";"0";"1"
"1506";"34";"19";"1";"9";"1";"2";"4";"2";"[1,2,3,7,10]";"2";"2";"1"
"1507";"6";"96";"1";"4";"3";"2";"4";"1";"[3,7]";"1";"0";"1"
"1508";"35";"96";"1";"3";"4";"2";"4";"2";"[1,4,6,9]";"2";"0";"1"
"1509";"18";"97";"1";"2";"4";"2";"4";"2";"[1,5,6,7,8,9,10]";"2";"0";"1"
"1510";"6";"97";"1";"4";"3";"2";"4";"1";"[3,7]";"1";"0";"1"
"1511";"34";"20";"1";"9";"1";"2";"4";"2";"[1,2,3,7,10]";"2";"3";"1"
"1512";"18";"98";"1";"2";"4";"2";"4";"2";"[1,5,6,7,8,9,10]";"2";"0";"1"
"1513";"40";"98";"1";"3";"2";"2";"4";"2";"[1,4,6,9]";"2";"0";"1"
"1514";"29";"22";"1";"2";"1";"2";"4";"2";"[1,5,6,7,8,9,10]";"2";"2";"1"
