"id";"id_subj";"time";"session";"id_grp";"grp";"round";"period";"sig";"links";"choice";"hist";"active"
"1";"26";"0";"1";"34";"1";"1";"1";"2";"[6,15,22,24,29,30,31,32]";"0";"0";"1"
"2";"29";"0";"1";"27";"1";"1";"1";"1";"[16,18,20,25]";"0";"0";"1"
"3";"1";"0";"1";"30";"1";"1";"1";"1";"[6,15,19,24,31,34,37]";"0";"0";"1"
"4";"28";"0";"1";"38";"1";"1";"1";"1";"[2,4,20,36,39,40]";"0";"0";"1"
"5";"22";"0";"1";"6";"1";"1";"1";"1";"[8,15,24,30,34]";"0";"0";"1"
"6";"33";"0";"1";"2";"1";"1";"1";"1";"[4,38]";"0";"0";"1"
"7";"38";"0";"1";"29";"1";"1";"1";"2";"[9,10,15,24,32,34,37]";"0";"0";"1"
"8";"6";"0";"1";"5";"1";"1";"1";"1";"[12,22,32]";"0";"0";"1"
"9";"27";"0";"1";"13";"1";"1";"1";"2";"[1,3,9,21,23,37]";"0";"0";"1"
"10";"8";"0";"1";"31";"1";"1";"1";"1";"[15,19,24,30,34]";"0";"0";"1"
"11";"16";"0";"1";"20";"1";"1";"1";"1";"[8,27,38]";"0";"0";"1"
"12";"3";"0";"1";"4";"1";"1";"1";"1";"[2,33,38]";"0";"0";"1"
"13";"9";"0";"1";"33";"1";"1";"1";"1";"[4,28]";"0";"0";"1"
"14";"36";"0";"1";"3";"1";"1";"1";"1";"[1,9,10,13,16,18]";"0";"0";"1"
"15";"13";"0";"1";"32";"1";"1";"1";"2";"[5,15,19,22,24,29,34]";"0";"0";"1"
"16";"14";"0";"1";"11";"1";"1";"1";"2";"[16,18]";"0";"0";"1"
"17";"31";"0";"1";"19";"1";"1";"1";"1";"[17,30,31,32]";"0";"0";"1"
"18";"21";"0";"1";"1";"1";"1";"1";"1";"[3,9,13,23]";"0";"0";"1"
"19";"37";"0";"1";"36";"1";"1";"1";"1";"[21,38,39]";"0";"0";"1"
"20";"35";"0";"1";"14";"1";"1";"1";"2";"[26,35,40]";"0";"0";"1"
"21";"7";"0";"1";"40";"1";"1";"1";"1";"[7,14,38]";"0";"0";"1"
"22";"19";"0";"1";"10";"1";"1";"1";"1";"[3,9,29,37]";"0";"0";"1"
"23";"11";"0";"1";"7";"1";"1";"1";"2";"[28,40]";"0";"0";"1"
"24";"32";"0";"1";"25";"1";"1";"1";"2";"[27]";"0";"0";"1"
"25";"15";"0";"1";"16";"1";"1";"1";"1";"[3,11,18,27]";"0";"0";"1"
"26";"39";"0";"1";"37";"1";"1";"1";"1";"[9,10,13,29,30]";"0";"0";"1"
"27";"20";"0";"1";"17";"1";"1";"1";"1";"[19]";"0";"0";"1"
"28";"24";"0";"1";"22";"1";"1";"1";"1";"[5,12,32,34]";"0";"0";"1"
"29";"4";"0";"1";"28";"1";"1";"1";"1";"[7,33]";"0";"0";"1"
"30";"23";"0";"1";"18";"1";"1";"1";"1";"[3,11,16,27]";"0";"0";"1"
"31";"40";"0";"1";"9";"1";"1";"1";"2";"[1,3,10,13,29,37]";"0";"0";"1"
"32";"30";"0";"1";"24";"1";"1";"1";"1";"[6,15,29,30,31,32,34]";"0";"0";"1"
"33";"25";"0";"1";"26";"1";"1";"1";"2";"[14,35]";"0";"0";"1"
"34";"34";"0";"1";"12";"1";"1";"1";"1";"[5,22]";"0";"0";"1"
"35";"12";"0";"1";"8";"1";"1";"1";"1";"[6,20]";"0";"0";"1"
"36";"2";"0";"1";"35";"1";"1";"1";"2";"[14,26]";"0";"0";"1"
"37";"5";"0";"1";"23";"1";"1";"1";"2";"[1,13,21]";"0";"0";"1"
"38";"18";"0";"1";"39";"1";"1";"1";"1";"[21,36,38]";"0";"0";"1"
"39";"10";"0";"1";"21";"1";"1";"1";"1";"[13,15,23,36,39]";"0";"0";"1"
"40";"17";"0";"1";"15";"1";"1";"1";"1";"[6,21,24,29,30,31,32,34]";"0";"0";"1"
"41";"4";"6";"1";"28";"1";"1";"1";"1";"[7,33]";"1";"0";"1"
"42";"16";"6";"1";"20";"1";"1";"1";"1";"[8,27,38]";"1";"0";"1"
"43";"28";"6";"1";"38";"1";"1";"1";"1";"[2,4,20,36,39,40]";"1";"0";"1"
"44";"7";"6";"1";"40";"1";"1";"1";"1";"[7,14,38]";"1";"0";"1"
"45";"4";"7";"1";"28";"1";"1";"1";"1";"[7,33]";"1";"0";"1"
"46";"16";"7";"1";"20";"1";"1";"1";"1";"[8,27,38]";"1";"0";"1"
"47";"28";"7";"1";"38";"1";"1";"1";"1";"[2,4,20,36,39,40]";"1";"0";"1"
"48";"7";"7";"1";"40";"1";"1";"1";"1";"[7,14,38]";"1";"0";"1"
"49";"29";"8";"1";"27";"1";"1";"1";"1";"[16,18,20,25]";"1";"0";"1"
"50";"37";"8";"1";"36";"1";"1";"1";"1";"[21,38,39]";"2";"0";"1"
"51";"35";"8";"1";"14";"1";"1";"1";"2";"[26,35,40]";"2";"0";"1"
"52";"3";"9";"1";"4";"1";"1";"1";"1";"[2,33,38]";"1";"0";"1"
"53";"29";"9";"1";"27";"1";"1";"1";"1";"[16,18,20,25]";"1";"0";"1"
"54";"34";"9";"1";"12";"1";"1";"1";"1";"[5,22]";"1";"0";"1"
"55";"21";"9";"1";"1";"1";"1";"1";"1";"[3,9,13,23]";"1";"0";"1"
"56";"37";"9";"1";"36";"1";"1";"1";"1";"[21,38,39]";"2";"0";"1"
"57";"1";"9";"1";"30";"1";"1";"1";"1";"[6,15,19,24,31,34,37]";"1";"0";"1"
"58";"18";"9";"1";"39";"1";"1";"1";"1";"[21,36,38]";"1";"0";"1"
"59";"13";"9";"1";"32";"1";"1";"1";"2";"[5,15,19,22,24,29,34]";"2";"0";"1"
"60";"9";"9";"1";"33";"1";"1";"1";"1";"[4,28]";"1";"0";"1"
"61";"35";"9";"1";"14";"1";"1";"1";"2";"[26,35,40]";"2";"0";"1"
"62";"11";"9";"1";"7";"1";"1";"1";"2";"[28,40]";"2";"0";"1"
"63";"19";"10";"1";"10";"1";"1";"1";"1";"[3,9,29,37]";"1";"0";"1"
"64";"3";"10";"1";"4";"1";"1";"1";"1";"[2,33,38]";"1";"0";"1"
"65";"34";"10";"1";"12";"1";"1";"1";"1";"[5,22]";"1";"0";"1"
"66";"21";"10";"1";"1";"1";"1";"1";"1";"[3,9,13,23]";"1";"0";"1"
"67";"1";"10";"1";"30";"1";"1";"1";"1";"[6,15,19,24,31,34,37]";"1";"0";"1"
"68";"18";"10";"1";"39";"1";"1";"1";"1";"[21,36,38]";"1";"0";"1"
"69";"13";"10";"1";"32";"1";"1";"1";"2";"[5,15,19,22,24,29,34]";"2";"0";"1"
"70";"9";"10";"1";"33";"1";"1";"1";"1";"[4,28]";"1";"0";"1"
"71";"17";"10";"1";"15";"1";"1";"1";"1";"[6,21,24,29,30,31,32,34]";"1";"0";"1"
"72";"2";"10";"1";"35";"1";"1";"1";"2";"[14,26]";"2";"0";"1"
"73";"36";"10";"1";"3";"1";"1";"1";"1";"[1,9,10,13,16,18]";"1";"0";"1"
"74";"10";"10";"1";"21";"1";"1";"1";"1";"[13,15,23,36,39]";"1";"0";"1"
"75";"15";"10";"1";"16";"1";"1";"1";"1";"[3,11,18,27]";"1";"0";"1"
"76";"11";"10";"1";"7";"1";"1";"1";"2";"[28,40]";"2";"0";"1"
"77";"19";"11";"1";"10";"1";"1";"1";"1";"[3,9,29,37]";"1";"0";"1"
"78";"38";"11";"1";"29";"1";"1";"1";"2";"[9,10,15,24,32,34,37]";"2";"0";"1"
"79";"14";"11";"1";"11";"1";"1";"1";"2";"[16,18]";"2";"0";"1"
"80";"27";"11";"1";"13";"1";"1";"1";"2";"[1,3,9,21,23,37]";"2";"0";"1"
"81";"17";"11";"1";"15";"1";"1";"1";"1";"[6,21,24,29,30,31,32,34]";"1";"0";"1"
"82";"2";"11";"1";"35";"1";"1";"1";"2";"[14,26]";"2";"0";"1"
"83";"6";"11";"1";"5";"1";"1";"1";"1";"[12,22,32]";"1";"0";"1"
"84";"36";"11";"1";"3";"1";"1";"1";"1";"[1,9,10,13,16,18]";"1";"0";"1"
"85";"10";"11";"1";"21";"1";"1";"1";"1";"[13,15,23,36,39]";"1";"0";"1"
"86";"15";"11";"1";"16";"1";"1";"1";"1";"[3,11,18,27]";"1";"0";"1"
"87";"38";"12";"1";"29";"1";"1";"1";"2";"[9,10,15,24,32,34,37]";"2";"0";"1"
"88";"5";"12";"1";"23";"1";"1";"1";"2";"[1,13,21]";"2";"0";"1"
"89";"14";"12";"1";"11";"1";"1";"1";"2";"[16,18]";"2";"0";"1"
"90";"27";"12";"1";"13";"1";"1";"1";"2";"[1,3,9,21,23,37]";"2";"0";"1"
"91";"6";"12";"1";"5";"1";"1";"1";"1";"[12,22,32]";"1";"0";"1"
"92";"40";"12";"1";"9";"1";"1";"1";"2";"[1,3,10,13,29,37]";"2";"0";"1"
"93";"33";"13";"1";"2";"1";"1";"1";"1";"[4,38]";"1";"0";"1"
"94";"5";"13";"1";"23";"1";"1";"1";"2";"[1,13,21]";"2";"0";"1"
"95";"24";"13";"1";"22";"1";"1";"1";"1";"[5,12,32,34]";"1";"0";"1"
"96";"40";"13";"1";"9";"1";"1";"1";"2";"[1,3,10,13,29,37]";"2";"0";"1"
"97";"25";"14";"1";"26";"1";"1";"1";"2";"[14,35]";"1";"0";"1"
"98";"33";"14";"1";"2";"1";"1";"1";"1";"[4,38]";"1";"0";"1"
"99";"20";"14";"1";"17";"1";"1";"1";"1";"[19]";"1";"0";"1"
"100";"26";"14";"1";"34";"1";"1";"1";"2";"[6,15,22,24,29,30,31,32]";"2";"0";"1"
"101";"12";"14";"1";"8";"1";"1";"1";"1";"[6,20]";"1";"0";"1"
"102";"24";"14";"1";"22";"1";"1";"1";"1";"[5,12,32,34]";"1";"0";"1"
"103";"30";"15";"1";"24";"1";"1";"1";"1";"[6,15,29,30,31,32,34]";"1";"0";"1"
"104";"25";"15";"1";"26";"1";"1";"1";"2";"[14,35]";"1";"0";"1"
"105";"20";"15";"1";"17";"1";"1";"1";"1";"[19]";"1";"0";"1"
"106";"26";"15";"1";"34";"1";"1";"1";"2";"[6,15,22,24,29,30,31,32]";"2";"0";"1"
"107";"12";"15";"1";"8";"1";"1";"1";"1";"[6,20]";"1";"0";"1"
"108";"30";"16";"1";"24";"1";"1";"1";"1";"[6,15,29,30,31,32,34]";"1";"0";"1"
"109";"32";"18";"1";"25";"1";"1";"1";"2";"[27]";"1";"0";"1"
"110";"32";"19";"1";"25";"1";"1";"1";"2";"[27]";"1";"0";"1"
"111";"31";"19";"1";"19";"1";"1";"1";"1";"[17,30,31,32]";"1";"0";"1"
"112";"22";"19";"1";"6";"1";"1";"1";"1";"[8,15,24,30,34]";"1";"0";"1"
"113";"31";"20";"1";"19";"1";"1";"1";"1";"[17,30,31,32]";"1";"0";"1"
"114";"8";"20";"1";"31";"1";"1";"1";"1";"[15,19,24,30,34]";"1";"0";"1"
"115";"22";"20";"1";"6";"1";"1";"1";"1";"[8,15,24,30,34]";"1";"0";"1"
"116";"8";"21";"1";"31";"1";"1";"1";"1";"[15,19,24,30,34]";"1";"0";"1"
"117";"23";"23";"1";"18";"1";"1";"1";"1";"[3,11,16,27]";"2";"0";"1"
"118";"23";"24";"1";"18";"1";"1";"1";"1";"[3,11,16,27]";"2";"0";"1"
"119";"39";"26";"1";"37";"1";"1";"1";"1";"[9,10,13,29,30]";"1";"0";"1"
"120";"39";"27";"1";"37";"1";"1";"1";"1";"[9,10,13,29,30]";"1";"0";"1"
"121";"17";"2";"1";"15";"1";"1";"2";"1";"[6,21,24,29,30,31,32,34]";"1";"0";"1"
"122";"17";"3";"1";"15";"1";"1";"2";"1";"[6,21,24,29,30,31,32,34]";"1";"0";"1"
"123";"28";"3";"1";"38";"1";"1";"2";"1";"[2,4,20,36,39,40]";"1";"0";"1"
"124";"1";"3";"1";"30";"1";"1";"2";"1";"[6,15,19,24,31,34,37]";"1";"0";"1"
"125";"9";"4";"1";"33";"1";"1";"2";"1";"[4,28]";"1";"0";"1"
"126";"11";"4";"1";"7";"1";"1";"2";"2";"[28,40]";"2";"0";"1"
"127";"7";"4";"1";"40";"1";"1";"2";"1";"[7,14,38]";"1";"0";"1"
"128";"28";"4";"1";"38";"1";"1";"2";"1";"[2,4,20,36,39,40]";"1";"0";"1"
"129";"1";"4";"1";"30";"1";"1";"2";"1";"[6,15,19,24,31,34,37]";"1";"0";"1"
"130";"9";"5";"1";"33";"1";"1";"2";"1";"[4,28]";"1";"0";"1"
"131";"11";"5";"1";"7";"1";"1";"2";"2";"[28,40]";"2";"0";"1"
"132";"7";"5";"1";"40";"1";"1";"2";"1";"[7,14,38]";"1";"0";"1"
"133";"20";"6";"1";"17";"1";"1";"2";"1";"[19]";"1";"0";"1"
"134";"29";"6";"1";"27";"1";"1";"2";"1";"[16,18,20,25]";"1";"0";"1"
"135";"8";"7";"1";"31";"1";"1";"2";"1";"[15,19,24,30,34]";"1";"0";"1"
"136";"20";"7";"1";"17";"1";"1";"2";"1";"[19]";"1";"0";"1"
"137";"30";"7";"1";"24";"1";"1";"2";"1";"[6,15,29,30,31,32,34]";"1";"0";"1"
"138";"29";"7";"1";"27";"1";"1";"2";"1";"[16,18,20,25]";"1";"0";"1"
"139";"4";"7";"1";"28";"1";"1";"2";"1";"[7,33]";"1";"0";"1"
"140";"8";"8";"1";"31";"1";"1";"2";"1";"[15,19,24,30,34]";"1";"0";"1"
"141";"24";"8";"1";"22";"1";"1";"2";"1";"[5,12,32,34]";"1";"0";"1"
"142";"30";"8";"1";"24";"1";"1";"2";"1";"[6,15,29,30,31,32,34]";"1";"0";"1"
"143";"40";"8";"1";"9";"1";"1";"2";"2";"[1,3,10,13,29,37]";"1";"0";"1"
"144";"38";"8";"1";"29";"1";"1";"2";"2";"[9,10,15,24,32,34,37]";"2";"0";"1"
"145";"12";"8";"1";"8";"1";"1";"2";"1";"[6,20]";"1";"0";"1"
"146";"4";"8";"1";"28";"1";"1";"2";"1";"[7,33]";"1";"0";"1"
"147";"3";"8";"1";"4";"1";"1";"2";"1";"[2,33,38]";"1";"0";"1"
"148";"26";"8";"1";"34";"1";"1";"2";"2";"[6,15,22,24,29,30,31,32]";"2";"0";"1"
"149";"19";"8";"1";"10";"1";"1";"2";"1";"[3,9,29,37]";"1";"0";"1"
"150";"36";"9";"1";"3";"1";"1";"2";"1";"[1,9,10,13,16,18]";"1";"0";"1"
"151";"13";"9";"1";"32";"1";"1";"2";"2";"[5,15,19,22,24,29,34]";"1";"0";"1"
"152";"24";"9";"1";"22";"1";"1";"2";"1";"[5,12,32,34]";"1";"0";"1"
"153";"40";"9";"1";"9";"1";"1";"2";"2";"[1,3,10,13,29,37]";"1";"0";"1"
"154";"38";"9";"1";"29";"1";"1";"2";"2";"[9,10,15,24,32,34,37]";"2";"0";"1"
"155";"12";"9";"1";"8";"1";"1";"2";"1";"[6,20]";"1";"0";"1"
"156";"3";"9";"1";"4";"1";"1";"2";"1";"[2,33,38]";"1";"0";"1"
"157";"26";"9";"1";"34";"1";"1";"2";"2";"[6,15,22,24,29,30,31,32]";"2";"0";"1"
"158";"34";"9";"1";"12";"1";"1";"2";"1";"[5,22]";"1";"0";"1"
"159";"19";"9";"1";"10";"1";"1";"2";"1";"[3,9,29,37]";"1";"0";"1"
"160";"16";"10";"1";"20";"1";"1";"2";"1";"[8,27,38]";"1";"0";"1"
"161";"36";"10";"1";"3";"1";"1";"2";"1";"[1,9,10,13,16,18]";"1";"0";"1"
"162";"35";"10";"1";"14";"1";"1";"2";"2";"[26,35,40]";"2";"0";"1"
"163";"27";"10";"1";"13";"1";"1";"2";"2";"[1,3,9,21,23,37]";"2";"0";"1"
"164";"13";"10";"1";"32";"1";"1";"2";"2";"[5,15,19,22,24,29,34]";"1";"0";"1"
"165";"33";"10";"1";"2";"1";"1";"2";"1";"[4,38]";"1";"0";"1"
"166";"5";"10";"1";"23";"1";"1";"2";"2";"[1,13,21]";"2";"0";"1"
"167";"2";"10";"1";"35";"1";"1";"2";"2";"[14,26]";"2";"0";"1"
"168";"25";"10";"1";"26";"1";"1";"2";"2";"[14,35]";"2";"0";"1"
"169";"34";"10";"1";"12";"1";"1";"2";"1";"[5,22]";"1";"0";"1"
"170";"16";"11";"1";"20";"1";"1";"2";"1";"[8,27,38]";"1";"0";"1"
"171";"35";"11";"1";"14";"1";"1";"2";"2";"[26,35,40]";"2";"0";"1"
"172";"27";"11";"1";"13";"1";"1";"2";"2";"[1,3,9,21,23,37]";"2";"0";"1"
"173";"33";"11";"1";"2";"1";"1";"2";"1";"[4,38]";"1";"0";"1"
"174";"5";"11";"1";"23";"1";"1";"2";"2";"[1,13,21]";"2";"0";"1"
"175";"31";"11";"1";"19";"1";"1";"2";"1";"[17,30,31,32]";"1";"0";"1"
"176";"18";"11";"1";"39";"1";"1";"2";"1";"[21,36,38]";"2";"0";"1"
"177";"15";"11";"1";"16";"1";"1";"2";"1";"[3,11,18,27]";"1";"0";"1"
"178";"2";"11";"1";"35";"1";"1";"2";"2";"[14,26]";"2";"0";"1"
"179";"21";"11";"1";"1";"1";"1";"2";"1";"[3,9,13,23]";"2";"0";"1"
"180";"6";"11";"1";"5";"1";"1";"2";"1";"[12,22,32]";"1";"0";"1"
"181";"25";"11";"1";"26";"1";"1";"2";"2";"[14,35]";"2";"0";"1"
"182";"31";"12";"1";"19";"1";"1";"2";"1";"[17,30,31,32]";"1";"0";"1"
"183";"15";"12";"1";"16";"1";"1";"2";"1";"[3,11,18,27]";"1";"0";"1"
"184";"18";"12";"1";"39";"1";"1";"2";"1";"[21,36,38]";"2";"0";"1"
"185";"6";"12";"1";"5";"1";"1";"2";"1";"[12,22,32]";"1";"0";"1"
"186";"21";"12";"1";"1";"1";"1";"2";"1";"[3,9,13,23]";"2";"0";"1"
"187";"22";"13";"1";"6";"1";"1";"2";"1";"[8,15,24,30,34]";"1";"0";"1"
"188";"22";"14";"1";"6";"1";"1";"2";"1";"[8,15,24,30,34]";"1";"0";"1"
"189";"39";"15";"1";"37";"1";"1";"2";"1";"[9,10,13,29,30]";"1";"0";"1"
"190";"32";"16";"1";"25";"1";"1";"2";"2";"[27]";"1";"0";"1"
"191";"39";"16";"1";"37";"1";"1";"2";"1";"[9,10,13,29,30]";"1";"0";"1"
"192";"10";"16";"1";"21";"1";"1";"2";"1";"[13,15,23,36,39]";"1";"0";"1"
"193";"37";"16";"1";"36";"1";"1";"2";"1";"[21,38,39]";"1";"0";"1"
"194";"32";"17";"1";"25";"1";"1";"2";"2";"[27]";"1";"0";"1"
"195";"10";"17";"1";"21";"1";"1";"2";"1";"[13,15,23,36,39]";"1";"0";"1"
"196";"37";"18";"1";"36";"1";"1";"2";"1";"[21,38,39]";"1";"0";"1"
"197";"23";"20";"1";"18";"1";"1";"2";"1";"[3,11,16,27]";"1";"0";"1"
"198";"23";"21";"1";"18";"1";"1";"2";"1";"[3,11,16,27]";"1";"0";"1"
"199";"14";"23";"1";"11";"1";"1";"2";"2";"[16,18]";"2";"0";"1"
"200";"14";"24";"1";"11";"1";"1";"2";"2";"[16,18]";"2";"0";"1"
"201";"6";"2";"1";"5";"1";"1";"3";"1";"[12,22,32]";"2";"0";"1"
"202";"6";"3";"1";"5";"1";"1";"3";"1";"[12,22,32]";"2";"0";"1"
"203";"29";"3";"1";"27";"1";"1";"3";"1";"[16,18,20,25]";"1";"0";"1"
"204";"28";"3";"1";"38";"1";"1";"3";"1";"[2,4,20,36,39,40]";"1";"0";"1"
"205";"36";"3";"1";"3";"1";"1";"3";"1";"[1,9,10,13,16,18]";"1";"0";"1"
"206";"29";"4";"1";"27";"1";"1";"3";"1";"[16,18,20,25]";"1";"0";"1"
"207";"26";"4";"1";"34";"1";"1";"3";"2";"[6,15,22,24,29,30,31,32]";"1";"0";"1"
"208";"28";"4";"1";"38";"1";"1";"3";"1";"[2,4,20,36,39,40]";"1";"0";"1"
"209";"36";"5";"1";"3";"1";"1";"3";"1";"[1,9,10,13,16,18]";"1";"0";"1"
"210";"24";"5";"1";"22";"1";"1";"3";"1";"[5,12,32,34]";"0";"1";"1"
"211";"26";"5";"1";"34";"1";"1";"3";"2";"[6,15,22,24,29,30,31,32]";"1";"0";"1"
"212";"3";"5";"1";"4";"1";"1";"3";"1";"[2,33,38]";"1";"0";"1"
"213";"18";"5";"1";"39";"1";"1";"3";"1";"[21,36,38]";"1";"0";"1"
"214";"33";"6";"1";"2";"1";"1";"3";"1";"[4,38]";"1";"0";"1"
"215";"20";"6";"1";"17";"1";"1";"3";"1";"[19]";"1";"0";"1"
"216";"24";"6";"1";"22";"1";"1";"3";"1";"[5,12,32,34]";"0";"2";"1"
"217";"3";"6";"1";"4";"1";"1";"3";"1";"[2,33,38]";"1";"0";"1"
"218";"18";"6";"1";"39";"1";"1";"3";"1";"[21,36,38]";"1";"0";"1"
"219";"9";"6";"1";"33";"1";"1";"3";"1";"[4,28]";"1";"0";"1"
"220";"33";"7";"1";"2";"1";"1";"3";"1";"[4,38]";"1";"0";"1"
"221";"20";"7";"1";"17";"1";"1";"3";"1";"[19]";"1";"0";"1"
"222";"15";"7";"1";"16";"1";"1";"3";"1";"[3,11,18,27]";"1";"0";"1"
"223";"30";"7";"1";"24";"1";"1";"3";"1";"[6,15,29,30,31,32,34]";"1";"0";"1"
"224";"34";"7";"1";"12";"1";"1";"3";"1";"[5,22]";"0";"1";"1"
"225";"19";"7";"1";"10";"1";"1";"3";"1";"[3,9,29,37]";"1";"0";"1"
"226";"9";"7";"1";"33";"1";"1";"3";"1";"[4,28]";"1";"0";"1"
"227";"24";"8";"1";"22";"1";"1";"3";"1";"[5,12,32,34]";"2";"2";"1"
"228";"37";"8";"1";"36";"1";"1";"3";"1";"[21,38,39]";"1";"0";"1"
"229";"12";"8";"1";"8";"1";"1";"3";"1";"[6,20]";"1";"0";"1"
"230";"15";"8";"1";"16";"1";"1";"3";"1";"[3,11,18,27]";"1";"0";"1"
"231";"30";"8";"1";"24";"1";"1";"3";"1";"[6,15,29,30,31,32,34]";"1";"0";"1"
"232";"19";"8";"1";"10";"1";"1";"3";"1";"[3,9,29,37]";"1";"0";"1"
"233";"16";"8";"1";"20";"1";"1";"3";"1";"[8,27,38]";"1";"0";"1"
"234";"7";"8";"1";"40";"1";"1";"3";"1";"[7,14,38]";"1";"0";"1"
"235";"34";"8";"1";"12";"1";"1";"3";"1";"[5,22]";"0";"3";"1"
"236";"24";"9";"1";"22";"1";"1";"3";"1";"[5,12,32,34]";"2";"2";"1"
"237";"37";"9";"1";"36";"1";"1";"3";"1";"[21,38,39]";"1";"0";"1"
"238";"8";"9";"1";"31";"1";"1";"3";"1";"[15,19,24,30,34]";"1";"0";"1"
"239";"12";"9";"1";"8";"1";"1";"3";"1";"[6,20]";"1";"0";"1"
"240";"16";"9";"1";"20";"1";"1";"3";"1";"[8,27,38]";"1";"0";"1"
"241";"7";"9";"1";"40";"1";"1";"3";"1";"[7,14,38]";"1";"0";"1"
"242";"23";"9";"1";"18";"1";"1";"3";"1";"[3,11,16,27]";"1";"0";"1"
"243";"27";"9";"1";"13";"1";"1";"3";"2";"[1,3,9,21,23,37]";"0";"1";"1"
"244";"35";"9";"1";"14";"1";"1";"3";"2";"[26,35,40]";"2";"0";"1"
"245";"34";"10";"1";"12";"1";"1";"3";"1";"[5,22]";"0";"3";"1"
"246";"8";"10";"1";"31";"1";"1";"3";"1";"[15,19,24,30,34]";"1";"0";"1"
"247";"23";"10";"1";"18";"1";"1";"3";"1";"[3,11,16,27]";"1";"0";"1"
"248";"35";"10";"1";"14";"1";"1";"3";"2";"[26,35,40]";"2";"0";"1"
"249";"21";"11";"1";"1";"1";"1";"3";"1";"[3,9,13,23]";"2";"0";"1"
"250";"1";"11";"1";"30";"1";"1";"3";"1";"[6,15,19,24,31,34,37]";"1";"0";"1"
"251";"27";"11";"1";"13";"1";"1";"3";"2";"[1,3,9,21,23,37]";"0";"2";"1"
"252";"21";"12";"1";"1";"1";"1";"3";"1";"[3,9,13,23]";"2";"0";"1"
"253";"31";"12";"1";"19";"1";"1";"3";"1";"[17,30,31,32]";"1";"0";"1"
"254";"1";"12";"1";"30";"1";"1";"3";"1";"[6,15,19,24,31,34,37]";"1";"0";"1"
"255";"13";"12";"1";"32";"1";"1";"3";"2";"[5,15,19,22,24,29,34]";"2";"0";"1"
"256";"11";"12";"1";"7";"1";"1";"3";"2";"[28,40]";"2";"0";"1"
"257";"38";"13";"1";"29";"1";"1";"3";"2";"[9,10,15,24,32,34,37]";"2";"0";"1"
"258";"31";"13";"1";"19";"1";"1";"3";"1";"[17,30,31,32]";"1";"0";"1"
"259";"25";"13";"1";"26";"1";"1";"3";"2";"[14,35]";"2";"0";"1"
"260";"13";"13";"1";"32";"1";"1";"3";"2";"[5,15,19,22,24,29,34]";"2";"0";"1"
"261";"11";"13";"1";"7";"1";"1";"3";"2";"[28,40]";"2";"0";"1"
"262";"38";"14";"1";"29";"1";"1";"3";"2";"[9,10,15,24,32,34,37]";"2";"0";"1"
"263";"25";"14";"1";"26";"1";"1";"3";"2";"[14,35]";"2";"0";"1"
"264";"34";"14";"1";"12";"1";"1";"3";"1";"[5,22]";"1";"3";"1"
"265";"34";"15";"1";"12";"1";"1";"3";"1";"[5,22]";"1";"3";"1"
"266";"5";"15";"1";"23";"1";"1";"3";"2";"[1,13,21]";"2";"0";"1"
"267";"40";"15";"1";"9";"1";"1";"3";"2";"[1,3,10,13,29,37]";"1";"0";"1"
"268";"27";"16";"1";"13";"1";"1";"3";"2";"[1,3,9,21,23,37]";"2";"2";"1"
"269";"5";"16";"1";"23";"1";"1";"3";"2";"[1,13,21]";"2";"0";"1"
"270";"40";"16";"1";"9";"1";"1";"3";"2";"[1,3,10,13,29,37]";"1";"0";"1"
"271";"17";"17";"1";"15";"1";"1";"3";"1";"[6,21,24,29,30,31,32,34]";"1";"0";"1"
"272";"2";"17";"1";"35";"1";"1";"3";"2";"[14,26]";"2";"0";"1"
"273";"22";"17";"1";"6";"1";"1";"3";"1";"[8,15,24,30,34]";"1";"0";"1"
"274";"27";"17";"1";"13";"1";"1";"3";"2";"[1,3,9,21,23,37]";"2";"2";"1"
"275";"17";"18";"1";"15";"1";"1";"3";"1";"[6,21,24,29,30,31,32,34]";"1";"0";"1"
"276";"2";"18";"1";"35";"1";"1";"3";"2";"[14,26]";"2";"0";"1"
"277";"22";"18";"1";"6";"1";"1";"3";"1";"[8,15,24,30,34]";"1";"0";"1"
"278";"4";"19";"1";"28";"1";"1";"3";"1";"[7,33]";"1";"0";"1"
"279";"4";"20";"1";"28";"1";"1";"3";"1";"[7,33]";"1";"0";"1"
"280";"32";"21";"1";"25";"1";"1";"3";"2";"[27]";"1";"0";"1"
"281";"32";"22";"1";"25";"1";"1";"3";"2";"[27]";"1";"0";"1"
"282";"36";"22";"1";"3";"1";"1";"3";"1";"[1,9,10,13,16,18]";"1";"1";"1"
"283";"10";"22";"1";"21";"1";"1";"3";"1";"[13,15,23,36,39]";"1";"0";"1"
"284";"10";"23";"1";"21";"1";"1";"3";"1";"[13,15,23,36,39]";"1";"0";"1"
"285";"36";"24";"1";"3";"1";"1";"3";"1";"[1,9,10,13,16,18]";"1";"2";"1"
"286";"21";"26";"1";"1";"1";"1";"3";"1";"[3,9,13,23]";"2";"1";"1"
"287";"39";"27";"1";"37";"1";"1";"3";"1";"[9,10,13,29,30]";"1";"0";"1"
"288";"21";"27";"1";"1";"1";"1";"3";"1";"[3,9,13,23]";"2";"2";"1"
"289";"39";"28";"1";"37";"1";"1";"3";"1";"[9,10,13,29,30]";"1";"0";"1"
"290";"36";"29";"1";"3";"1";"1";"3";"1";"[1,9,10,13,16,18]";"1";"3";"1"
"291";"14";"30";"1";"11";"1";"1";"3";"2";"[16,18]";"2";"0";"1"
"292";"14";"31";"1";"11";"1";"1";"3";"2";"[16,18]";"2";"0";"1"
"293";"3";"2";"1";"4";"1";"1";"4";"1";"[2,33,38]";"1";"0";"1"
"294";"1";"2";"1";"30";"1";"1";"4";"1";"[6,15,19,24,31,34,37]";"1";"0";"1"
"295";"3";"3";"1";"4";"1";"1";"4";"1";"[2,33,38]";"1";"0";"1"
"296";"9";"3";"1";"33";"1";"1";"4";"1";"[4,28]";"1";"0";"1"
"297";"1";"3";"1";"30";"1";"1";"4";"1";"[6,15,19,24,31,34,37]";"1";"0";"1"
"298";"18";"4";"1";"39";"1";"1";"4";"1";"[21,36,38]";"1";"0";"1"
"299";"21";"4";"1";"1";"1";"1";"4";"1";"[3,9,13,23]";"0";"7";"1"
"300";"9";"4";"1";"33";"1";"1";"4";"1";"[4,28]";"1";"0";"1"
"301";"33";"4";"1";"2";"1";"1";"4";"1";"[4,38]";"1";"0";"1"
"302";"29";"4";"1";"27";"1";"1";"4";"1";"[16,18,20,25]";"1";"0";"1"
"303";"16";"5";"1";"20";"1";"1";"4";"1";"[8,27,38]";"1";"0";"1"
"304";"8";"5";"1";"31";"1";"1";"4";"1";"[15,19,24,30,34]";"1";"0";"1"
"305";"11";"5";"1";"7";"1";"1";"4";"2";"[28,40]";"1";"0";"1"
"306";"18";"5";"1";"39";"1";"1";"4";"1";"[21,36,38]";"1";"0";"1"
"307";"24";"5";"1";"22";"1";"1";"4";"1";"[5,12,32,34]";"2";"0";"1"
"308";"27";"5";"1";"13";"1";"1";"4";"2";"[1,3,9,21,23,37]";"0";"2";"1"
"309";"33";"5";"1";"2";"1";"1";"4";"1";"[4,38]";"1";"0";"1"
"310";"22";"5";"1";"6";"1";"1";"4";"1";"[8,15,24,30,34]";"2";"0";"1"
"311";"19";"5";"1";"10";"1";"1";"4";"1";"[3,9,29,37]";"1";"0";"1"
"312";"13";"5";"1";"32";"1";"1";"4";"2";"[5,15,19,22,24,29,34]";"1";"0";"1"
"313";"29";"5";"1";"27";"1";"1";"4";"1";"[16,18,20,25]";"1";"0";"1"
"314";"34";"6";"1";"12";"1";"1";"4";"1";"[5,22]";"0";"2";"1"
"315";"16";"6";"1";"20";"1";"1";"4";"1";"[8,27,38]";"1";"0";"1"
"316";"8";"6";"1";"31";"1";"1";"4";"1";"[15,19,24,30,34]";"1";"0";"1"
"317";"11";"6";"1";"7";"1";"1";"4";"2";"[28,40]";"1";"0";"1"
"318";"26";"6";"1";"34";"1";"1";"4";"2";"[6,15,22,24,29,30,31,32]";"2";"0";"1"
"319";"24";"6";"1";"22";"1";"1";"4";"1";"[5,12,32,34]";"2";"0";"1"
"320";"30";"6";"1";"24";"1";"1";"4";"1";"[6,15,29,30,31,32,34]";"1";"0";"1"
"321";"22";"6";"1";"6";"1";"1";"4";"1";"[8,15,24,30,34]";"2";"0";"1"
"322";"19";"6";"1";"10";"1";"1";"4";"1";"[3,9,29,37]";"1";"0";"1"
"323";"27";"6";"1";"13";"1";"1";"4";"2";"[1,3,9,21,23,37]";"0";"3";"1"
"324";"13";"6";"1";"32";"1";"1";"4";"2";"[5,15,19,22,24,29,34]";"1";"0";"1"
"325";"20";"7";"1";"17";"1";"1";"4";"1";"[19]";"1";"0";"1"
"326";"34";"7";"1";"12";"1";"1";"4";"1";"[5,22]";"0";"1";"1"
"327";"26";"7";"1";"34";"1";"1";"4";"2";"[6,15,22,24,29,30,31,32]";"2";"0";"1"
"328";"28";"7";"1";"38";"1";"1";"4";"1";"[2,4,20,36,39,40]";"1";"0";"1"
"329";"30";"7";"1";"24";"1";"1";"4";"1";"[6,15,29,30,31,32,34]";"1";"0";"1"
"330";"20";"8";"1";"17";"1";"1";"4";"1";"[19]";"1";"0";"1"
"331";"14";"8";"1";"11";"1";"1";"4";"2";"[16,18]";"1";"0";"1"
"332";"28";"8";"1";"38";"1";"1";"4";"1";"[2,4,20,36,39,40]";"1";"0";"1"
"333";"34";"8";"1";"12";"1";"1";"4";"1";"[5,22]";"0";"2";"1"
"334";"27";"9";"1";"13";"1";"1";"4";"2";"[1,3,9,21,23,37]";"0";"2";"1"
"335";"35";"9";"1";"14";"1";"1";"4";"2";"[26,35,40]";"2";"0";"1"
"336";"14";"9";"1";"11";"1";"1";"4";"2";"[16,18]";"1";"0";"1"
"337";"12";"9";"1";"8";"1";"1";"4";"1";"[6,20]";"1";"0";"1"
"338";"38";"9";"1";"29";"1";"1";"4";"2";"[9,10,15,24,32,34,37]";"2";"0";"1"
"339";"35";"10";"1";"14";"1";"1";"4";"2";"[26,35,40]";"2";"0";"1"
"340";"27";"10";"1";"13";"1";"1";"4";"2";"[1,3,9,21,23,37]";"0";"3";"1"
"341";"31";"10";"1";"19";"1";"1";"4";"1";"[17,30,31,32]";"1";"0";"1"
"342";"12";"10";"1";"8";"1";"1";"4";"1";"[6,20]";"1";"0";"1"
"343";"38";"10";"1";"29";"1";"1";"4";"2";"[9,10,15,24,32,34,37]";"2";"0";"1"
"344";"34";"10";"1";"12";"1";"1";"4";"1";"[5,22]";"0";"1";"1"
"345";"15";"11";"1";"16";"1";"1";"4";"1";"[3,11,18,27]";"1";"0";"1"
"346";"31";"11";"1";"19";"1";"1";"4";"1";"[17,30,31,32]";"1";"0";"1"
"347";"25";"11";"1";"26";"1";"1";"4";"2";"[14,35]";"1";"0";"1"
"348";"34";"11";"1";"12";"1";"1";"4";"1";"[5,22]";"0";"2";"1"
"349";"15";"12";"1";"16";"1";"1";"4";"1";"[3,11,18,27]";"1";"0";"1"
"350";"36";"12";"1";"3";"1";"1";"4";"1";"[1,9,10,13,16,18]";"1";"0";"1"
"351";"25";"12";"1";"26";"1";"1";"4";"2";"[14,35]";"1";"0";"1"
"352";"34";"12";"1";"12";"1";"1";"4";"1";"[5,22]";"0";"3";"1"
"353";"36";"13";"1";"3";"1";"1";"4";"1";"[1,9,10,13,16,18]";"1";"0";"1"
"354";"34";"13";"1";"12";"1";"1";"4";"1";"[5,22]";"0";"4";"1"
"355";"27";"13";"1";"13";"1";"1";"4";"2";"[1,3,9,21,23,37]";"2";"3";"1"
"356";"5";"14";"1";"23";"1";"1";"4";"2";"[1,13,21]";"2";"0";"1"
"357";"36";"14";"1";"3";"1";"1";"4";"1";"[1,9,10,13,16,18]";"1";"4";"1"
"358";"27";"14";"1";"13";"1";"1";"4";"2";"[1,3,9,21,23,37]";"2";"3";"1"
"359";"5";"15";"1";"23";"1";"1";"4";"2";"[1,13,21]";"2";"0";"1"
"360";"7";"15";"1";"40";"1";"1";"4";"1";"[7,14,38]";"1";"0";"1"
"361";"40";"15";"1";"9";"1";"1";"4";"2";"[1,3,10,13,29,37]";"2";"0";"1"
"362";"4";"15";"1";"28";"1";"1";"4";"1";"[7,33]";"1";"0";"1"
"363";"36";"15";"1";"3";"1";"1";"4";"1";"[1,9,10,13,16,18]";"1";"2";"1"
"364";"7";"16";"1";"40";"1";"1";"4";"1";"[7,14,38]";"1";"0";"1"
"365";"40";"16";"1";"9";"1";"1";"4";"2";"[1,3,10,13,29,37]";"2";"0";"1"
"366";"32";"16";"1";"25";"1";"1";"4";"2";"[27]";"1";"0";"1"
"367";"4";"16";"1";"28";"1";"1";"4";"1";"[7,33]";"1";"0";"1"
"368";"23";"17";"1";"18";"1";"1";"4";"1";"[3,11,16,27]";"1";"0";"1"
"369";"32";"17";"1";"25";"1";"1";"4";"2";"[27]";"1";"0";"1"
"370";"36";"18";"1";"3";"1";"1";"4";"1";"[1,9,10,13,16,18]";"1";"3";"1"
"371";"23";"18";"1";"18";"1";"1";"4";"1";"[3,11,16,27]";"1";"0";"1"
"372";"14";"20";"1";"11";"1";"1";"4";"2";"[16,18]";"1";"1";"1"
"373";"2";"21";"1";"35";"1";"1";"4";"2";"[14,26]";"2";"0";"1"
"374";"21";"21";"1";"1";"1";"1";"4";"1";"[3,9,13,23]";"2";"7";"1"
"375";"37";"21";"1";"36";"1";"1";"4";"1";"[21,38,39]";"1";"0";"1"
"376";"2";"22";"1";"35";"1";"1";"4";"2";"[14,26]";"2";"0";"1"
"377";"21";"22";"1";"1";"1";"1";"4";"1";"[3,9,13,23]";"2";"7";"1"
"378";"17";"22";"1";"15";"1";"1";"4";"1";"[6,21,24,29,30,31,32,34]";"1";"0";"1"
"379";"14";"22";"1";"11";"1";"1";"4";"2";"[16,18]";"1";"2";"1"
"380";"37";"22";"1";"36";"1";"1";"4";"1";"[21,38,39]";"1";"0";"1"
"381";"17";"23";"1";"15";"1";"1";"4";"1";"[6,21,24,29,30,31,32,34]";"1";"0";"1"
"382";"34";"23";"1";"12";"1";"1";"4";"1";"[5,22]";"1";"4";"1"
"383";"14";"23";"1";"11";"1";"1";"4";"2";"[16,18]";"1";"3";"1"
"384";"6";"24";"1";"5";"1";"1";"4";"1";"[12,22,32]";"2";"0";"1"
"385";"34";"24";"1";"12";"1";"1";"4";"1";"[5,22]";"1";"4";"1"
"386";"14";"25";"1";"11";"1";"1";"4";"2";"[16,18]";"1";"4";"1"
"387";"6";"25";"1";"5";"1";"1";"4";"1";"[12,22,32]";"2";"0";"1"
"388";"10";"26";"1";"21";"1";"1";"4";"1";"[13,15,23,36,39]";"1";"0";"1"
"389";"14";"27";"1";"11";"1";"1";"4";"2";"[16,18]";"1";"5";"1"
"390";"10";"27";"1";"21";"1";"1";"4";"1";"[13,15,23,36,39]";"1";"0";"1"
"391";"39";"29";"1";"37";"1";"1";"4";"1";"[9,10,13,29,30]";"1";"0";"1"
"392";"39";"30";"1";"37";"1";"1";"4";"1";"[9,10,13,29,30]";"1";"0";"1"
"393";"14";"0";"1";"11";"1";"1";"5";"2";"[16,18]";"0";"4";"1"
"394";"28";"1";"1";"38";"1";"1";"5";"1";"[2,4,20,36,39,40]";"1";"0";"1"
"395";"3";"2";"1";"4";"1";"1";"5";"1";"[2,33,38]";"1";"0";"1"
"396";"28";"2";"1";"38";"1";"1";"5";"1";"[2,4,20,36,39,40]";"1";"0";"1"
"397";"14";"2";"1";"11";"1";"1";"5";"2";"[16,18]";"0";"5";"1"
"398";"24";"2";"1";"22";"1";"1";"5";"1";"[5,12,32,34]";"1";"0";"1"
"399";"29";"2";"1";"27";"1";"1";"5";"1";"[16,18,20,25]";"1";"0";"1"
"400";"33";"3";"1";"2";"1";"1";"5";"1";"[4,38]";"1";"0";"1"
"401";"3";"3";"1";"4";"1";"1";"5";"1";"[2,33,38]";"1";"0";"1"
"402";"24";"3";"1";"22";"1";"1";"5";"1";"[5,12,32,34]";"1";"0";"1"
"403";"29";"3";"1";"27";"1";"1";"5";"1";"[16,18,20,25]";"1";"0";"1"
"404";"36";"4";"1";"3";"1";"1";"5";"1";"[1,9,10,13,16,18]";"1";"0";"1"
"405";"33";"4";"1";"2";"1";"1";"5";"1";"[4,38]";"1";"0";"1"
"406";"31";"4";"1";"19";"1";"1";"5";"1";"[17,30,31,32]";"1";"0";"1"
"407";"36";"5";"1";"3";"1";"1";"5";"1";"[1,9,10,13,16,18]";"1";"0";"1"
"408";"34";"5";"1";"12";"1";"1";"5";"1";"[5,22]";"2";"0";"1"
"409";"31";"5";"1";"19";"1";"1";"5";"1";"[17,30,31,32]";"1";"0";"1"
"410";"18";"5";"1";"39";"1";"1";"5";"1";"[21,36,38]";"1";"0";"1"
"411";"5";"5";"1";"23";"1";"1";"5";"2";"[1,13,21]";"2";"0";"1"
"412";"26";"5";"1";"34";"1";"1";"5";"2";"[6,15,22,24,29,30,31,32]";"2";"0";"1"
"413";"20";"5";"1";"17";"1";"1";"5";"1";"[19]";"1";"0";"1"
"414";"8";"6";"1";"31";"1";"1";"5";"1";"[15,19,24,30,34]";"1";"0";"1"
"415";"6";"6";"1";"5";"1";"1";"5";"1";"[12,22,32]";"1";"0";"1"
"416";"34";"6";"1";"12";"1";"1";"5";"1";"[5,22]";"2";"0";"1"
"417";"27";"6";"1";"13";"1";"1";"5";"2";"[1,3,9,21,23,37]";"0";"3";"1"
"418";"18";"6";"1";"39";"1";"1";"5";"1";"[21,36,38]";"1";"0";"1"
"419";"30";"6";"1";"24";"1";"1";"5";"1";"[6,15,29,30,31,32,34]";"1";"0";"1"
"420";"5";"6";"1";"23";"1";"1";"5";"2";"[1,13,21]";"2";"0";"1"
"421";"26";"6";"1";"34";"1";"1";"5";"2";"[6,15,22,24,29,30,31,32]";"2";"0";"1"
"422";"20";"6";"1";"17";"1";"1";"5";"1";"[19]";"1";"0";"1"
"423";"19";"7";"1";"10";"1";"1";"5";"1";"[3,9,29,37]";"1";"0";"1"
"424";"8";"7";"1";"31";"1";"1";"5";"1";"[15,19,24,30,34]";"1";"0";"1"
"425";"21";"7";"1";"1";"1";"1";"5";"1";"[3,9,13,23]";"2";"0";"1"
"426";"16";"7";"1";"20";"1";"1";"5";"1";"[8,27,38]";"1";"0";"1"
"427";"6";"7";"1";"5";"1";"1";"5";"1";"[12,22,32]";"1";"0";"1"
"428";"30";"7";"1";"24";"1";"1";"5";"1";"[6,15,29,30,31,32,34]";"1";"0";"1"
"429";"23";"7";"1";"18";"1";"1";"5";"1";"[3,11,16,27]";"1";"0";"1"
"430";"19";"8";"1";"10";"1";"1";"5";"1";"[3,9,29,37]";"1";"0";"1"
"431";"25";"8";"1";"26";"1";"1";"5";"2";"[14,35]";"2";"0";"1"
"432";"21";"8";"1";"1";"1";"1";"5";"1";"[3,9,13,23]";"2";"0";"1"
"433";"16";"8";"1";"20";"1";"1";"5";"1";"[8,27,38]";"1";"0";"1"
"434";"37";"8";"1";"36";"1";"1";"5";"1";"[21,38,39]";"1";"0";"1"
"435";"4";"8";"1";"28";"1";"1";"5";"1";"[7,33]";"1";"0";"1"
"436";"13";"8";"1";"32";"1";"1";"5";"2";"[5,15,19,22,24,29,34]";"1";"0";"1"
"437";"23";"8";"1";"18";"1";"1";"5";"1";"[3,11,16,27]";"1";"0";"1"
"438";"25";"9";"1";"26";"1";"1";"5";"2";"[14,35]";"2";"0";"1"
"439";"37";"9";"1";"36";"1";"1";"5";"1";"[21,38,39]";"1";"0";"1"
"440";"4";"9";"1";"28";"1";"1";"5";"1";"[7,33]";"1";"0";"1"
"441";"15";"9";"1";"16";"1";"1";"5";"1";"[3,11,18,27]";"1";"0";"1"
"442";"13";"9";"1";"32";"1";"1";"5";"2";"[5,15,19,22,24,29,34]";"1";"0";"1"
"443";"38";"9";"1";"29";"1";"1";"5";"2";"[9,10,15,24,32,34,37]";"2";"0";"1"
"444";"7";"9";"1";"40";"1";"1";"5";"1";"[7,14,38]";"1";"0";"1"
"445";"27";"10";"1";"13";"1";"1";"5";"2";"[1,3,9,21,23,37]";"0";"4";"1"
"446";"15";"10";"1";"16";"1";"1";"5";"1";"[3,11,18,27]";"1";"0";"1"
"447";"38";"10";"1";"29";"1";"1";"5";"2";"[9,10,15,24,32,34,37]";"2";"0";"1"
"448";"7";"10";"1";"40";"1";"1";"5";"1";"[7,14,38]";"1";"0";"1"
"449";"40";"11";"1";"9";"1";"1";"5";"2";"[1,3,10,13,29,37]";"2";"0";"1"
"450";"40";"12";"1";"9";"1";"1";"5";"2";"[1,3,10,13,29,37]";"2";"0";"1"
"451";"27";"13";"1";"13";"1";"1";"5";"2";"[1,3,9,21,23,37]";"0";"3";"1"
"452";"14";"13";"1";"11";"1";"1";"5";"2";"[16,18]";"1";"5";"1"
"453";"2";"13";"1";"35";"1";"1";"5";"2";"[14,26]";"2";"0";"1"
"454";"9";"14";"1";"33";"1";"1";"5";"1";"[4,28]";"1";"0";"1"
"455";"14";"14";"1";"11";"1";"1";"5";"2";"[16,18]";"1";"5";"1"
"456";"10";"14";"1";"21";"1";"1";"5";"1";"[13,15,23,36,39]";"1";"0";"1"
"457";"2";"14";"1";"35";"1";"1";"5";"2";"[14,26]";"2";"0";"1"
"458";"9";"15";"1";"33";"1";"1";"5";"1";"[4,28]";"1";"0";"1"
"459";"1";"15";"1";"30";"1";"1";"5";"1";"[6,15,19,24,31,34,37]";"2";"0";"1"
"460";"10";"15";"1";"21";"1";"1";"5";"1";"[13,15,23,36,39]";"1";"0";"1"
"461";"27";"16";"1";"13";"1";"1";"5";"2";"[1,3,9,21,23,37]";"0";"4";"1"
"462";"1";"16";"1";"30";"1";"1";"5";"1";"[6,15,19,24,31,34,37]";"2";"0";"1"
"463";"14";"16";"1";"11";"1";"1";"5";"2";"[16,18]";"1";"1";"1"
"464";"12";"17";"1";"8";"1";"1";"5";"1";"[6,20]";"1";"0";"1"
"465";"14";"18";"1";"11";"1";"1";"5";"2";"[16,18]";"1";"2";"1"
"466";"12";"18";"1";"8";"1";"1";"5";"1";"[6,20]";"1";"0";"1"
"467";"21";"20";"1";"1";"1";"1";"5";"1";"[3,9,13,23]";"2";"1";"1"
"468";"11";"20";"1";"7";"1";"1";"5";"2";"[28,40]";"2";"0";"1"
"469";"27";"20";"1";"13";"1";"1";"5";"2";"[1,3,9,21,23,37]";"2";"4";"1"
"470";"14";"20";"1";"11";"1";"1";"5";"2";"[16,18]";"1";"3";"1"
"471";"11";"21";"1";"7";"1";"1";"5";"2";"[28,40]";"2";"0";"1"
"472";"21";"21";"1";"1";"1";"1";"5";"1";"[3,9,13,23]";"2";"2";"1"
"473";"27";"21";"1";"13";"1";"1";"5";"2";"[1,3,9,21,23,37]";"2";"4";"1"
"474";"22";"22";"1";"6";"1";"1";"5";"1";"[8,15,24,30,34]";"2";"0";"1"
"475";"32";"22";"1";"25";"1";"1";"5";"2";"[27]";"1";"0";"1"
"476";"14";"22";"1";"11";"1";"1";"5";"2";"[16,18]";"1";"4";"1"
"477";"39";"22";"1";"37";"1";"1";"5";"1";"[9,10,13,29,30]";"1";"0";"1"
"478";"17";"22";"1";"15";"1";"1";"5";"1";"[6,21,24,29,30,31,32,34]";"1";"0";"1"
"479";"21";"22";"1";"1";"1";"1";"5";"1";"[3,9,13,23]";"2";"3";"1"
"480";"35";"22";"1";"14";"1";"1";"5";"2";"[26,35,40]";"2";"0";"1"
"481";"22";"23";"1";"6";"1";"1";"5";"1";"[8,15,24,30,34]";"2";"0";"1"
"482";"32";"23";"1";"25";"1";"1";"5";"2";"[27]";"1";"0";"1"
"483";"39";"23";"1";"37";"1";"1";"5";"1";"[9,10,13,29,30]";"1";"0";"1"
"484";"17";"23";"1";"15";"1";"1";"5";"1";"[6,21,24,29,30,31,32,34]";"1";"0";"1"
"485";"21";"23";"1";"1";"1";"1";"5";"1";"[3,9,13,23]";"2";"4";"1"
"486";"35";"23";"1";"14";"1";"1";"5";"2";"[26,35,40]";"2";"0";"1"
"487";"14";"1";"1";"11";"1";"1";"6";"2";"[16,18]";"0";"5";"1"
"488";"26";"1";"1";"34";"1";"1";"6";"2";"[6,15,22,24,29,30,31,32]";"1";"0";"1"
"489";"28";"2";"1";"38";"1";"1";"6";"1";"[2,4,20,36,39,40]";"1";"0";"1"
"490";"3";"2";"1";"4";"1";"1";"6";"1";"[2,33,38]";"1";"0";"1"
"491";"26";"2";"1";"34";"1";"1";"6";"2";"[6,15,22,24,29,30,31,32]";"1";"0";"1"
"492";"14";"2";"1";"11";"1";"1";"6";"2";"[16,18]";"0";"7";"1"
"493";"21";"2";"1";"1";"1";"1";"6";"1";"[3,9,13,23]";"0";"8";"1"
"494";"28";"3";"1";"38";"1";"1";"6";"1";"[2,4,20,36,39,40]";"1";"0";"1"
"495";"3";"3";"1";"4";"1";"1";"6";"1";"[2,33,38]";"1";"0";"1"
"496";"29";"3";"1";"27";"1";"1";"6";"1";"[16,18,20,25]";"1";"0";"1"
"497";"20";"3";"1";"17";"1";"1";"6";"1";"[19]";"1";"0";"1"
"498";"37";"3";"1";"36";"1";"1";"6";"1";"[21,38,39]";"1";"0";"1"
"499";"38";"4";"1";"29";"1";"1";"6";"2";"[9,10,15,24,32,34,37]";"1";"0";"1"
"500";"33";"4";"1";"2";"1";"1";"6";"1";"[4,38]";"1";"0";"1"
"501";"29";"4";"1";"27";"1";"1";"6";"1";"[16,18,20,25]";"1";"0";"1"
"502";"36";"4";"1";"3";"1";"1";"6";"1";"[1,9,10,13,16,18]";"0";"4";"1"
"503";"25";"4";"1";"26";"1";"1";"6";"2";"[14,35]";"1";"0";"1"
"504";"18";"4";"1";"39";"1";"1";"6";"1";"[21,36,38]";"2";"0";"1"
"505";"20";"4";"1";"17";"1";"1";"6";"1";"[19]";"1";"0";"1"
"506";"37";"4";"1";"36";"1";"1";"6";"1";"[21,38,39]";"1";"0";"1"
"507";"9";"4";"1";"33";"1";"1";"6";"1";"[4,28]";"1";"0";"1"
"508";"27";"4";"1";"13";"1";"1";"6";"2";"[1,3,9,21,23,37]";"0";"6";"1"
"509";"16";"5";"1";"20";"1";"1";"6";"1";"[8,27,38]";"1";"0";"1"
"510";"38";"5";"1";"29";"1";"1";"6";"2";"[9,10,15,24,32,34,37]";"1";"0";"1"
"511";"33";"5";"1";"2";"1";"1";"6";"1";"[4,38]";"1";"0";"1"
"512";"1";"5";"1";"30";"1";"1";"6";"1";"[6,15,19,24,31,34,37]";"1";"0";"1"
"513";"25";"5";"1";"26";"1";"1";"6";"2";"[14,35]";"1";"0";"1"
"514";"36";"5";"1";"3";"1";"1";"6";"1";"[1,9,10,13,16,18]";"0";"5";"1"
"515";"18";"5";"1";"39";"1";"1";"6";"1";"[21,36,38]";"2";"0";"1"
"516";"9";"5";"1";"33";"1";"1";"6";"1";"[4,28]";"1";"0";"1"
"517";"16";"6";"1";"20";"1";"1";"6";"1";"[8,27,38]";"1";"0";"1"
"518";"11";"6";"1";"7";"1";"1";"6";"2";"[28,40]";"1";"0";"1"
"519";"1";"6";"1";"30";"1";"1";"6";"1";"[6,15,19,24,31,34,37]";"1";"0";"1"
"520";"27";"6";"1";"13";"1";"1";"6";"2";"[1,3,9,21,23,37]";"0";"4";"1"
"521";"36";"6";"1";"3";"1";"1";"6";"1";"[1,9,10,13,16,18]";"1";"5";"1"
"522";"30";"6";"1";"24";"1";"1";"6";"1";"[6,15,29,30,31,32,34]";"1";"0";"1"
"523";"19";"6";"1";"10";"1";"1";"6";"1";"[3,9,29,37]";"2";"0";"1"
"524";"11";"7";"1";"7";"1";"1";"6";"2";"[28,40]";"1";"0";"1"
"525";"23";"7";"1";"18";"1";"1";"6";"1";"[3,11,16,27]";"1";"0";"1"
"526";"36";"7";"1";"3";"1";"1";"6";"1";"[1,9,10,13,16,18]";"1";"5";"1"
"527";"30";"7";"1";"24";"1";"1";"6";"1";"[6,15,29,30,31,32,34]";"1";"0";"1"
"528";"19";"7";"1";"10";"1";"1";"6";"1";"[3,9,29,37]";"2";"0";"1"
"529";"7";"7";"1";"40";"1";"1";"6";"1";"[7,14,38]";"1";"0";"1"
"530";"13";"8";"1";"32";"1";"1";"6";"2";"[5,15,19,22,24,29,34]";"1";"0";"1"
"531";"31";"8";"1";"19";"1";"1";"6";"1";"[17,30,31,32]";"1";"0";"1"
"532";"5";"8";"1";"23";"1";"1";"6";"2";"[1,13,21]";"2";"0";"1"
"533";"15";"8";"1";"16";"1";"1";"6";"1";"[3,11,18,27]";"1";"0";"1"
"534";"27";"8";"1";"13";"1";"1";"6";"2";"[1,3,9,21,23,37]";"0";"5";"1"
"535";"23";"8";"1";"18";"1";"1";"6";"1";"[3,11,16,27]";"1";"0";"1"
"536";"17";"8";"1";"15";"1";"1";"6";"1";"[6,21,24,29,30,31,32,34]";"2";"0";"1"
"537";"7";"8";"1";"40";"1";"1";"6";"1";"[7,14,38]";"1";"0";"1"
"538";"34";"8";"1";"12";"1";"1";"6";"1";"[5,22]";"0";"1";"1"
"539";"13";"9";"1";"32";"1";"1";"6";"2";"[5,15,19,22,24,29,34]";"1";"0";"1"
"540";"31";"9";"1";"19";"1";"1";"6";"1";"[17,30,31,32]";"1";"0";"1"
"541";"5";"9";"1";"23";"1";"1";"6";"2";"[1,13,21]";"2";"0";"1"
"542";"22";"9";"1";"6";"1";"1";"6";"1";"[8,15,24,30,34]";"1";"0";"1"
"543";"15";"9";"1";"16";"1";"1";"6";"1";"[3,11,18,27]";"1";"0";"1"
"544";"6";"9";"1";"5";"1";"1";"6";"1";"[12,22,32]";"2";"0";"1"
"545";"17";"9";"1";"15";"1";"1";"6";"1";"[6,21,24,29,30,31,32,34]";"2";"0";"1"
"546";"27";"10";"1";"13";"1";"1";"6";"2";"[1,3,9,21,23,37]";"2";"5";"1"
"547";"22";"10";"1";"6";"1";"1";"6";"1";"[8,15,24,30,34]";"1";"0";"1"
"548";"6";"10";"1";"5";"1";"1";"6";"1";"[12,22,32]";"2";"0";"1"
"549";"21";"10";"1";"1";"1";"1";"6";"1";"[3,9,13,23]";"2";"8";"1"
"550";"35";"11";"1";"14";"1";"1";"6";"2";"[26,35,40]";"2";"0";"1"
"551";"27";"11";"1";"13";"1";"1";"6";"2";"[1,3,9,21,23,37]";"2";"5";"1"
"552";"21";"11";"1";"1";"1";"1";"6";"1";"[3,9,13,23]";"2";"8";"1"
"553";"35";"12";"1";"14";"1";"1";"6";"2";"[26,35,40]";"2";"0";"1"
"554";"2";"12";"1";"35";"1";"1";"6";"2";"[14,26]";"2";"0";"1"
"555";"34";"12";"1";"12";"1";"1";"6";"1";"[5,22]";"0";"3";"1"
"556";"40";"13";"1";"9";"1";"1";"6";"2";"[1,3,10,13,29,37]";"2";"0";"1"
"557";"2";"13";"1";"35";"1";"1";"6";"2";"[14,26]";"2";"0";"1"
"558";"24";"14";"1";"22";"1";"1";"6";"1";"[5,12,32,34]";"0";"4";"1"
"559";"14";"14";"1";"11";"1";"1";"6";"2";"[16,18]";"1";"7";"1"
"560";"40";"14";"1";"9";"1";"1";"6";"2";"[1,3,10,13,29,37]";"2";"0";"1"
"561";"14";"15";"1";"11";"1";"1";"6";"2";"[16,18]";"1";"7";"1"
"562";"24";"15";"1";"22";"1";"1";"6";"1";"[5,12,32,34]";"0";"3";"1"
"563";"24";"16";"1";"22";"1";"1";"6";"1";"[5,12,32,34]";"0";"2";"1"
"564";"24";"16";"1";"22";"1";"1";"6";"1";"[5,12,32,34]";"0";"1";"1"
"565";"34";"17";"1";"12";"1";"1";"6";"1";"[5,22]";"0";"5";"1"
"566";"12";"17";"1";"8";"1";"1";"6";"1";"[6,20]";"1";"0";"1"
"567";"12";"18";"1";"8";"1";"1";"6";"1";"[6,20]";"1";"0";"1"
"568";"34";"19";"1";"12";"1";"1";"6";"1";"[5,22]";"0";"4";"1"
"569";"32";"19";"1";"25";"1";"1";"6";"2";"[27]";"1";"0";"1"
"570";"24";"19";"1";"22";"1";"1";"6";"1";"[5,12,32,34]";"0";"5";"1"
"571";"34";"20";"1";"12";"1";"1";"6";"1";"[5,22]";"0";"5";"1"
"572";"32";"20";"1";"25";"1";"1";"6";"2";"[27]";"1";"0";"1"
"573";"8";"21";"1";"31";"1";"1";"6";"1";"[15,19,24,30,34]";"1";"0";"1"
"574";"8";"22";"1";"31";"1";"1";"6";"1";"[15,19,24,30,34]";"1";"0";"1"
"575";"34";"22";"1";"12";"1";"1";"6";"1";"[5,22]";"0";"7";"1"
"576";"4";"23";"1";"28";"1";"1";"6";"1";"[7,33]";"2";"0";"1"
"577";"10";"23";"1";"21";"1";"1";"6";"1";"[13,15,23,36,39]";"1";"0";"1"
"578";"24";"24";"1";"22";"1";"1";"6";"1";"[5,12,32,34]";"2";"5";"1"
"579";"4";"24";"1";"28";"1";"1";"6";"1";"[7,33]";"2";"0";"1"
"580";"10";"24";"1";"21";"1";"1";"6";"1";"[13,15,23,36,39]";"1";"0";"1"
"581";"24";"25";"1";"22";"1";"1";"6";"1";"[5,12,32,34]";"2";"5";"1"
"582";"34";"25";"1";"12";"1";"1";"6";"1";"[5,22]";"1";"7";"1"
"583";"34";"26";"1";"12";"1";"1";"6";"1";"[5,22]";"1";"7";"1"
"584";"39";"28";"1";"37";"1";"1";"6";"1";"[9,10,13,29,30]";"1";"0";"1"
"585";"39";"29";"1";"37";"1";"1";"6";"1";"[9,10,13,29,30]";"1";"0";"1"
"586";"26";"1";"1";"34";"1";"1";"7";"2";"[6,15,22,24,29,30,31,32]";"1";"0";"1"
"587";"26";"2";"1";"34";"1";"1";"7";"2";"[6,15,22,24,29,30,31,32]";"1";"0";"1"
"588";"24";"2";"1";"22";"1";"1";"7";"1";"[5,12,32,34]";"1";"0";"1"
"589";"24";"3";"1";"22";"1";"1";"7";"1";"[5,12,32,34]";"1";"0";"1"
"590";"1";"3";"1";"30";"1";"1";"7";"1";"[6,15,19,24,31,34,37]";"1";"0";"1"
"591";"20";"3";"1";"17";"1";"1";"7";"1";"[19]";"1";"0";"1"
"592";"5";"3";"1";"23";"1";"1";"7";"2";"[1,13,21]";"2";"0";"1"
"593";"29";"3";"1";"27";"1";"1";"7";"1";"[16,18,20,25]";"1";"0";"1"
"594";"3";"4";"1";"4";"1";"1";"7";"1";"[2,33,38]";"1";"0";"1"
"595";"4";"4";"1";"28";"1";"1";"7";"1";"[7,33]";"1";"0";"1"
"596";"28";"4";"1";"38";"1";"1";"7";"1";"[2,4,20,36,39,40]";"1";"0";"1"
"597";"1";"4";"1";"30";"1";"1";"7";"1";"[6,15,19,24,31,34,37]";"1";"0";"1"
"598";"20";"4";"1";"17";"1";"1";"7";"1";"[19]";"1";"0";"1"
"599";"5";"4";"1";"23";"1";"1";"7";"2";"[1,13,21]";"2";"0";"1"
"600";"29";"4";"1";"27";"1";"1";"7";"1";"[16,18,20,25]";"1";"0";"1"
"601";"33";"4";"1";"2";"1";"1";"7";"1";"[4,38]";"1";"0";"1"
"602";"11";"5";"1";"7";"1";"1";"7";"2";"[28,40]";"2";"0";"1"
"603";"3";"5";"1";"4";"1";"1";"7";"1";"[2,33,38]";"1";"0";"1"
"604";"4";"5";"1";"28";"1";"1";"7";"1";"[7,33]";"1";"0";"1"
"605";"28";"5";"1";"38";"1";"1";"7";"1";"[2,4,20,36,39,40]";"1";"0";"1"
"606";"17";"5";"1";"15";"1";"1";"7";"1";"[6,21,24,29,30,31,32,34]";"1";"0";"1"
"607";"13";"5";"1";"32";"1";"1";"7";"2";"[5,15,19,22,24,29,34]";"1";"0";"1"
"608";"14";"5";"1";"11";"1";"1";"7";"2";"[16,18]";"0";"9";"1"
"609";"33";"5";"1";"2";"1";"1";"7";"1";"[4,38]";"1";"0";"1"
"610";"9";"6";"1";"33";"1";"1";"7";"1";"[4,28]";"1";"0";"1"
"611";"11";"6";"1";"7";"1";"1";"7";"2";"[28,40]";"2";"0";"1"
"612";"31";"6";"1";"19";"1";"1";"7";"1";"[17,30,31,32]";"1";"0";"1"
"613";"7";"6";"1";"40";"1";"1";"7";"1";"[7,14,38]";"1";"0";"1"
"614";"17";"6";"1";"15";"1";"1";"7";"1";"[6,21,24,29,30,31,32,34]";"1";"0";"1"
"615";"13";"6";"1";"32";"1";"1";"7";"2";"[5,15,19,22,24,29,34]";"1";"0";"1"
"616";"37";"6";"1";"36";"1";"1";"7";"1";"[21,38,39]";"1";"0";"1"
"617";"38";"6";"1";"29";"1";"1";"7";"2";"[9,10,15,24,32,34,37]";"2";"0";"1"
"618";"9";"7";"1";"33";"1";"1";"7";"1";"[4,28]";"1";"0";"1"
"619";"31";"7";"1";"19";"1";"1";"7";"1";"[17,30,31,32]";"1";"0";"1"
"620";"7";"7";"1";"40";"1";"1";"7";"1";"[7,14,38]";"1";"0";"1"
"621";"16";"7";"1";"20";"1";"1";"7";"1";"[8,27,38]";"1";"0";"1"
"622";"12";"7";"1";"8";"1";"1";"7";"1";"[6,20]";"1";"0";"1"
"623";"22";"7";"1";"6";"1";"1";"7";"1";"[8,15,24,30,34]";"2";"0";"1"
"624";"19";"7";"1";"10";"1";"1";"7";"1";"[3,9,29,37]";"2";"0";"1"
"625";"37";"7";"1";"36";"1";"1";"7";"1";"[21,38,39]";"1";"0";"1"
"626";"38";"7";"1";"29";"1";"1";"7";"2";"[9,10,15,24,32,34,37]";"2";"0";"1"
"627";"34";"8";"1";"12";"1";"1";"7";"1";"[5,22]";"2";"0";"1"
"628";"16";"8";"1";"20";"1";"1";"7";"1";"[8,27,38]";"1";"0";"1"
"629";"18";"8";"1";"39";"1";"1";"7";"1";"[21,36,38]";"1";"0";"1"
"630";"12";"8";"1";"8";"1";"1";"7";"1";"[6,20]";"1";"0";"1"
"631";"22";"8";"1";"6";"1";"1";"7";"1";"[8,15,24,30,34]";"2";"0";"1"
"632";"19";"8";"1";"10";"1";"1";"7";"1";"[3,9,29,37]";"2";"0";"1"
"633";"36";"8";"1";"3";"1";"1";"7";"1";"[1,9,10,13,16,18]";"1";"0";"1"
"634";"8";"9";"1";"31";"1";"1";"7";"1";"[15,19,24,30,34]";"1";"0";"1"
"635";"34";"9";"1";"12";"1";"1";"7";"1";"[5,22]";"2";"0";"1"
"636";"14";"9";"1";"11";"1";"1";"7";"2";"[16,18]";"1";"9";"1"
"637";"30";"9";"1";"24";"1";"1";"7";"1";"[6,15,29,30,31,32,34]";"1";"0";"1"
"638";"18";"9";"1";"39";"1";"1";"7";"1";"[21,36,38]";"1";"0";"1"
"639";"21";"9";"1";"1";"1";"1";"7";"1";"[3,9,13,23]";"2";"0";"1"
"640";"36";"9";"1";"3";"1";"1";"7";"1";"[1,9,10,13,16,18]";"1";"0";"1"
"641";"8";"10";"1";"31";"1";"1";"7";"1";"[15,19,24,30,34]";"1";"0";"1"
"642";"14";"10";"1";"11";"1";"1";"7";"2";"[16,18]";"1";"9";"1"
"643";"30";"10";"1";"24";"1";"1";"7";"1";"[6,15,29,30,31,32,34]";"1";"0";"1"
"644";"21";"10";"1";"1";"1";"1";"7";"1";"[3,9,13,23]";"2";"0";"1"
"645";"25";"11";"1";"26";"1";"1";"7";"2";"[14,35]";"2";"0";"1"
"646";"23";"11";"1";"18";"1";"1";"7";"1";"[3,11,16,27]";"1";"0";"1"
"647";"25";"12";"1";"26";"1";"1";"7";"2";"[14,35]";"2";"0";"1"
"648";"35";"12";"1";"14";"1";"1";"7";"2";"[26,35,40]";"2";"0";"1"
"649";"23";"12";"1";"18";"1";"1";"7";"1";"[3,11,16,27]";"1";"0";"1"
"650";"15";"13";"1";"16";"1";"1";"7";"1";"[3,11,18,27]";"1";"0";"1"
"651";"35";"13";"1";"14";"1";"1";"7";"2";"[26,35,40]";"2";"0";"1"
"652";"15";"14";"1";"16";"1";"1";"7";"1";"[3,11,18,27]";"1";"0";"1"
"653";"6";"14";"1";"5";"1";"1";"7";"1";"[12,22,32]";"1";"0";"1"
"654";"6";"15";"1";"5";"1";"1";"7";"1";"[12,22,32]";"1";"0";"1"
"655";"40";"15";"1";"9";"1";"1";"7";"2";"[1,3,10,13,29,37]";"1";"0";"1"
"656";"40";"16";"1";"9";"1";"1";"7";"2";"[1,3,10,13,29,37]";"1";"0";"1"
"657";"27";"16";"1";"13";"1";"1";"7";"2";"[1,3,9,21,23,37]";"2";"0";"1"
"658";"27";"17";"1";"13";"1";"1";"7";"2";"[1,3,9,21,23,37]";"2";"0";"1"
"659";"2";"17";"1";"35";"1";"1";"7";"2";"[14,26]";"2";"0";"1"
"660";"2";"18";"1";"35";"1";"1";"7";"2";"[14,26]";"2";"0";"1"
"661";"32";"22";"1";"25";"1";"1";"7";"2";"[27]";"1";"0";"1"
"662";"32";"23";"1";"25";"1";"1";"7";"2";"[27]";"1";"0";"1"
"663";"34";"25";"1";"12";"1";"1";"7";"1";"[5,22]";"2";"5";"1"
"664";"36";"25";"1";"3";"1";"1";"7";"1";"[1,9,10,13,16,18]";"1";"1";"1"
"665";"36";"26";"1";"3";"1";"1";"7";"1";"[1,9,10,13,16,18]";"1";"2";"1"
"666";"34";"26";"1";"12";"1";"1";"7";"1";"[5,22]";"2";"4";"1"
"667";"39";"26";"1";"37";"1";"1";"7";"1";"[9,10,13,29,30]";"1";"0";"1"
"668";"36";"26";"1";"3";"1";"1";"7";"1";"[1,9,10,13,16,18]";"1";"3";"1"
"669";"34";"27";"1";"12";"1";"1";"7";"1";"[5,22]";"2";"3";"1"
"670";"36";"27";"1";"3";"1";"1";"7";"1";"[1,9,10,13,16,18]";"1";"4";"1"
"671";"39";"27";"1";"37";"1";"1";"7";"1";"[9,10,13,29,30]";"1";"0";"1"
"672";"34";"28";"1";"12";"1";"1";"7";"1";"[5,22]";"2";"1";"1"
"673";"36";"28";"1";"3";"1";"1";"7";"1";"[1,9,10,13,16,18]";"1";"5";"1"
"674";"10";"29";"1";"21";"1";"1";"7";"1";"[13,15,23,36,39]";"1";"0";"1"
"675";"36";"29";"1";"3";"1";"1";"7";"1";"[1,9,10,13,16,18]";"1";"6";"1"
"676";"10";"30";"1";"21";"1";"1";"7";"1";"[13,15,23,36,39]";"1";"0";"1"
"677";"36";"0";"1";"3";"1";"1";"8";"1";"[1,9,10,13,16,18]";"0";"7";"1"
"678";"34";"1";"1";"12";"1";"1";"8";"1";"[5,22]";"0";"8";"1"
"679";"3";"1";"1";"4";"1";"1";"8";"1";"[2,33,38]";"1";"0";"1"
"680";"24";"2";"1";"22";"1";"1";"8";"1";"[5,12,32,34]";"1";"0";"1"
"681";"37";"2";"1";"36";"1";"1";"8";"1";"[21,38,39]";"1";"0";"1"
"682";"36";"2";"1";"3";"1";"1";"8";"1";"[1,9,10,13,16,18]";"0";"8";"1"
"683";"9";"2";"1";"33";"1";"1";"8";"1";"[4,28]";"1";"0";"1"
"684";"3";"2";"1";"4";"1";"1";"8";"1";"[2,33,38]";"1";"0";"1"
"685";"33";"3";"1";"2";"1";"1";"8";"1";"[4,38]";"1";"0";"1"
"686";"14";"3";"1";"11";"1";"1";"8";"2";"[16,18]";"1";"0";"1"
"687";"24";"3";"1";"22";"1";"1";"8";"1";"[5,12,32,34]";"1";"0";"1"
"688";"26";"3";"1";"34";"1";"1";"8";"2";"[6,15,22,24,29,30,31,32]";"1";"0";"1"
"689";"35";"3";"1";"14";"1";"1";"8";"2";"[26,35,40]";"2";"0";"1"
"690";"37";"3";"1";"36";"1";"1";"8";"1";"[21,38,39]";"1";"0";"1"
"691";"28";"3";"1";"38";"1";"1";"8";"1";"[2,4,20,36,39,40]";"1";"0";"1"
"692";"9";"3";"1";"33";"1";"1";"8";"1";"[4,28]";"1";"0";"1"
"693";"33";"4";"1";"2";"1";"1";"8";"1";"[4,38]";"1";"0";"1"
"694";"14";"4";"1";"11";"1";"1";"8";"2";"[16,18]";"1";"0";"1"
"695";"26";"4";"1";"34";"1";"1";"8";"2";"[6,15,22,24,29,30,31,32]";"1";"0";"1"
"696";"34";"4";"1";"12";"1";"1";"8";"1";"[5,22]";"0";"6";"1"
"697";"35";"4";"1";"14";"1";"1";"8";"2";"[26,35,40]";"2";"0";"1"
"698";"20";"4";"1";"17";"1";"1";"8";"1";"[19]";"1";"0";"1"
"699";"28";"4";"1";"38";"1";"1";"8";"1";"[2,4,20,36,39,40]";"1";"0";"1"
"700";"23";"4";"1";"18";"1";"1";"8";"1";"[3,11,16,27]";"1";"0";"1"
"701";"16";"4";"1";"20";"1";"1";"8";"1";"[8,27,38]";"1";"0";"1"
"702";"36";"5";"1";"3";"1";"1";"8";"1";"[1,9,10,13,16,18]";"1";"8";"1"
"703";"13";"5";"1";"32";"1";"1";"8";"2";"[5,15,19,22,24,29,34]";"1";"0";"1"
"704";"20";"5";"1";"17";"1";"1";"8";"1";"[19]";"1";"0";"1"
"705";"34";"5";"1";"12";"1";"1";"8";"1";"[5,22]";"0";"8";"1"
"706";"30";"5";"1";"24";"1";"1";"8";"1";"[6,15,29,30,31,32,34]";"1";"0";"1"
"707";"23";"5";"1";"18";"1";"1";"8";"1";"[3,11,16,27]";"1";"0";"1"
"708";"16";"5";"1";"20";"1";"1";"8";"1";"[8,27,38]";"1";"0";"1"
"709";"5";"6";"1";"23";"1";"1";"8";"2";"[1,13,21]";"0";"1";"1"
"710";"36";"6";"1";"3";"1";"1";"8";"1";"[1,9,10,13,16,18]";"1";"8";"1"
"711";"13";"6";"1";"32";"1";"1";"8";"2";"[5,15,19,22,24,29,34]";"1";"0";"1"
"712";"29";"6";"1";"27";"1";"1";"8";"1";"[16,18,20,25]";"1";"0";"1"
"713";"25";"6";"1";"26";"1";"1";"8";"2";"[14,35]";"1";"0";"1"
"714";"19";"6";"1";"10";"1";"1";"8";"1";"[3,9,29,37]";"2";"0";"1"
"715";"38";"6";"1";"29";"1";"1";"8";"2";"[9,10,15,24,32,34,37]";"2";"0";"1"
"716";"30";"6";"1";"24";"1";"1";"8";"1";"[6,15,29,30,31,32,34]";"1";"0";"1"
"717";"34";"7";"1";"12";"1";"1";"8";"1";"[5,22]";"2";"8";"1"
"718";"21";"7";"1";"1";"1";"1";"8";"1";"[3,9,13,23]";"2";"0";"1"
"719";"29";"7";"1";"27";"1";"1";"8";"1";"[16,18,20,25]";"1";"0";"1"
"720";"25";"7";"1";"26";"1";"1";"8";"2";"[14,35]";"1";"0";"1"
"721";"19";"7";"1";"10";"1";"1";"8";"1";"[3,9,29,37]";"2";"0";"1"
"722";"38";"7";"1";"29";"1";"1";"8";"2";"[9,10,15,24,32,34,37]";"2";"0";"1"
"723";"5";"7";"1";"23";"1";"1";"8";"2";"[1,13,21]";"0";"3";"1"
"724";"34";"8";"1";"12";"1";"1";"8";"1";"[5,22]";"2";"8";"1"
"725";"31";"8";"1";"19";"1";"1";"8";"1";"[17,30,31,32]";"1";"0";"1"
"726";"21";"8";"1";"1";"1";"1";"8";"1";"[3,9,13,23]";"2";"0";"1"
"727";"5";"8";"1";"23";"1";"1";"8";"2";"[1,13,21]";"0";"4";"1"
"728";"31";"9";"1";"19";"1";"1";"8";"1";"[17,30,31,32]";"1";"0";"1"
"729";"11";"9";"1";"7";"1";"1";"8";"2";"[28,40]";"2";"0";"1"
"730";"8";"9";"1";"31";"1";"1";"8";"1";"[15,19,24,30,34]";"1";"0";"1"
"731";"5";"9";"1";"23";"1";"1";"8";"2";"[1,13,21]";"0";"6";"1"
"732";"22";"9";"1";"6";"1";"1";"8";"1";"[8,15,24,30,34]";"2";"0";"1"
"733";"4";"9";"1";"28";"1";"1";"8";"1";"[7,33]";"2";"0";"1"
"734";"5";"10";"1";"23";"1";"1";"8";"2";"[1,13,21]";"0";"9";"1"
"735";"11";"10";"1";"7";"1";"1";"8";"2";"[28,40]";"2";"0";"1"
"736";"8";"10";"1";"31";"1";"1";"8";"1";"[15,19,24,30,34]";"1";"0";"1"
"737";"22";"10";"1";"6";"1";"1";"8";"1";"[8,15,24,30,34]";"2";"0";"1"
"738";"4";"10";"1";"28";"1";"1";"8";"1";"[7,33]";"2";"0";"1"
"739";"17";"11";"1";"15";"1";"1";"8";"1";"[6,21,24,29,30,31,32,34]";"1";"0";"1"
"740";"5";"11";"1";"23";"1";"1";"8";"2";"[1,13,21]";"2";"9";"1"
"741";"12";"11";"1";"8";"1";"1";"8";"1";"[6,20]";"1";"0";"1"
"742";"17";"12";"1";"15";"1";"1";"8";"1";"[6,21,24,29,30,31,32,34]";"1";"0";"1"
"743";"5";"12";"1";"23";"1";"1";"8";"2";"[1,13,21]";"2";"9";"1"
"744";"7";"12";"1";"40";"1";"1";"8";"1";"[7,14,38]";"2";"0";"1"
"745";"12";"12";"1";"8";"1";"1";"8";"1";"[6,20]";"1";"0";"1"
"746";"18";"12";"1";"39";"1";"1";"8";"1";"[21,36,38]";"1";"0";"1"
"747";"2";"13";"1";"35";"1";"1";"8";"2";"[14,26]";"2";"0";"1"
"748";"7";"13";"1";"40";"1";"1";"8";"1";"[7,14,38]";"2";"0";"1"
"749";"18";"13";"1";"39";"1";"1";"8";"1";"[21,36,38]";"1";"0";"1"
"750";"32";"13";"1";"25";"1";"1";"8";"2";"[27]";"1";"0";"1"
"751";"2";"14";"1";"35";"1";"1";"8";"2";"[14,26]";"2";"0";"1"
"752";"1";"14";"1";"30";"1";"1";"8";"1";"[6,15,19,24,31,34,37]";"1";"0";"1"
"753";"32";"14";"1";"25";"1";"1";"8";"2";"[27]";"1";"0";"1"
"754";"15";"15";"1";"16";"1";"1";"8";"1";"[3,11,18,27]";"1";"0";"1"
"755";"1";"15";"1";"30";"1";"1";"8";"1";"[6,15,19,24,31,34,37]";"1";"0";"1"
"756";"15";"16";"1";"16";"1";"1";"8";"1";"[3,11,18,27]";"1";"0";"1"
"757";"6";"16";"1";"5";"1";"1";"8";"1";"[12,22,32]";"2";"0";"1"
"758";"6";"17";"1";"5";"1";"1";"8";"1";"[12,22,32]";"2";"0";"1"
"759";"27";"18";"1";"13";"1";"1";"8";"2";"[1,3,9,21,23,37]";"1";"0";"1"
"760";"40";"18";"1";"9";"1";"1";"8";"2";"[1,3,10,13,29,37]";"2";"0";"1"
"761";"27";"19";"1";"13";"1";"1";"8";"2";"[1,3,9,21,23,37]";"1";"0";"1"
"762";"40";"19";"1";"9";"1";"1";"8";"2";"[1,3,10,13,29,37]";"2";"0";"1"
"763";"10";"23";"1";"21";"1";"1";"8";"1";"[13,15,23,36,39]";"1";"0";"1"
"764";"10";"24";"1";"21";"1";"1";"8";"1";"[13,15,23,36,39]";"1";"0";"1"
"765";"39";"27";"1";"37";"1";"1";"8";"1";"[9,10,13,29,30]";"1";"0";"1"
"766";"39";"28";"1";"37";"1";"1";"8";"1";"[9,10,13,29,30]";"1";"0";"1"
"767";"2";"1";"1";"35";"1";"1";"9";"2";"[14,26]";"0";"7";"1"
"768";"2";"2";"1";"35";"1";"1";"9";"2";"[14,26]";"0";"6";"1"
"769";"29";"2";"1";"27";"1";"1";"9";"1";"[16,18,20,25]";"1";"0";"1"
"770";"9";"2";"1";"33";"1";"1";"9";"1";"[4,28]";"1";"0";"1"
"771";"11";"2";"1";"7";"1";"1";"9";"2";"[28,40]";"2";"0";"1"
"772";"33";"2";"1";"2";"1";"1";"9";"1";"[4,38]";"1";"0";"1"
"773";"2";"2";"1";"35";"1";"1";"9";"2";"[14,26]";"0";"5";"1"
"774";"37";"3";"1";"36";"1";"1";"9";"1";"[21,38,39]";"1";"0";"1"
"775";"17";"3";"1";"15";"1";"1";"9";"1";"[6,21,24,29,30,31,32,34]";"1";"0";"1"
"776";"25";"3";"1";"26";"1";"1";"9";"2";"[14,35]";"2";"0";"1"
"777";"20";"3";"1";"17";"1";"1";"9";"1";"[19]";"1";"0";"1"
"778";"29";"3";"1";"27";"1";"1";"9";"1";"[16,18,20,25]";"1";"0";"1"
"779";"2";"3";"1";"35";"1";"1";"9";"2";"[14,26]";"0";"4";"1"
"780";"6";"3";"1";"5";"1";"1";"9";"1";"[12,22,32]";"2";"0";"1"
"781";"38";"3";"1";"29";"1";"1";"9";"2";"[9,10,15,24,32,34,37]";"2";"0";"1"
"782";"9";"3";"1";"33";"1";"1";"9";"1";"[4,28]";"1";"0";"1"
"783";"11";"3";"1";"7";"1";"1";"9";"2";"[28,40]";"2";"0";"1"
"784";"28";"3";"1";"38";"1";"1";"9";"1";"[2,4,20,36,39,40]";"1";"0";"1"
"785";"33";"3";"1";"2";"1";"1";"9";"1";"[4,38]";"1";"0";"1"
"786";"26";"3";"1";"34";"1";"1";"9";"2";"[6,15,22,24,29,30,31,32]";"1";"0";"1"
"787";"16";"3";"1";"20";"1";"1";"9";"1";"[8,27,38]";"1";"0";"1"
"788";"2";"3";"1";"35";"1";"1";"9";"2";"[14,26]";"0";"3";"1"
"789";"37";"4";"1";"36";"1";"1";"9";"1";"[21,38,39]";"1";"0";"1"
"790";"17";"4";"1";"15";"1";"1";"9";"1";"[6,21,24,29,30,31,32,34]";"1";"0";"1"
"791";"13";"4";"1";"32";"1";"1";"9";"2";"[5,15,19,22,24,29,34]";"1";"0";"1"
"792";"25";"4";"1";"26";"1";"1";"9";"2";"[14,35]";"2";"0";"1"
"793";"20";"4";"1";"17";"1";"1";"9";"1";"[19]";"1";"0";"1"
"794";"6";"4";"1";"5";"1";"1";"9";"1";"[12,22,32]";"2";"0";"1"
"795";"38";"4";"1";"29";"1";"1";"9";"2";"[9,10,15,24,32,34,37]";"2";"0";"1"
"796";"2";"4";"1";"35";"1";"1";"9";"2";"[14,26]";"0";"5";"1"
"797";"3";"4";"1";"4";"1";"1";"9";"1";"[2,33,38]";"1";"0";"1"
"798";"28";"4";"1";"38";"1";"1";"9";"1";"[2,4,20,36,39,40]";"1";"0";"1"
"799";"26";"4";"1";"34";"1";"1";"9";"2";"[6,15,22,24,29,30,31,32]";"1";"0";"1"
"800";"16";"4";"1";"20";"1";"1";"9";"1";"[8,27,38]";"1";"0";"1"
"801";"24";"4";"1";"22";"1";"1";"9";"1";"[5,12,32,34]";"2";"0";"1"
"802";"13";"5";"1";"32";"1";"1";"9";"2";"[5,15,19,22,24,29,34]";"1";"0";"1"
"803";"31";"5";"1";"19";"1";"1";"9";"1";"[17,30,31,32]";"1";"0";"1"
"804";"2";"5";"1";"35";"1";"1";"9";"2";"[14,26]";"0";"6";"1"
"805";"19";"5";"1";"10";"1";"1";"9";"1";"[3,9,29,37]";"2";"0";"1"
"806";"3";"5";"1";"4";"1";"1";"9";"1";"[2,33,38]";"1";"0";"1"
"807";"32";"5";"1";"25";"1";"1";"9";"2";"[27]";"1";"0";"1"
"808";"24";"5";"1";"22";"1";"1";"9";"1";"[5,12,32,34]";"2";"0";"1"
"809";"35";"5";"1";"14";"1";"1";"9";"2";"[26,35,40]";"2";"0";"1"
"810";"1";"6";"1";"30";"1";"1";"9";"1";"[6,15,19,24,31,34,37]";"1";"0";"1"
"811";"14";"6";"1";"11";"1";"1";"9";"2";"[16,18]";"1";"0";"1"
"812";"10";"6";"1";"21";"1";"1";"9";"1";"[13,15,23,36,39]";"1";"0";"1"
"813";"31";"6";"1";"19";"1";"1";"9";"1";"[17,30,31,32]";"1";"0";"1"
"814";"12";"6";"1";"8";"1";"1";"9";"1";"[6,20]";"0";"1";"1"
"815";"18";"6";"1";"39";"1";"1";"9";"1";"[21,36,38]";"1";"0";"1"
"816";"19";"6";"1";"10";"1";"1";"9";"1";"[3,9,29,37]";"2";"0";"1"
"817";"32";"6";"1";"25";"1";"1";"9";"2";"[27]";"1";"0";"1"
"818";"35";"6";"1";"14";"1";"1";"9";"2";"[26,35,40]";"2";"0";"1"
"819";"36";"7";"1";"3";"1";"1";"9";"1";"[1,9,10,13,16,18]";"1";"0";"1"
"820";"1";"7";"1";"30";"1";"1";"9";"1";"[6,15,19,24,31,34,37]";"1";"0";"1"
"821";"14";"7";"1";"11";"1";"1";"9";"2";"[16,18]";"1";"0";"1"
"822";"10";"7";"1";"21";"1";"1";"9";"1";"[13,15,23,36,39]";"1";"0";"1"
"823";"15";"7";"1";"16";"1";"1";"9";"1";"[3,11,18,27]";"1";"0";"1"
"824";"18";"7";"1";"39";"1";"1";"9";"1";"[21,36,38]";"1";"0";"1"
"825";"36";"8";"1";"3";"1";"1";"9";"1";"[1,9,10,13,16,18]";"1";"0";"1"
"826";"5";"8";"1";"23";"1";"1";"9";"2";"[1,13,21]";"2";"0";"1"
"827";"12";"8";"1";"8";"1";"1";"9";"1";"[6,20]";"0";"2";"1"
"828";"15";"8";"1";"16";"1";"1";"9";"1";"[3,11,18,27]";"1";"0";"1"
"829";"2";"8";"1";"35";"1";"1";"9";"2";"[14,26]";"0";"7";"1"
"830";"7";"8";"1";"40";"1";"1";"9";"1";"[7,14,38]";"2";"0";"1"
"831";"2";"9";"1";"35";"1";"1";"9";"2";"[14,26]";"0";"8";"1"
"832";"23";"9";"1";"18";"1";"1";"9";"1";"[3,11,16,27]";"1";"0";"1"
"833";"5";"9";"1";"23";"1";"1";"9";"2";"[1,13,21]";"2";"0";"1"
"834";"2";"9";"1";"35";"1";"1";"9";"2";"[14,26]";"0";"9";"1"
"835";"7";"9";"1";"40";"1";"1";"9";"1";"[7,14,38]";"2";"0";"1"
"836";"12";"9";"1";"8";"1";"1";"9";"1";"[6,20]";"0";"3";"1"
"837";"23";"10";"1";"18";"1";"1";"9";"1";"[3,11,16,27]";"1";"0";"1"
"838";"12";"11";"1";"8";"1";"1";"9";"1";"[6,20]";"0";"4";"1"
"839";"34";"11";"1";"12";"1";"1";"9";"1";"[5,22]";"1";"0";"1"
"840";"2";"11";"1";"35";"1";"1";"9";"2";"[14,26]";"0";"9";"1"
"841";"21";"11";"1";"1";"1";"1";"9";"1";"[3,9,13,23]";"2";"0";"1"
"842";"34";"12";"1";"12";"1";"1";"9";"1";"[5,22]";"1";"0";"1"
"843";"21";"12";"1";"1";"1";"1";"9";"1";"[3,9,13,23]";"2";"0";"1"
"844";"12";"12";"1";"8";"1";"1";"9";"1";"[6,20]";"0";"5";"1"
"845";"27";"13";"1";"13";"1";"1";"9";"2";"[1,3,9,21,23,37]";"0";"7";"1"
"846";"12";"14";"1";"8";"1";"1";"9";"1";"[6,20]";"0";"6";"1"
"847";"2";"14";"1";"35";"1";"1";"9";"2";"[14,26]";"2";"9";"1"
"848";"40";"14";"1";"9";"1";"1";"9";"2";"[1,3,10,13,29,37]";"2";"0";"1"
"849";"2";"15";"1";"35";"1";"1";"9";"2";"[14,26]";"2";"9";"1"
"850";"27";"15";"1";"13";"1";"1";"9";"2";"[1,3,9,21,23,37]";"0";"8";"1"
"851";"40";"15";"1";"9";"1";"1";"9";"2";"[1,3,10,13,29,37]";"2";"0";"1"
"852";"12";"15";"1";"8";"1";"1";"9";"1";"[6,20]";"0";"7";"1"
"853";"30";"15";"1";"24";"1";"1";"9";"1";"[6,15,29,30,31,32,34]";"1";"0";"1"
"854";"30";"16";"1";"24";"1";"1";"9";"1";"[6,15,29,30,31,32,34]";"1";"0";"1"
"855";"12";"16";"1";"8";"1";"1";"9";"1";"[6,20]";"0";"8";"1"
"856";"8";"17";"1";"31";"1";"1";"9";"1";"[15,19,24,30,34]";"1";"0";"1"
"857";"8";"18";"1";"31";"1";"1";"9";"1";"[15,19,24,30,34]";"1";"0";"1"
"858";"12";"19";"1";"8";"1";"1";"9";"1";"[6,20]";"1";"8";"1"
"859";"12";"20";"1";"8";"1";"1";"9";"1";"[6,20]";"1";"8";"1"
"860";"4";"22";"1";"28";"1";"1";"9";"1";"[7,33]";"1";"0";"1"
"861";"4";"23";"1";"28";"1";"1";"9";"1";"[7,33]";"1";"0";"1"
"862";"27";"23";"1";"13";"1";"1";"9";"2";"[1,3,9,21,23,37]";"1";"8";"1"
"863";"27";"24";"1";"13";"1";"1";"9";"2";"[1,3,9,21,23,37]";"1";"8";"1"
"864";"22";"25";"1";"6";"1";"1";"9";"1";"[8,15,24,30,34]";"2";"0";"1"
"865";"22";"26";"1";"6";"1";"1";"9";"1";"[8,15,24,30,34]";"2";"0";"1"
"866";"39";"27";"1";"37";"1";"1";"9";"1";"[9,10,13,29,30]";"2";"0";"1"
"867";"39";"28";"1";"37";"1";"1";"9";"1";"[9,10,13,29,30]";"2";"0";"1"
"868";"38";"2";"1";"29";"1";"1";"10";"2";"[9,10,15,24,32,34,37]";"2";"0";"1"
"869";"26";"2";"1";"34";"1";"1";"10";"2";"[6,15,22,24,29,30,31,32]";"2";"0";"1"
"870";"28";"2";"1";"38";"1";"1";"10";"1";"[2,4,20,36,39,40]";"1";"0";"1"
"871";"35";"2";"1";"14";"1";"1";"10";"2";"[26,35,40]";"2";"0";"1"
"872";"3";"2";"1";"4";"1";"1";"10";"1";"[2,33,38]";"1";"0";"1"
"873";"38";"3";"1";"29";"1";"1";"10";"2";"[9,10,15,24,32,34,37]";"2";"0";"1"
"874";"26";"3";"1";"34";"1";"1";"10";"2";"[6,15,22,24,29,30,31,32]";"2";"0";"1"
"875";"37";"3";"1";"36";"1";"1";"10";"1";"[21,38,39]";"1";"0";"1"
"876";"9";"3";"1";"33";"1";"1";"10";"1";"[4,28]";"1";"0";"1"
"877";"28";"3";"1";"38";"1";"1";"10";"1";"[2,4,20,36,39,40]";"1";"0";"1"
"878";"20";"3";"1";"17";"1";"1";"10";"1";"[19]";"1";"0";"1"
"879";"35";"3";"1";"14";"1";"1";"10";"2";"[26,35,40]";"2";"0";"1"
"880";"15";"3";"1";"16";"1";"1";"10";"1";"[3,11,18,27]";"1";"0";"1"
"881";"36";"3";"1";"3";"1";"1";"10";"1";"[1,9,10,13,16,18]";"1";"0";"1"
"882";"3";"3";"1";"4";"1";"1";"10";"1";"[2,33,38]";"1";"0";"1"
"883";"33";"4";"1";"2";"1";"1";"10";"1";"[4,38]";"1";"0";"1"
"884";"2";"4";"1";"35";"1";"1";"10";"2";"[14,26]";"2";"0";"1"
"885";"37";"4";"1";"36";"1";"1";"10";"1";"[21,38,39]";"1";"0";"1"
"886";"9";"4";"1";"33";"1";"1";"10";"1";"[4,28]";"1";"0";"1"
"887";"16";"4";"1";"20";"1";"1";"10";"1";"[8,27,38]";"1";"0";"1"
"888";"20";"4";"1";"17";"1";"1";"10";"1";"[19]";"1";"0";"1"
"889";"29";"4";"1";"27";"1";"1";"10";"1";"[16,18,20,25]";"1";"0";"1"
"890";"15";"4";"1";"16";"1";"1";"10";"1";"[3,11,18,27]";"1";"0";"1"
"891";"24";"4";"1";"22";"1";"1";"10";"1";"[5,12,32,34]";"1";"0";"1"
"892";"14";"4";"1";"11";"1";"1";"10";"2";"[16,18]";"0";"1";"1"
"893";"36";"4";"1";"3";"1";"1";"10";"1";"[1,9,10,13,16,18]";"1";"0";"1"
"894";"33";"5";"1";"2";"1";"1";"10";"1";"[4,38]";"1";"0";"1"
"895";"2";"5";"1";"35";"1";"1";"10";"2";"[14,26]";"2";"0";"1"
"896";"25";"5";"1";"26";"1";"1";"10";"2";"[14,35]";"2";"0";"1"
"897";"16";"5";"1";"20";"1";"1";"10";"1";"[8,27,38]";"1";"0";"1"
"898";"29";"5";"1";"27";"1";"1";"10";"1";"[16,18,20,25]";"1";"0";"1"
"899";"24";"5";"1";"22";"1";"1";"10";"1";"[5,12,32,34]";"1";"0";"1"
"900";"12";"5";"1";"8";"1";"1";"10";"1";"[6,20]";"0";"1";"1"
"901";"14";"6";"1";"11";"1";"1";"10";"2";"[16,18]";"0";"10";"1"
"902";"25";"6";"1";"26";"1";"1";"10";"2";"[14,35]";"2";"0";"1"
"903";"10";"6";"1";"21";"1";"1";"10";"1";"[13,15,23,36,39]";"1";"0";"1"
"904";"11";"6";"1";"7";"1";"1";"10";"2";"[28,40]";"2";"0";"1"
"905";"4";"6";"1";"28";"1";"1";"10";"1";"[7,33]";"2";"0";"1"
"906";"17";"7";"1";"15";"1";"1";"10";"1";"[6,21,24,29,30,31,32,34]";"1";"0";"1"
"907";"10";"7";"1";"21";"1";"1";"10";"1";"[13,15,23,36,39]";"1";"0";"1"
"908";"11";"7";"1";"7";"1";"1";"10";"2";"[28,40]";"2";"0";"1"
"909";"4";"7";"1";"28";"1";"1";"10";"1";"[7,33]";"2";"0";"1"
"910";"19";"7";"1";"10";"1";"1";"10";"1";"[3,9,29,37]";"2";"0";"1"
"911";"6";"8";"1";"5";"1";"1";"10";"1";"[12,22,32]";"1";"0";"1"
"912";"12";"8";"1";"8";"1";"1";"10";"1";"[6,20]";"0";"2";"1"
"913";"17";"8";"1";"15";"1";"1";"10";"1";"[6,21,24,29,30,31,32,34]";"1";"0";"1"
"914";"5";"8";"1";"23";"1";"1";"10";"2";"[1,13,21]";"2";"0";"1"
"915";"31";"8";"1";"19";"1";"1";"10";"1";"[17,30,31,32]";"1";"0";"1"
"916";"19";"8";"1";"10";"1";"1";"10";"1";"[3,9,29,37]";"2";"0";"1"
"917";"6";"9";"1";"5";"1";"1";"10";"1";"[12,22,32]";"1";"0";"1"
"918";"12";"9";"1";"8";"1";"1";"10";"1";"[6,20]";"0";"3";"1"
"919";"32";"9";"1";"25";"1";"1";"10";"2";"[27]";"1";"0";"1"
"920";"21";"9";"1";"1";"1";"1";"10";"1";"[3,9,13,23]";"2";"0";"1"
"921";"5";"9";"1";"23";"1";"1";"10";"2";"[1,13,21]";"2";"0";"1"
"922";"31";"9";"1";"19";"1";"1";"10";"1";"[17,30,31,32]";"1";"0";"1"
"923";"18";"9";"1";"39";"1";"1";"10";"1";"[21,36,38]";"1";"0";"1"
"924";"30";"9";"1";"24";"1";"1";"10";"1";"[6,15,29,30,31,32,34]";"1";"0";"1"
"925";"14";"10";"1";"11";"1";"1";"10";"2";"[16,18]";"1";"10";"1"
"926";"12";"10";"1";"8";"1";"1";"10";"1";"[6,20]";"0";"4";"1"
"927";"32";"10";"1";"25";"1";"1";"10";"2";"[27]";"1";"0";"1"
"928";"21";"10";"1";"1";"1";"1";"10";"1";"[3,9,13,23]";"2";"0";"1"
"929";"18";"10";"1";"39";"1";"1";"10";"1";"[21,36,38]";"1";"0";"1"
"930";"30";"10";"1";"24";"1";"1";"10";"1";"[6,15,29,30,31,32,34]";"1";"0";"1"
"931";"14";"11";"1";"11";"1";"1";"10";"2";"[16,18]";"1";"10";"1"
"932";"23";"11";"1";"18";"1";"1";"10";"1";"[3,11,16,27]";"1";"0";"1"
"933";"12";"11";"1";"8";"1";"1";"10";"1";"[6,20]";"0";"5";"1"
"934";"40";"12";"1";"9";"1";"1";"10";"2";"[1,3,10,13,29,37]";"2";"0";"1"
"935";"23";"12";"1";"18";"1";"1";"10";"1";"[3,11,16,27]";"1";"0";"1"
"936";"8";"12";"1";"31";"1";"1";"10";"1";"[15,19,24,30,34]";"1";"0";"1"
"937";"12";"12";"1";"8";"1";"1";"10";"1";"[6,20]";"0";"6";"1"
"938";"40";"13";"1";"9";"1";"1";"10";"2";"[1,3,10,13,29,37]";"2";"0";"1"
"939";"13";"13";"1";"32";"1";"1";"10";"2";"[5,15,19,22,24,29,34]";"2";"0";"1"
"940";"8";"13";"1";"31";"1";"1";"10";"1";"[15,19,24,30,34]";"1";"0";"1"
"941";"7";"13";"1";"40";"1";"1";"10";"1";"[7,14,38]";"2";"0";"1"
"942";"12";"14";"1";"8";"1";"1";"10";"1";"[6,20]";"0";"7";"1"
"943";"13";"14";"1";"32";"1";"1";"10";"2";"[5,15,19,22,24,29,34]";"2";"0";"1"
"944";"22";"14";"1";"6";"1";"1";"10";"1";"[8,15,24,30,34]";"1";"0";"1"
"945";"7";"14";"1";"40";"1";"1";"10";"1";"[7,14,38]";"2";"0";"1"
"946";"12";"15";"1";"8";"1";"1";"10";"1";"[6,20]";"0";"8";"1"
"947";"22";"15";"1";"6";"1";"1";"10";"1";"[8,15,24,30,34]";"1";"0";"1"
"948";"27";"15";"1";"13";"1";"1";"10";"2";"[1,3,9,21,23,37]";"2";"0";"1"
"949";"27";"16";"1";"13";"1";"1";"10";"2";"[1,3,9,21,23,37]";"2";"0";"1"
"950";"12";"16";"1";"8";"1";"1";"10";"1";"[6,20]";"0";"9";"1"
"951";"1";"17";"1";"30";"1";"1";"10";"1";"[6,15,19,24,31,34,37]";"1";"0";"1"
"952";"1";"18";"1";"30";"1";"1";"10";"1";"[6,15,19,24,31,34,37]";"1";"0";"1"
"953";"34";"19";"1";"12";"1";"1";"10";"1";"[5,22]";"2";"0";"1"
"954";"12";"20";"1";"8";"1";"1";"10";"1";"[6,20]";"2";"9";"1"
"955";"34";"20";"1";"12";"1";"1";"10";"1";"[5,22]";"2";"0";"1"
"956";"12";"21";"1";"8";"1";"1";"10";"1";"[6,20]";"2";"9";"1"
"957";"39";"26";"1";"37";"1";"1";"10";"1";"[9,10,13,29,30]";"2";"0";"1"
"958";"39";"27";"1";"37";"1";"1";"10";"1";"[9,10,13,29,30]";"2";"0";"1"
"959";"26";"1";"1";"34";"1";"1";"11";"2";"[6,15,22,24,29,30,31,32]";"1";"0";"1"
"960";"38";"2";"1";"29";"1";"1";"11";"2";"[9,10,15,24,32,34,37]";"1";"0";"1"
"961";"26";"2";"1";"34";"1";"1";"11";"2";"[6,15,22,24,29,30,31,32]";"1";"0";"1"
"962";"35";"2";"1";"14";"1";"1";"11";"2";"[26,35,40]";"2";"0";"1"
"963";"28";"2";"1";"38";"1";"1";"11";"1";"[2,4,20,36,39,40]";"1";"0";"1"
"964";"3";"2";"1";"4";"1";"1";"11";"1";"[2,33,38]";"1";"0";"1"
"965";"33";"2";"1";"2";"1";"1";"11";"1";"[4,38]";"1";"0";"1"
"966";"20";"2";"1";"17";"1";"1";"11";"1";"[19]";"1";"0";"1"
"967";"36";"2";"1";"3";"1";"1";"11";"1";"[1,9,10,13,16,18]";"1";"0";"1"
"968";"11";"3";"1";"7";"1";"1";"11";"2";"[28,40]";"2";"0";"1"
"969";"38";"3";"1";"29";"1";"1";"11";"2";"[9,10,15,24,32,34,37]";"1";"0";"1"
"970";"25";"3";"1";"26";"1";"1";"11";"2";"[14,35]";"1";"0";"1"
"971";"5";"3";"1";"23";"1";"1";"11";"2";"[1,13,21]";"2";"0";"1"
"972";"21";"3";"1";"1";"1";"1";"11";"1";"[3,9,13,23]";"2";"0";"1"
"973";"28";"3";"1";"38";"1";"1";"11";"1";"[2,4,20,36,39,40]";"1";"0";"1"
"974";"35";"3";"1";"14";"1";"1";"11";"2";"[26,35,40]";"2";"0";"1"
"975";"3";"3";"1";"4";"1";"1";"11";"1";"[2,33,38]";"1";"0";"1"
"976";"29";"3";"1";"27";"1";"1";"11";"1";"[16,18,20,25]";"1";"0";"1"
"977";"33";"3";"1";"2";"1";"1";"11";"1";"[4,38]";"1";"0";"1"
"978";"20";"3";"1";"17";"1";"1";"11";"1";"[19]";"1";"0";"1"
"979";"36";"4";"1";"3";"1";"1";"11";"1";"[1,9,10,13,16,18]";"1";"0";"1"
"980";"11";"4";"1";"7";"1";"1";"11";"2";"[28,40]";"2";"0";"1"
"981";"25";"4";"1";"26";"1";"1";"11";"2";"[14,35]";"1";"0";"1"
"982";"5";"4";"1";"23";"1";"1";"11";"2";"[1,13,21]";"2";"0";"1"
"983";"21";"4";"1";"1";"1";"1";"11";"1";"[3,9,13,23]";"2";"0";"1"
"984";"13";"4";"1";"32";"1";"1";"11";"2";"[5,15,19,22,24,29,34]";"1";"0";"1"
"985";"29";"4";"1";"27";"1";"1";"11";"1";"[16,18,20,25]";"1";"0";"1"
"986";"2";"4";"1";"35";"1";"1";"11";"2";"[14,26]";"2";"0";"1"
"987";"23";"4";"1";"18";"1";"1";"11";"1";"[3,11,16,27]";"1";"0";"1"
"988";"9";"4";"1";"33";"1";"1";"11";"1";"[4,28]";"1";"0";"1"
"989";"18";"5";"1";"39";"1";"1";"11";"1";"[21,36,38]";"1";"0";"1"
"990";"13";"5";"1";"32";"1";"1";"11";"2";"[5,15,19,22,24,29,34]";"1";"0";"1"
"991";"15";"5";"1";"16";"1";"1";"11";"1";"[3,11,18,27]";"1";"0";"1"
"992";"32";"5";"1";"25";"1";"1";"11";"2";"[27]";"1";"0";"1"
"993";"2";"5";"1";"35";"1";"1";"11";"2";"[14,26]";"2";"0";"1"
"994";"23";"5";"1";"18";"1";"1";"11";"1";"[3,11,16,27]";"1";"0";"1"
"995";"9";"5";"1";"33";"1";"1";"11";"1";"[4,28]";"1";"0";"1"
"996";"39";"6";"1";"37";"1";"1";"11";"1";"[9,10,13,29,30]";"1";"0";"1"
"997";"4";"6";"1";"28";"1";"1";"11";"1";"[7,33]";"1";"0";"1"
"998";"18";"6";"1";"39";"1";"1";"11";"1";"[21,36,38]";"1";"0";"1"
"999";"12";"6";"1";"8";"1";"1";"11";"1";"[6,20]";"1";"0";"1"
"1000";"15";"6";"1";"16";"1";"1";"11";"1";"[3,11,18,27]";"1";"0";"1"
"1001";"32";"6";"1";"25";"1";"1";"11";"2";"[27]";"1";"0";"1"
"1002";"6";"6";"1";"5";"1";"1";"11";"1";"[12,22,32]";"1";"0";"1"
"1003";"24";"6";"1";"22";"1";"1";"11";"1";"[5,12,32,34]";"1";"0";"1"
"1004";"39";"7";"1";"37";"1";"1";"11";"1";"[9,10,13,29,30]";"1";"0";"1"
"1005";"4";"7";"1";"28";"1";"1";"11";"1";"[7,33]";"1";"0";"1"
"1006";"12";"7";"1";"8";"1";"1";"11";"1";"[6,20]";"1";"0";"1"
"1007";"17";"7";"1";"15";"1";"1";"11";"1";"[6,21,24,29,30,31,32,34]";"1";"0";"1"
"1008";"19";"7";"1";"10";"1";"1";"11";"1";"[3,9,29,37]";"0";"8";"1"
"1009";"27";"7";"1";"13";"1";"1";"11";"2";"[1,3,9,21,23,37]";"2";"0";"1"
"1010";"6";"7";"1";"5";"1";"1";"11";"1";"[12,22,32]";"1";"0";"1"
"1011";"24";"7";"1";"22";"1";"1";"11";"1";"[5,12,32,34]";"1";"0";"1"
"1012";"17";"8";"1";"15";"1";"1";"11";"1";"[6,21,24,29,30,31,32,34]";"1";"0";"1"
"1013";"27";"8";"1";"13";"1";"1";"11";"2";"[1,3,9,21,23,37]";"2";"0";"1"
"1014";"19";"9";"1";"10";"1";"1";"11";"1";"[3,9,29,37]";"0";"10";"1"
"1015";"16";"10";"1";"20";"1";"1";"11";"1";"[8,27,38]";"1";"0";"1"
"1016";"31";"10";"1";"19";"1";"1";"11";"1";"[17,30,31,32]";"1";"0";"1"
"1017";"30";"11";"1";"24";"1";"1";"11";"1";"[6,15,29,30,31,32,34]";"1";"0";"1"
"1018";"16";"11";"1";"20";"1";"1";"11";"1";"[8,27,38]";"1";"0";"1"
"1019";"31";"11";"1";"19";"1";"1";"11";"1";"[17,30,31,32]";"1";"0";"1"
"1020";"30";"12";"1";"24";"1";"1";"11";"1";"[6,15,29,30,31,32,34]";"1";"0";"1"
"1021";"19";"12";"1";"10";"1";"1";"11";"1";"[3,9,29,37]";"2";"10";"1"
"1022";"14";"12";"1";"11";"1";"1";"11";"2";"[16,18]";"1";"0";"1"
"1023";"40";"12";"1";"9";"1";"1";"11";"2";"[1,3,10,13,29,37]";"2";"0";"1"
"1024";"19";"13";"1";"10";"1";"1";"11";"1";"[3,9,29,37]";"2";"10";"1"
"1025";"14";"13";"1";"11";"1";"1";"11";"2";"[16,18]";"1";"0";"1"
"1026";"40";"13";"1";"9";"1";"1";"11";"2";"[1,3,10,13,29,37]";"2";"0";"1"
"1027";"34";"13";"1";"12";"1";"1";"11";"1";"[5,22]";"2";"0";"1"
"1028";"34";"14";"1";"12";"1";"1";"11";"1";"[5,22]";"2";"0";"1"
"1029";"22";"14";"1";"6";"1";"1";"11";"1";"[8,15,24,30,34]";"1";"0";"1"
"1030";"37";"15";"1";"36";"1";"1";"11";"1";"[21,38,39]";"1";"0";"1"
"1031";"22";"15";"1";"6";"1";"1";"11";"1";"[8,15,24,30,34]";"1";"0";"1"
"1032";"37";"16";"1";"36";"1";"1";"11";"1";"[21,38,39]";"1";"0";"1"
"1033";"8";"17";"1";"31";"1";"1";"11";"1";"[15,19,24,30,34]";"1";"0";"1"
"1034";"7";"17";"1";"40";"1";"1";"11";"1";"[7,14,38]";"2";"0";"1"
"1035";"8";"18";"1";"31";"1";"1";"11";"1";"[15,19,24,30,34]";"1";"0";"1"
"1036";"7";"18";"1";"40";"1";"1";"11";"1";"[7,14,38]";"2";"0";"1"
"1037";"1";"21";"1";"30";"1";"1";"11";"1";"[6,15,19,24,31,34,37]";"1";"0";"1"
"1038";"1";"22";"1";"30";"1";"1";"11";"1";"[6,15,19,24,31,34,37]";"1";"0";"1"
"1039";"10";"22";"1";"21";"1";"1";"11";"1";"[13,15,23,36,39]";"1";"0";"1"
"1040";"36";"22";"1";"3";"1";"1";"11";"1";"[1,9,10,13,16,18]";"1";"1";"1"
"1041";"10";"23";"1";"21";"1";"1";"11";"1";"[13,15,23,36,39]";"1";"0";"1"
"1042";"26";"1";"1";"34";"1";"1";"12";"2";"[6,15,22,24,29,30,31,32]";"2";"0";"1"
"1043";"26";"2";"1";"34";"1";"1";"12";"2";"[6,15,22,24,29,30,31,32]";"2";"0";"1"
"1044";"25";"2";"1";"26";"1";"1";"12";"2";"[14,35]";"2";"0";"1"
"1045";"9";"2";"1";"33";"1";"1";"12";"1";"[4,28]";"1";"0";"1"
"1046";"34";"2";"1";"12";"1";"1";"12";"1";"[5,22]";"1";"0";"1"
"1047";"3";"2";"1";"4";"1";"1";"12";"1";"[2,33,38]";"1";"0";"1"
"1048";"25";"3";"1";"26";"1";"1";"12";"2";"[14,35]";"2";"0";"1"
"1049";"18";"3";"1";"39";"1";"1";"12";"1";"[21,36,38]";"1";"0";"1"
"1050";"29";"3";"1";"27";"1";"1";"12";"1";"[16,18,20,25]";"1";"0";"1"
"1051";"8";"3";"1";"31";"1";"1";"12";"1";"[15,19,24,30,34]";"1";"0";"1"
"1052";"9";"3";"1";"33";"1";"1";"12";"1";"[4,28]";"1";"0";"1"
"1053";"34";"3";"1";"12";"1";"1";"12";"1";"[5,22]";"1";"0";"1"
"1054";"6";"3";"1";"5";"1";"1";"12";"1";"[12,22,32]";"1";"0";"1"
"1055";"32";"3";"1";"25";"1";"1";"12";"2";"[27]";"1";"0";"1"
"1056";"21";"3";"1";"1";"1";"1";"12";"1";"[3,9,13,23]";"2";"0";"1"
"1057";"33";"3";"1";"2";"1";"1";"12";"1";"[4,38]";"1";"0";"1"
"1058";"3";"3";"1";"4";"1";"1";"12";"1";"[2,33,38]";"1";"0";"1"
"1059";"11";"3";"1";"7";"1";"1";"12";"2";"[28,40]";"2";"0";"1"
"1060";"14";"4";"1";"11";"1";"1";"12";"2";"[16,18]";"1";"0";"1"
"1061";"18";"4";"1";"39";"1";"1";"12";"1";"[21,36,38]";"1";"0";"1"
"1062";"28";"4";"1";"38";"1";"1";"12";"1";"[2,4,20,36,39,40]";"1";"0";"1"
"1063";"29";"4";"1";"27";"1";"1";"12";"1";"[16,18,20,25]";"1";"0";"1"
"1064";"8";"4";"1";"31";"1";"1";"12";"1";"[15,19,24,30,34]";"1";"0";"1"
"1065";"37";"4";"1";"36";"1";"1";"12";"1";"[21,38,39]";"1";"0";"1"
"1066";"23";"4";"1";"18";"1";"1";"12";"1";"[3,11,16,27]";"1";"0";"1"
"1067";"17";"4";"1";"15";"1";"1";"12";"1";"[6,21,24,29,30,31,32,34]";"1";"0";"1"
"1068";"35";"4";"1";"14";"1";"1";"12";"2";"[26,35,40]";"2";"0";"1"
"1069";"36";"4";"1";"3";"1";"1";"12";"1";"[1,9,10,13,16,18]";"1";"0";"1"
"1070";"6";"4";"1";"5";"1";"1";"12";"1";"[12,22,32]";"1";"0";"1"
"1071";"32";"4";"1";"25";"1";"1";"12";"2";"[27]";"1";"0";"1"
"1072";"21";"4";"1";"1";"1";"1";"12";"1";"[3,9,13,23]";"2";"0";"1"
"1073";"22";"4";"1";"6";"1";"1";"12";"1";"[8,15,24,30,34]";"2";"0";"1"
"1074";"33";"4";"1";"2";"1";"1";"12";"1";"[4,38]";"1";"0";"1"
"1075";"38";"4";"1";"29";"1";"1";"12";"2";"[9,10,15,24,32,34,37]";"2";"0";"1"
"1076";"11";"4";"1";"7";"1";"1";"12";"2";"[28,40]";"2";"0";"1"
"1077";"20";"5";"1";"17";"1";"1";"12";"1";"[19]";"1";"0";"1"
"1078";"24";"5";"1";"22";"1";"1";"12";"1";"[5,12,32,34]";"1";"0";"1"
"1079";"14";"5";"1";"11";"1";"1";"12";"2";"[16,18]";"1";"0";"1"
"1080";"2";"5";"1";"35";"1";"1";"12";"2";"[14,26]";"2";"0";"1"
"1081";"28";"5";"1";"38";"1";"1";"12";"1";"[2,4,20,36,39,40]";"1";"0";"1"
"1082";"31";"5";"1";"19";"1";"1";"12";"1";"[17,30,31,32]";"1";"0";"1"
"1083";"27";"5";"1";"13";"1";"1";"12";"2";"[1,3,9,21,23,37]";"2";"0";"1"
"1084";"37";"5";"1";"36";"1";"1";"12";"1";"[21,38,39]";"1";"0";"1"
"1085";"23";"5";"1";"18";"1";"1";"12";"1";"[3,11,16,27]";"1";"0";"1"
"1086";"36";"5";"1";"3";"1";"1";"12";"1";"[1,9,10,13,16,18]";"1";"12";"1"
"1087";"17";"5";"1";"15";"1";"1";"12";"1";"[6,21,24,29,30,31,32,34]";"1";"0";"1"
"1088";"35";"5";"1";"14";"1";"1";"12";"2";"[26,35,40]";"2";"0";"1"
"1089";"36";"5";"1";"3";"1";"1";"12";"1";"[1,9,10,13,16,18]";"1";"12";"1"
"1090";"13";"5";"1";"32";"1";"1";"12";"2";"[5,15,19,22,24,29,34]";"1";"0";"1"
"1091";"16";"5";"1";"20";"1";"1";"12";"1";"[8,27,38]";"1";"0";"1"
"1092";"22";"5";"1";"6";"1";"1";"12";"1";"[8,15,24,30,34]";"2";"0";"1"
"1093";"19";"5";"1";"10";"1";"1";"12";"1";"[3,9,29,37]";"2";"0";"1"
"1094";"38";"5";"1";"29";"1";"1";"12";"2";"[9,10,15,24,32,34,37]";"2";"0";"1"
"1095";"30";"5";"1";"24";"1";"1";"12";"1";"[6,15,29,30,31,32,34]";"1";"0";"1"
"1096";"20";"6";"1";"17";"1";"1";"12";"1";"[19]";"1";"0";"1"
"1097";"24";"6";"1";"22";"1";"1";"12";"1";"[5,12,32,34]";"1";"0";"1"
"1098";"2";"6";"1";"35";"1";"1";"12";"2";"[14,26]";"2";"0";"1"
"1099";"15";"6";"1";"16";"1";"1";"12";"1";"[3,11,18,27]";"1";"0";"1"
"1100";"31";"6";"1";"19";"1";"1";"12";"1";"[17,30,31,32]";"1";"0";"1"
"1101";"27";"6";"1";"13";"1";"1";"12";"2";"[1,3,9,21,23,37]";"2";"0";"1"
"1102";"10";"6";"1";"21";"1";"1";"12";"1";"[13,15,23,36,39]";"1";"0";"1"
"1103";"13";"6";"1";"32";"1";"1";"12";"2";"[5,15,19,22,24,29,34]";"1";"0";"1"
"1104";"16";"6";"1";"20";"1";"1";"12";"1";"[8,27,38]";"1";"0";"1"
"1105";"19";"6";"1";"10";"1";"1";"12";"1";"[3,9,29,37]";"2";"0";"1"
"1106";"30";"6";"1";"24";"1";"1";"12";"1";"[6,15,29,30,31,32,34]";"1";"0";"1"
"1107";"5";"7";"1";"23";"1";"1";"12";"2";"[1,13,21]";"2";"0";"1"
"1108";"15";"7";"1";"16";"1";"1";"12";"1";"[3,11,18,27]";"1";"0";"1"
"1109";"10";"7";"1";"21";"1";"1";"12";"1";"[13,15,23,36,39]";"1";"0";"1"
"1110";"5";"8";"1";"23";"1";"1";"12";"2";"[1,13,21]";"2";"0";"1"
"1111";"40";"8";"1";"9";"1";"1";"12";"2";"[1,3,10,13,29,37]";"2";"0";"1"
"1112";"40";"9";"1";"9";"1";"1";"12";"2";"[1,3,10,13,29,37]";"2";"0";"1"
"1113";"4";"12";"1";"28";"1";"1";"12";"1";"[7,33]";"1";"0";"1"
"1114";"12";"12";"1";"8";"1";"1";"12";"1";"[6,20]";"1";"0";"1"
"1115";"4";"13";"1";"28";"1";"1";"12";"1";"[7,33]";"1";"0";"1"
"1116";"12";"13";"1";"8";"1";"1";"12";"1";"[6,20]";"1";"0";"1"
"1117";"7";"13";"1";"40";"1";"1";"12";"1";"[7,14,38]";"2";"0";"1"
"1118";"28";"14";"1";"38";"1";"1";"12";"1";"[2,4,20,36,39,40]";"1";"8";"1"
"1119";"7";"14";"1";"40";"1";"1";"12";"1";"[7,14,38]";"2";"0";"1"
"1120";"1";"15";"1";"30";"1";"1";"12";"1";"[6,15,19,24,31,34,37]";"1";"0";"1"
"1121";"28";"15";"1";"38";"1";"1";"12";"1";"[2,4,20,36,39,40]";"1";"6";"1"
"1122";"1";"16";"1";"30";"1";"1";"12";"1";"[6,15,19,24,31,34,37]";"1";"0";"1"
"1123";"28";"17";"1";"38";"1";"1";"12";"1";"[2,4,20,36,39,40]";"1";"4";"1"
"1124";"28";"18";"1";"38";"1";"1";"12";"1";"[2,4,20,36,39,40]";"1";"12";"1"
"1125";"28";"20";"1";"38";"1";"1";"12";"1";"[2,4,20,36,39,40]";"1";"1";"1"
"1126";"39";"24";"1";"37";"1";"1";"12";"1";"[9,10,13,29,30]";"1";"0";"1"
"1127";"39";"25";"1";"37";"1";"1";"12";"1";"[9,10,13,29,30]";"1";"0";"1"
"1128";"33";"0";"1";"27";"1";"2";"12";"2";"[16,18,20,25]";"1";"0";"1"
"1129";"29";"0";"1";"9";"1";"2";"12";"2";"[1,3,10,13,29,37]";"2";"0";"1"
"1130";"28";"0";"1";"3";"1";"2";"12";"2";"[1,9,10,13,16,18]";"1";"12";"1"
"1131";"13";"0";"1";"18";"1";"2";"12";"2";"[3,11,16,27]";"1";"0";"1"
"1132";"22";"0";"1";"7";"1";"2";"12";"2";"[28,40]";"2";"0";"1"
"1133";"31";"0";"1";"2";"1";"2";"12";"2";"[4,38]";"1";"0";"1"
"1134";"6";"0";"1";"1";"1";"2";"12";"2";"[3,9,13,23]";"2";"0";"1"
"1135";"17";"0";"1";"35";"1";"2";"12";"2";"[14,26]";"2";"0";"1"
"1136";"7";"0";"1";"29";"1";"2";"12";"1";"[9,10,15,24,32,34,37]";"2";"0";"1"
"1137";"25";"0";"1";"4";"1";"2";"12";"2";"[2,33,38]";"1";"0";"1"
"1138";"26";"0";"1";"40";"1";"2";"12";"1";"[7,14,38]";"2";"0";"1"
"1139";"21";"0";"1";"11";"1";"2";"12";"1";"[16,18]";"1";"0";"1"
"1140";"40";"0";"1";"17";"1";"2";"12";"2";"[19]";"1";"0";"1"
"1141";"32";"0";"1";"31";"1";"2";"12";"2";"[15,19,24,30,34]";"1";"0";"1"
"1142";"9";"0";"1";"28";"1";"2";"12";"1";"[7,33]";"1";"0";"1"
"1143";"1";"0";"1";"23";"1";"2";"12";"1";"[1,13,21]";"2";"0";"1"
"1144";"37";"0";"1";"34";"1";"2";"12";"1";"[6,15,22,24,29,30,31,32]";"2";"0";"1"
"1145";"15";"0";"1";"24";"1";"2";"12";"2";"[6,15,29,30,31,32,34]";"1";"0";"1"
"1146";"27";"0";"1";"15";"1";"2";"12";"1";"[6,21,24,29,30,31,32,34]";"1";"0";"1"
"1147";"20";"0";"1";"21";"1";"2";"12";"2";"[13,15,23,36,39]";"1";"0";"1"
"1148";"3";"0";"1";"33";"1";"2";"12";"1";"[4,28]";"1";"0";"1"
"1149";"2";"0";"1";"22";"1";"2";"12";"1";"[5,12,32,34]";"1";"0";"1"
"1150";"24";"0";"1";"20";"1";"2";"12";"2";"[8,27,38]";"1";"0";"1"
"1151";"35";"0";"1";"5";"1";"2";"12";"2";"[12,22,32]";"1";"0";"1"
"1152";"34";"0";"1";"19";"1";"2";"12";"2";"[17,30,31,32]";"1";"0";"1"
"1153";"11";"0";"1";"13";"1";"2";"12";"2";"[1,3,9,21,23,37]";"2";"0";"1"
"1154";"14";"0";"1";"36";"1";"2";"12";"2";"[21,38,39]";"1";"0";"1"
"1155";"23";"0";"1";"39";"1";"2";"12";"1";"[21,36,38]";"1";"0";"1"
"1156";"19";"0";"1";"12";"1";"2";"12";"2";"[5,22]";"1";"0";"1"
"1157";"5";"0";"1";"38";"1";"2";"12";"1";"[2,4,20,36,39,40]";"1";"1";"1"
"1158";"30";"0";"1";"14";"1";"2";"12";"2";"[26,35,40]";"2";"0";"1"
"1159";"36";"0";"1";"37";"1";"2";"12";"2";"[9,10,13,29,30]";"1";"0";"1"
"1160";"8";"0";"1";"10";"1";"2";"12";"2";"[3,9,29,37]";"2";"0";"1"
"1161";"12";"0";"1";"6";"1";"2";"12";"2";"[8,15,24,30,34]";"2";"0";"1"
"1162";"38";"0";"1";"25";"1";"2";"12";"2";"[27]";"1";"0";"1"
"1163";"10";"0";"1";"16";"1";"2";"12";"2";"[3,11,18,27]";"1";"0";"1"
"1164";"16";"0";"1";"8";"1";"2";"12";"1";"[6,20]";"1";"0";"1"
"1165";"4";"0";"1";"32";"1";"2";"12";"2";"[5,15,19,22,24,29,34]";"1";"0";"1"
"1166";"39";"0";"1";"26";"1";"2";"12";"1";"[14,35]";"2";"0";"1"
"1167";"18";"0";"1";"30";"1";"2";"12";"2";"[6,15,19,24,31,34,37]";"1";"0";"1"
"1168";"13";"2";"1";"18";"1";"2";"1";"2";"[3,11,16,27]";"2";"0";"1"
"1169";"35";"2";"1";"5";"1";"2";"1";"2";"[12,22,32]";"2";"0";"1"
"1170";"10";"2";"1";"16";"1";"2";"1";"2";"[3,11,18,27]";"2";"0";"1"
"1171";"24";"3";"1";"20";"1";"2";"1";"2";"[8,27,38]";"1";"0";"1"
"1172";"28";"3";"1";"3";"1";"2";"1";"2";"[1,9,10,13,16,18]";"2";"0";"1"
"1173";"2";"3";"1";"22";"1";"2";"1";"1";"[5,12,32,34]";"1";"0";"1"
"1174";"30";"3";"1";"14";"1";"2";"1";"2";"[26,35,40]";"2";"0";"1"
"1175";"13";"3";"1";"18";"1";"2";"1";"2";"[3,11,16,27]";"2";"0";"1"
"1176";"35";"3";"1";"5";"1";"2";"1";"2";"[12,22,32]";"2";"0";"1"
"1177";"9";"3";"1";"28";"1";"2";"1";"1";"[7,33]";"1";"0";"1"
"1178";"10";"3";"1";"16";"1";"2";"1";"2";"[3,11,18,27]";"2";"0";"1"
"1179";"17";"3";"1";"35";"1";"2";"1";"2";"[14,26]";"2";"0";"1"
"1180";"34";"4";"1";"19";"1";"2";"1";"2";"[17,30,31,32]";"2";"0";"1"
"1181";"21";"4";"1";"11";"1";"2";"1";"1";"[16,18]";"2";"0";"1"
"1182";"38";"4";"1";"25";"1";"2";"1";"2";"[27]";"1";"0";"1"
"1183";"24";"4";"1";"20";"1";"2";"1";"2";"[8,27,38]";"1";"0";"1"
"1184";"28";"4";"1";"3";"1";"2";"1";"2";"[1,9,10,13,16,18]";"2";"0";"1"
"1185";"2";"4";"1";"22";"1";"2";"1";"1";"[5,12,32,34]";"1";"0";"1"
"1186";"30";"4";"1";"14";"1";"2";"1";"2";"[26,35,40]";"2";"0";"1"
"1187";"29";"4";"1";"9";"1";"2";"1";"2";"[1,3,10,13,29,37]";"2";"0";"1"
"1188";"20";"4";"1";"21";"1";"2";"1";"2";"[13,15,23,36,39]";"2";"0";"1"
"1189";"9";"4";"1";"28";"1";"2";"1";"1";"[7,33]";"1";"0";"1"
"1190";"36";"4";"1";"37";"1";"2";"1";"2";"[9,10,13,29,30]";"2";"0";"1"
"1191";"14";"4";"1";"36";"1";"2";"1";"2";"[21,38,39]";"2";"0";"1"
"1192";"33";"4";"1";"27";"1";"2";"1";"2";"[16,18,20,25]";"2";"0";"1"
"1193";"17";"4";"1";"35";"1";"2";"1";"2";"[14,26]";"2";"0";"1"
"1194";"32";"5";"1";"31";"1";"2";"1";"2";"[15,19,24,30,34]";"2";"0";"1"
"1195";"34";"5";"1";"19";"1";"2";"1";"2";"[17,30,31,32]";"2";"0";"1"
"1196";"18";"5";"1";"30";"1";"2";"1";"2";"[6,15,19,24,31,34,37]";"1";"0";"1"
"1197";"21";"5";"1";"11";"1";"2";"1";"1";"[16,18]";"2";"0";"1"
"1198";"37";"5";"1";"34";"1";"2";"1";"1";"[6,15,22,24,29,30,31,32]";"1";"0";"1"
"1199";"38";"5";"1";"25";"1";"2";"1";"2";"[27]";"1";"0";"1"
"1200";"11";"5";"1";"13";"1";"2";"1";"2";"[1,3,9,21,23,37]";"2";"0";"1"
"1201";"27";"5";"1";"15";"1";"2";"1";"1";"[6,21,24,29,30,31,32,34]";"1";"0";"1"
"1202";"29";"5";"1";"9";"1";"2";"1";"2";"[1,3,10,13,29,37]";"2";"0";"1"
"1203";"20";"5";"1";"21";"1";"2";"1";"2";"[13,15,23,36,39]";"2";"0";"1"
"1204";"36";"5";"1";"37";"1";"2";"1";"2";"[9,10,13,29,30]";"2";"0";"1"
"1205";"4";"5";"1";"32";"1";"2";"1";"2";"[5,15,19,22,24,29,34]";"2";"0";"1"
"1206";"14";"5";"1";"36";"1";"2";"1";"2";"[21,38,39]";"2";"0";"1"
"1207";"33";"5";"1";"27";"1";"2";"1";"2";"[16,18,20,25]";"2";"0";"1"
"1208";"31";"5";"1";"2";"1";"2";"1";"2";"[4,38]";"2";"0";"1"
"1209";"23";"6";"1";"39";"1";"2";"1";"1";"[21,36,38]";"1";"0";"1"
"1210";"32";"6";"1";"31";"1";"2";"1";"2";"[15,19,24,30,34]";"2";"0";"1"
"1211";"40";"6";"1";"17";"1";"2";"1";"2";"[19]";"2";"0";"1"
"1212";"15";"6";"1";"24";"1";"2";"1";"2";"[6,15,29,30,31,32,34]";"2";"0";"1"
"1213";"6";"6";"1";"1";"1";"2";"1";"2";"[3,9,13,23]";"2";"0";"1"
"1214";"16";"6";"1";"8";"1";"2";"1";"1";"[6,20]";"1";"0";"1"
"1215";"8";"6";"1";"10";"1";"2";"1";"2";"[3,9,29,37]";"2";"0";"1"
"1216";"18";"6";"1";"30";"1";"2";"1";"2";"[6,15,19,24,31,34,37]";"1";"0";"1"
"1217";"37";"6";"1";"34";"1";"2";"1";"1";"[6,15,22,24,29,30,31,32]";"1";"0";"1"
"1218";"11";"6";"1";"13";"1";"2";"1";"2";"[1,3,9,21,23,37]";"2";"0";"1"
"1219";"27";"6";"1";"15";"1";"2";"1";"1";"[6,21,24,29,30,31,32,34]";"1";"0";"1"
"1220";"25";"6";"1";"4";"1";"2";"1";"2";"[2,33,38]";"2";"0";"1"
"1221";"4";"6";"1";"32";"1";"2";"1";"2";"[5,15,19,22,24,29,34]";"2";"0";"1"
"1222";"31";"6";"1";"2";"1";"2";"1";"2";"[4,38]";"2";"0";"1"
"1223";"23";"7";"1";"39";"1";"2";"1";"1";"[21,36,38]";"1";"0";"1"
"1224";"40";"7";"1";"17";"1";"2";"1";"2";"[19]";"2";"0";"1"
"1225";"15";"7";"1";"24";"1";"2";"1";"2";"[6,15,29,30,31,32,34]";"2";"0";"1"
"1226";"6";"7";"1";"1";"1";"2";"1";"2";"[3,9,13,23]";"2";"0";"1"
"1227";"16";"7";"1";"8";"1";"2";"1";"1";"[6,20]";"1";"0";"1"
"1228";"8";"7";"1";"10";"1";"2";"1";"2";"[3,9,29,37]";"2";"0";"1"
"1229";"26";"7";"1";"40";"1";"2";"1";"1";"[7,14,38]";"2";"0";"1"
"1230";"7";"7";"1";"29";"1";"2";"1";"1";"[9,10,15,24,32,34,37]";"1";"0";"1"
"1231";"25";"7";"1";"4";"1";"2";"1";"2";"[2,33,38]";"2";"0";"1"
"1232";"26";"8";"1";"40";"1";"2";"1";"1";"[7,14,38]";"2";"0";"1"
"1233";"7";"8";"1";"29";"1";"2";"1";"1";"[9,10,15,24,32,34,37]";"1";"0";"1"
"1234";"3";"8";"1";"33";"1";"2";"1";"1";"[4,28]";"1";"0";"1"
"1235";"22";"9";"1";"7";"1";"2";"1";"2";"[28,40]";"1";"0";"1"
"1236";"3";"9";"1";"33";"1";"2";"1";"1";"[4,28]";"1";"0";"1"
"1237";"12";"9";"1";"6";"1";"2";"1";"2";"[8,15,24,30,34]";"2";"0";"1"
"1238";"5";"10";"1";"38";"1";"2";"1";"1";"[2,4,20,36,39,40]";"1";"0";"1"
"1239";"22";"10";"1";"7";"1";"2";"1";"2";"[28,40]";"1";"0";"1"
"1240";"12";"10";"1";"6";"1";"2";"1";"2";"[8,15,24,30,34]";"2";"0";"1"
"1241";"5";"11";"1";"38";"1";"2";"1";"1";"[2,4,20,36,39,40]";"1";"0";"1"
"1242";"1";"11";"1";"23";"1";"2";"1";"1";"[1,13,21]";"1";"0";"1"
"1243";"1";"12";"1";"23";"1";"2";"1";"1";"[1,13,21]";"1";"0";"1"
"1244";"19";"13";"1";"12";"1";"2";"1";"2";"[5,22]";"2";"0";"1"
"1245";"19";"14";"1";"12";"1";"2";"1";"2";"[5,22]";"2";"0";"1"
"1246";"39";"23";"1";"26";"1";"2";"1";"1";"[14,35]";"1";"0";"1"
"1247";"39";"25";"1";"26";"1";"2";"1";"1";"[14,35]";"1";"0";"1"
"1248";"24";"1";"1";"20";"1";"2";"2";"2";"[8,27,38]";"2";"0";"1"
"1249";"26";"1";"1";"40";"1";"2";"2";"1";"[7,14,38]";"1";"0";"1"
"1250";"29";"1";"1";"9";"1";"2";"2";"2";"[1,3,10,13,29,37]";"2";"0";"1"
"1251";"24";"2";"1";"20";"1";"2";"2";"2";"[8,27,38]";"2";"0";"1"
"1252";"9";"2";"1";"28";"1";"2";"2";"1";"[7,33]";"1";"0";"1"
"1253";"11";"2";"1";"13";"1";"2";"2";"2";"[1,3,9,21,23,37]";"2";"0";"1"
"1254";"6";"2";"1";"1";"1";"2";"2";"2";"[3,9,13,23]";"2";"0";"1"
"1255";"13";"2";"1";"18";"1";"2";"2";"2";"[3,11,16,27]";"2";"0";"1"
"1256";"26";"2";"1";"40";"1";"2";"2";"1";"[7,14,38]";"1";"0";"1"
"1257";"29";"2";"1";"9";"1";"2";"2";"2";"[1,3,10,13,29,37]";"2";"0";"1"
"1258";"34";"3";"1";"19";"1";"2";"2";"2";"[17,30,31,32]";"2";"0";"1"
"1259";"17";"3";"1";"35";"1";"2";"2";"2";"[14,26]";"2";"0";"1"
"1260";"9";"3";"1";"28";"1";"2";"2";"1";"[7,33]";"1";"0";"1"
"1261";"11";"3";"1";"13";"1";"2";"2";"2";"[1,3,9,21,23,37]";"2";"0";"1"
"1262";"6";"3";"1";"1";"1";"2";"2";"2";"[3,9,13,23]";"2";"0";"1"
"1263";"13";"3";"1";"18";"1";"2";"2";"2";"[3,11,16,27]";"2";"0";"1"
"1264";"7";"3";"1";"29";"1";"2";"2";"1";"[9,10,15,24,32,34,37]";"2";"0";"1"
"1265";"36";"4";"1";"37";"1";"2";"2";"2";"[9,10,13,29,30]";"2";"0";"1"
"1266";"34";"4";"1";"19";"1";"2";"2";"2";"[17,30,31,32]";"2";"0";"1"
"1267";"17";"4";"1";"35";"1";"2";"2";"2";"[14,26]";"2";"0";"1"
"1268";"3";"4";"1";"33";"1";"2";"2";"1";"[4,28]";"1";"0";"1"
"1269";"7";"4";"1";"29";"1";"2";"2";"1";"[9,10,15,24,32,34,37]";"2";"0";"1"
"1270";"28";"5";"1";"3";"1";"2";"2";"2";"[1,9,10,13,16,18]";"2";"0";"1"
"1271";"36";"5";"1";"37";"1";"2";"2";"2";"[9,10,13,29,30]";"2";"0";"1"
"1272";"35";"5";"1";"5";"1";"2";"2";"2";"[12,22,32]";"2";"0";"1"
"1273";"23";"5";"1";"39";"1";"2";"2";"1";"[21,36,38]";"1";"0";"1"
"1274";"25";"5";"1";"4";"1";"2";"2";"2";"[2,33,38]";"1";"0";"1"
"1275";"3";"5";"1";"33";"1";"2";"2";"1";"[4,28]";"1";"0";"1"
"1276";"38";"5";"1";"25";"1";"2";"2";"2";"[27]";"1";"0";"1"
"1277";"21";"5";"1";"11";"1";"2";"2";"1";"[16,18]";"2";"0";"1"
"1278";"28";"6";"1";"3";"1";"2";"2";"2";"[1,9,10,13,16,18]";"2";"0";"1"
"1279";"30";"6";"1";"14";"1";"2";"2";"2";"[26,35,40]";"2";"0";"1"
"1280";"35";"6";"1";"5";"1";"2";"2";"2";"[12,22,32]";"2";"0";"1"
"1281";"23";"6";"1";"39";"1";"2";"2";"1";"[21,36,38]";"1";"0";"1"
"1282";"25";"6";"1";"4";"1";"2";"2";"2";"[2,33,38]";"1";"0";"1"
"1283";"38";"6";"1";"25";"1";"2";"2";"2";"[27]";"1";"0";"1"
"1284";"21";"6";"1";"11";"1";"2";"2";"1";"[16,18]";"2";"0";"1"
"1285";"14";"6";"1";"36";"1";"2";"2";"2";"[21,38,39]";"2";"0";"1"
"1286";"8";"7";"1";"10";"1";"2";"2";"2";"[3,9,29,37]";"2";"0";"1"
"1287";"30";"7";"1";"14";"1";"2";"2";"2";"[26,35,40]";"2";"0";"1"
"1288";"32";"7";"1";"31";"1";"2";"2";"2";"[15,19,24,30,34]";"2";"0";"1"
"1289";"14";"7";"1";"36";"1";"2";"2";"2";"[21,38,39]";"2";"0";"1"
"1290";"10";"8";"1";"16";"1";"2";"2";"2";"[3,11,18,27]";"2";"0";"1"
"1291";"8";"8";"1";"10";"1";"2";"2";"2";"[3,9,29,37]";"2";"0";"1"
"1292";"32";"8";"1";"31";"1";"2";"2";"2";"[15,19,24,30,34]";"2";"0";"1"
"1293";"18";"8";"1";"30";"1";"2";"2";"2";"[6,15,19,24,31,34,37]";"2";"0";"1"
"1294";"16";"8";"1";"8";"1";"2";"2";"1";"[6,20]";"1";"0";"1"
"1295";"20";"8";"1";"21";"1";"2";"2";"2";"[13,15,23,36,39]";"2";"0";"1"
"1296";"19";"8";"1";"12";"1";"2";"2";"2";"[5,22]";"2";"0";"1"
"1297";"10";"9";"1";"16";"1";"2";"2";"2";"[3,11,18,27]";"2";"0";"1"
"1298";"5";"9";"1";"38";"1";"2";"2";"1";"[2,4,20,36,39,40]";"1";"0";"1"
"1299";"18";"9";"1";"30";"1";"2";"2";"2";"[6,15,19,24,31,34,37]";"2";"0";"1"
"1300";"27";"9";"1";"15";"1";"2";"2";"1";"[6,21,24,29,30,31,32,34]";"1";"0";"1"
"1301";"16";"9";"1";"8";"1";"2";"2";"1";"[6,20]";"1";"0";"1"
"1302";"20";"9";"1";"21";"1";"2";"2";"2";"[13,15,23,36,39]";"2";"0";"1"
"1303";"19";"9";"1";"12";"1";"2";"2";"2";"[5,22]";"2";"0";"1"
"1304";"33";"10";"1";"27";"1";"2";"2";"2";"[16,18,20,25]";"2";"0";"1"
"1305";"31";"10";"1";"2";"1";"2";"2";"2";"[4,38]";"2";"0";"1"
"1306";"5";"10";"1";"38";"1";"2";"2";"1";"[2,4,20,36,39,40]";"1";"0";"1"
"1307";"27";"10";"1";"15";"1";"2";"2";"1";"[6,21,24,29,30,31,32,34]";"1";"0";"1"
"1308";"33";"11";"1";"27";"1";"2";"2";"2";"[16,18,20,25]";"2";"0";"1"
"1309";"31";"11";"1";"2";"1";"2";"2";"2";"[4,38]";"2";"0";"1"
"1310";"1";"12";"1";"23";"1";"2";"2";"1";"[1,13,21]";"2";"0";"1"
"1311";"40";"12";"1";"17";"1";"2";"2";"2";"[19]";"2";"0";"1"
"1312";"22";"12";"1";"7";"1";"2";"2";"2";"[28,40]";"1";"0";"1"
"1313";"37";"12";"1";"34";"1";"2";"2";"1";"[6,15,22,24,29,30,31,32]";"1";"0";"1"
"1314";"1";"13";"1";"23";"1";"2";"2";"1";"[1,13,21]";"2";"0";"1"
"1315";"40";"13";"1";"17";"1";"2";"2";"2";"[19]";"2";"0";"1"
"1316";"12";"13";"1";"6";"1";"2";"2";"2";"[8,15,24,30,34]";"1";"0";"1"
"1317";"22";"13";"1";"7";"1";"2";"2";"2";"[28,40]";"1";"0";"1"
"1318";"37";"13";"1";"34";"1";"2";"2";"1";"[6,15,22,24,29,30,31,32]";"1";"0";"1"
"1319";"12";"14";"1";"6";"1";"2";"2";"2";"[8,15,24,30,34]";"1";"0";"1"
"1320";"15";"15";"1";"24";"1";"2";"2";"2";"[6,15,29,30,31,32,34]";"2";"0";"1"
"1321";"15";"16";"1";"24";"1";"2";"2";"2";"[6,15,29,30,31,32,34]";"2";"0";"1"
"1322";"2";"20";"1";"22";"1";"2";"2";"1";"[5,12,32,34]";"1";"0";"1"
"1323";"2";"21";"1";"22";"1";"2";"2";"1";"[5,12,32,34]";"1";"0";"1"
"1324";"4";"23";"1";"32";"1";"2";"2";"2";"[5,15,19,22,24,29,34]";"1";"0";"1"
"1325";"4";"24";"1";"32";"1";"2";"2";"2";"[5,15,19,22,24,29,34]";"1";"0";"1"
"1326";"39";"30";"1";"26";"1";"2";"2";"1";"[14,35]";"0";"0";"1"
"1327";"0";"30";"1";"26";"1";"2";"2";"1";"[14,35]";"1";"0";"0"
"1328";"26";"1";"1";"40";"1";"2";"3";"1";"[7,14,38]";"1";"0";"1"
"1329";"26";"2";"1";"40";"1";"2";"3";"1";"[7,14,38]";"1";"0";"1"
"1330";"13";"2";"1";"18";"1";"2";"3";"2";"[3,11,16,27]";"2";"0";"1"
"1331";"9";"2";"1";"28";"1";"2";"3";"1";"[7,33]";"1";"0";"1"
"1332";"24";"2";"1";"20";"1";"2";"3";"2";"[8,27,38]";"2";"0";"1"
"1333";"19";"3";"1";"12";"1";"2";"3";"2";"[5,22]";"2";"0";"1"
"1334";"36";"3";"1";"37";"1";"2";"3";"2";"[9,10,13,29,30]";"2";"0";"1"
"1335";"3";"3";"1";"33";"1";"2";"3";"1";"[4,28]";"1";"0";"1"
"1336";"13";"3";"1";"18";"1";"2";"3";"2";"[3,11,16,27]";"2";"0";"1"
"1337";"30";"3";"1";"14";"1";"2";"3";"2";"[26,35,40]";"2";"0";"1"
"1338";"9";"3";"1";"28";"1";"2";"3";"1";"[7,33]";"1";"0";"1"
"1339";"24";"3";"1";"20";"1";"2";"3";"2";"[8,27,38]";"2";"0";"1"
"1340";"28";"4";"1";"3";"1";"2";"3";"2";"[1,9,10,13,16,18]";"2";"0";"1"
"1341";"19";"4";"1";"12";"1";"2";"3";"2";"[5,22]";"2";"0";"1"
"1342";"36";"4";"1";"37";"1";"2";"3";"2";"[9,10,13,29,30]";"2";"0";"1"
"1343";"3";"4";"1";"33";"1";"2";"3";"1";"[4,28]";"1";"0";"1"
"1344";"30";"4";"1";"14";"1";"2";"3";"2";"[26,35,40]";"2";"0";"1"
"1345";"20";"5";"1";"21";"1";"2";"3";"2";"[13,15,23,36,39]";"2";"0";"1"
"1346";"28";"5";"1";"3";"1";"2";"3";"2";"[1,9,10,13,16,18]";"2";"0";"1"
"1347";"29";"5";"1";"9";"1";"2";"3";"2";"[1,3,10,13,29,37]";"2";"0";"1"
"1348";"25";"5";"1";"4";"1";"2";"3";"2";"[2,33,38]";"1";"0";"1"
"1349";"20";"6";"1";"21";"1";"2";"3";"2";"[13,15,23,36,39]";"2";"0";"1"
"1350";"8";"6";"1";"10";"1";"2";"3";"2";"[3,9,29,37]";"2";"0";"1"
"1351";"21";"6";"1";"11";"1";"2";"3";"1";"[16,18]";"2";"0";"1"
"1352";"37";"6";"1";"34";"1";"2";"3";"1";"[6,15,22,24,29,30,31,32]";"1";"0";"1"
"1353";"29";"6";"1";"9";"1";"2";"3";"2";"[1,3,10,13,29,37]";"2";"0";"1"
"1354";"18";"6";"1";"30";"1";"2";"3";"2";"[6,15,19,24,31,34,37]";"2";"0";"1"
"1355";"11";"6";"1";"13";"1";"2";"3";"2";"[1,3,9,21,23,37]";"2";"0";"1"
"1356";"25";"6";"1";"4";"1";"2";"3";"2";"[2,33,38]";"1";"0";"1"
"1357";"14";"6";"1";"36";"1";"2";"3";"2";"[21,38,39]";"0";"1";"1"
"1358";"39";"7";"1";"26";"1";"2";"3";"1";"[14,35]";"2";"0";"1"
"1359";"16";"7";"1";"8";"1";"2";"3";"1";"[6,20]";"1";"0";"1"
"1360";"8";"7";"1";"10";"1";"2";"3";"2";"[3,9,29,37]";"2";"0";"1"
"1361";"21";"7";"1";"11";"1";"2";"3";"1";"[16,18]";"2";"0";"1"
"1362";"37";"7";"1";"34";"1";"2";"3";"1";"[6,15,22,24,29,30,31,32]";"1";"0";"1"
"1363";"6";"7";"1";"1";"1";"2";"3";"2";"[3,9,13,23]";"2";"0";"1"
"1364";"18";"7";"1";"30";"1";"2";"3";"2";"[6,15,19,24,31,34,37]";"2";"0";"1"
"1365";"11";"7";"1";"13";"1";"2";"3";"2";"[1,3,9,21,23,37]";"2";"0";"1"
"1366";"33";"7";"1";"27";"1";"2";"3";"2";"[16,18,20,25]";"2";"0";"1"
"1367";"17";"7";"1";"35";"1";"2";"3";"2";"[14,26]";"2";"0";"1"
"1368";"39";"8";"1";"26";"1";"2";"3";"1";"[14,35]";"2";"0";"1"
"1369";"16";"8";"1";"8";"1";"2";"3";"1";"[6,20]";"1";"0";"1"
"1370";"14";"8";"1";"36";"1";"2";"3";"2";"[21,38,39]";"0";"5";"1"
"1371";"38";"8";"1";"25";"1";"2";"3";"2";"[27]";"1";"0";"1"
"1372";"6";"8";"1";"1";"1";"2";"3";"2";"[3,9,13,23]";"2";"0";"1"
"1373";"32";"8";"1";"31";"1";"2";"3";"2";"[15,19,24,30,34]";"2";"0";"1"
"1374";"33";"8";"1";"27";"1";"2";"3";"2";"[16,18,20,25]";"2";"0";"1"
"1375";"27";"8";"1";"15";"1";"2";"3";"1";"[6,21,24,29,30,31,32,34]";"0";"1";"1"
"1376";"17";"8";"1";"35";"1";"2";"3";"2";"[14,26]";"2";"0";"1"
"1377";"23";"9";"1";"39";"1";"2";"3";"1";"[21,36,38]";"2";"0";"1"
"1378";"7";"9";"1";"29";"1";"2";"3";"1";"[9,10,15,24,32,34,37]";"2";"0";"1"
"1379";"38";"9";"1";"25";"1";"2";"3";"2";"[27]";"1";"0";"1"
"1380";"32";"9";"1";"31";"1";"2";"3";"2";"[15,19,24,30,34]";"2";"0";"1"
"1381";"35";"9";"1";"5";"1";"2";"3";"2";"[12,22,32]";"2";"0";"1"
"1382";"31";"9";"1";"2";"1";"2";"3";"2";"[4,38]";"2";"0";"1"
"1383";"10";"9";"1";"16";"1";"2";"3";"2";"[3,11,18,27]";"2";"0";"1"
"1384";"23";"10";"1";"39";"1";"2";"3";"1";"[21,36,38]";"2";"0";"1"
"1385";"7";"10";"1";"29";"1";"2";"3";"1";"[9,10,15,24,32,34,37]";"2";"0";"1"
"1386";"35";"10";"1";"5";"1";"2";"3";"2";"[12,22,32]";"2";"0";"1"
"1387";"31";"10";"1";"2";"1";"2";"3";"2";"[4,38]";"2";"0";"1"
"1388";"14";"10";"1";"36";"1";"2";"3";"2";"[21,38,39]";"2";"5";"1"
"1389";"10";"10";"1";"16";"1";"2";"3";"2";"[3,11,18,27]";"2";"0";"1"
"1390";"14";"11";"1";"36";"1";"2";"3";"2";"[21,38,39]";"2";"5";"1"
"1391";"27";"12";"1";"15";"1";"2";"3";"1";"[6,21,24,29,30,31,32,34]";"0";"2";"1"
"1392";"12";"13";"1";"6";"1";"2";"3";"2";"[8,15,24,30,34]";"2";"0";"1"
"1393";"1";"13";"1";"23";"1";"2";"3";"1";"[1,13,21]";"2";"0";"1"
"1394";"15";"13";"1";"24";"1";"2";"3";"2";"[6,15,29,30,31,32,34]";"2";"0";"1"
"1395";"4";"13";"1";"32";"1";"2";"3";"2";"[5,15,19,22,24,29,34]";"1";"0";"1"
"1396";"27";"13";"1";"15";"1";"2";"3";"1";"[6,21,24,29,30,31,32,34]";"0";"1";"1"
"1397";"22";"13";"1";"7";"1";"2";"3";"2";"[28,40]";"2";"0";"1"
"1398";"40";"14";"1";"17";"1";"2";"3";"2";"[19]";"2";"0";"1"
"1399";"12";"14";"1";"6";"1";"2";"3";"2";"[8,15,24,30,34]";"2";"0";"1"
"1400";"1";"14";"1";"23";"1";"2";"3";"1";"[1,13,21]";"2";"0";"1"
"1401";"15";"14";"1";"24";"1";"2";"3";"2";"[6,15,29,30,31,32,34]";"2";"0";"1"
"1402";"4";"14";"1";"32";"1";"2";"3";"2";"[5,15,19,22,24,29,34]";"1";"0";"1"
"1403";"22";"14";"1";"7";"1";"2";"3";"2";"[28,40]";"2";"0";"1"
"1404";"34";"14";"1";"19";"1";"2";"3";"2";"[17,30,31,32]";"0";"1";"1"
"1405";"2";"15";"1";"22";"1";"2";"3";"1";"[5,12,32,34]";"1";"0";"1"
"1406";"40";"15";"1";"17";"1";"2";"3";"2";"[19]";"2";"0";"1"
"1407";"2";"16";"1";"22";"1";"2";"3";"1";"[5,12,32,34]";"1";"0";"1"
"1408";"5";"16";"1";"38";"1";"2";"3";"1";"[2,4,20,36,39,40]";"1";"0";"1"
"1409";"27";"17";"1";"15";"1";"2";"3";"1";"[6,21,24,29,30,31,32,34]";"0";"2";"1"
"1410";"34";"17";"1";"19";"1";"2";"3";"2";"[17,30,31,32]";"0";"3";"1"
"1411";"5";"17";"1";"38";"1";"2";"3";"1";"[2,4,20,36,39,40]";"1";"0";"1"
"1412";"34";"20";"1";"19";"1";"2";"3";"2";"[17,30,31,32]";"2";"3";"1"
"1413";"27";"21";"1";"15";"1";"2";"3";"1";"[6,21,24,29,30,31,32,34]";"1";"2";"1"
"1414";"34";"21";"1";"19";"1";"2";"3";"2";"[17,30,31,32]";"2";"3";"1"
"1415";"27";"22";"1";"15";"1";"2";"3";"1";"[6,21,24,29,30,31,32,34]";"1";"2";"1"
"1416";"26";"1";"1";"40";"1";"2";"4";"1";"[7,14,38]";"2";"0";"1"
"1417";"29";"1";"1";"9";"1";"2";"4";"2";"[1,3,10,13,29,37]";"2";"0";"1"
"1418";"24";"1";"1";"20";"1";"2";"4";"2";"[8,27,38]";"2";"0";"1"
"1419";"3";"2";"1";"33";"1";"2";"4";"1";"[4,28]";"1";"0";"1"
"1420";"26";"2";"1";"40";"1";"2";"4";"1";"[7,14,38]";"2";"0";"1"
"1421";"13";"2";"1";"18";"1";"2";"4";"2";"[3,11,16,27]";"2";"0";"1"
"1422";"19";"2";"1";"12";"1";"2";"4";"2";"[5,22]";"1";"0";"1"
"1423";"29";"2";"1";"9";"1";"2";"4";"2";"[1,3,10,13,29,37]";"2";"0";"1"
"1424";"24";"2";"1";"20";"1";"2";"4";"2";"[8,27,38]";"2";"0";"1"
"1425";"30";"2";"1";"14";"1";"2";"4";"2";"[26,35,40]";"2";"0";"1"
"1426";"3";"3";"1";"33";"1";"2";"4";"1";"[4,28]";"1";"0";"1"
"1427";"13";"3";"1";"18";"1";"2";"4";"2";"[3,11,16,27]";"2";"0";"1"
"1428";"10";"3";"1";"16";"1";"2";"4";"2";"[3,11,18,27]";"2";"0";"1"
"1429";"9";"3";"1";"28";"1";"2";"4";"1";"[7,33]";"1";"0";"1"
"1430";"19";"3";"1";"12";"1";"2";"4";"2";"[5,22]";"1";"0";"1"
"1431";"11";"3";"1";"13";"1";"2";"4";"2";"[1,3,9,21,23,37]";"2";"0";"1"
"1432";"25";"3";"1";"4";"1";"2";"4";"2";"[2,33,38]";"2";"0";"1"
"1433";"30";"3";"1";"14";"1";"2";"4";"2";"[26,35,40]";"2";"0";"1"
"1434";"5";"4";"1";"38";"1";"2";"4";"1";"[2,4,20,36,39,40]";"2";"0";"1"
"1435";"22";"4";"1";"7";"1";"2";"4";"2";"[28,40]";"1";"0";"1"
"1436";"10";"4";"1";"16";"1";"2";"4";"2";"[3,11,18,27]";"2";"0";"1"
"1437";"9";"4";"1";"28";"1";"2";"4";"1";"[7,33]";"1";"0";"1"
"1438";"11";"4";"1";"13";"1";"2";"4";"2";"[1,3,9,21,23,37]";"2";"0";"1"
"1439";"17";"4";"1";"35";"1";"2";"4";"2";"[14,26]";"2";"0";"1"
"1440";"6";"4";"1";"1";"1";"2";"4";"2";"[3,9,13,23]";"2";"0";"1"
"1441";"33";"4";"1";"27";"1";"2";"4";"2";"[16,18,20,25]";"2";"0";"1"
"1442";"35";"4";"1";"5";"1";"2";"4";"2";"[12,22,32]";"2";"0";"1"
"1443";"25";"4";"1";"4";"1";"2";"4";"2";"[2,33,38]";"2";"0";"1"
"1444";"18";"4";"1";"30";"1";"2";"4";"2";"[6,15,19,24,31,34,37]";"2";"0";"1"
"1445";"5";"5";"1";"38";"1";"2";"4";"1";"[2,4,20,36,39,40]";"2";"0";"1"
"1446";"22";"5";"1";"7";"1";"2";"4";"2";"[28,40]";"1";"0";"1"
"1447";"28";"5";"1";"3";"1";"2";"4";"2";"[1,9,10,13,16,18]";"2";"0";"1"
"1448";"20";"5";"1";"21";"1";"2";"4";"2";"[13,15,23,36,39]";"2";"0";"1"
"1449";"17";"5";"1";"35";"1";"2";"4";"2";"[14,26]";"2";"0";"1"
"1450";"36";"5";"1";"37";"1";"2";"4";"2";"[9,10,13,29,30]";"2";"0";"1"
"1451";"21";"5";"1";"11";"1";"2";"4";"1";"[16,18]";"2";"0";"1"
"1452";"6";"5";"1";"1";"1";"2";"4";"2";"[3,9,13,23]";"2";"0";"1"
"1453";"33";"5";"1";"27";"1";"2";"4";"2";"[16,18,20,25]";"2";"0";"1"
"1454";"8";"5";"1";"10";"1";"2";"4";"2";"[3,9,29,37]";"2";"0";"1"
"1455";"23";"5";"1";"39";"1";"2";"4";"1";"[21,36,38]";"2";"0";"1"
"1456";"35";"5";"1";"5";"1";"2";"4";"2";"[12,22,32]";"2";"0";"1"
"1457";"18";"5";"1";"30";"1";"2";"4";"2";"[6,15,19,24,31,34,37]";"2";"0";"1"
"1458";"4";"6";"1";"32";"1";"2";"4";"2";"[5,15,19,22,24,29,34]";"0";"1";"1"
"1459";"40";"6";"1";"17";"1";"2";"4";"2";"[19]";"1";"0";"1"
"1460";"28";"6";"1";"3";"1";"2";"4";"2";"[1,9,10,13,16,18]";"2";"0";"1"
"1461";"31";"6";"1";"2";"1";"2";"4";"2";"[4,38]";"2";"0";"1"
