"id";"id_subj";"time";"session";"id_grp";"grp";"round";"period";"sig";"links";"choice";"hist";"active"
"1";"36";"0";"1";"25";"1";"1";"1";"1";"[1,2,3,26]";"0";"0";"1"
"2";"24";"0";"1";"17";"1";"1";"1";"1";"[1,2,3,18]";"0";"0";"1"
"3";"20";"0";"1";"13";"1";"1";"1";"1";"[1,2,3,14]";"0";"0";"1"
"4";"7";"0";"1";"3";"1";"1";"1";"1";"[1,2,4]";"0";"0";"1"
"5";"32";"0";"1";"28";"1";"1";"1";"1";"[1,2,3,29]";"0";"0";"1"
"6";"18";"0";"1";"32";"1";"1";"1";"1";"[1,2,3,33]";"0";"0";"1"
"7";"30";"0";"1";"8";"1";"1";"1";"1";"[1,2,3,9]";"0";"0";"1"
"8";"29";"0";"1";"24";"1";"1";"1";"1";"[1,2,3,25]";"0";"0";"1"
"9";"2";"0";"1";"19";"1";"1";"1";"1";"[1,2,3,20]";"0";"0";"1"
"10";"26";"0";"1";"23";"1";"1";"1";"2";"[1,2,3,24]";"0";"0";"1"
"11";"3";"0";"1";"22";"1";"1";"1";"1";"[1,2,3,23]";"0";"0";"1"
"12";"31";"0";"1";"36";"1";"1";"1";"1";"[1,2,3,37]";"0";"0";"1"
"13";"35";"0";"1";"38";"1";"1";"1";"1";"[1,2,3,39]";"0";"0";"1"
"14";"9";"0";"1";"21";"1";"1";"1";"2";"[1,2,3,22]";"0";"0";"1"
"15";"12";"0";"1";"9";"1";"1";"1";"2";"[1,2,3,10]";"0";"0";"1"
"16";"5";"0";"1";"26";"1";"1";"1";"1";"[1,2,3,27]";"0";"0";"1"
"17";"25";"0";"1";"27";"1";"1";"1";"1";"[1,2,3,28]";"0";"0";"1"
"18";"28";"0";"1";"1";"1";"1";"1";"2";"[2,3]";"0";"0";"1"
"19";"11";"0";"1";"35";"1";"1";"1";"1";"[1,2,3,36]";"0";"0";"1"
"20";"37";"0";"1";"30";"1";"1";"1";"1";"[1,2,3,31]";"0";"0";"1"
"21";"33";"0";"1";"7";"1";"1";"1";"1";"[1,2,3,8]";"0";"0";"1"
"22";"21";"0";"1";"10";"1";"1";"1";"1";"[1,2,3,11]";"0";"0";"1"
"23";"39";"0";"1";"4";"1";"1";"1";"1";"[1,2,3,5]";"0";"0";"1"
"24";"22";"0";"1";"14";"1";"1";"1";"1";"[1,2,3,15]";"0";"0";"1"
"25";"34";"0";"1";"34";"1";"1";"1";"2";"[1,2,3,35]";"0";"0";"1"
"26";"40";"0";"1";"31";"1";"1";"1";"1";"[1,2,3,32]";"0";"0";"1"
"27";"14";"0";"1";"29";"1";"1";"1";"1";"[1,2,3,30]";"0";"0";"1"
"28";"13";"0";"1";"5";"1";"1";"1";"2";"[1,2,3,6]";"0";"0";"1"
"29";"8";"0";"1";"40";"1";"1";"1";"1";"[1,2,3]";"0";"0";"1"
"30";"10";"0";"1";"15";"1";"1";"1";"2";"[1,2,3,16]";"0";"0";"1"
"31";"23";"0";"1";"37";"1";"1";"1";"2";"[1,2,3,38]";"0";"0";"1"
"32";"16";"0";"1";"39";"1";"1";"1";"1";"[1,2,3,40]";"0";"0";"1"
"33";"6";"0";"1";"2";"1";"1";"1";"1";"[1,3]";"0";"0";"1"
"34";"15";"0";"1";"33";"1";"1";"1";"1";"[1,2,3,34]";"0";"0";"1"
"35";"4";"0";"1";"16";"1";"1";"1";"2";"[1,2,3,17]";"0";"0";"1"
"36";"1";"0";"1";"11";"1";"1";"1";"1";"[1,2,3,12]";"0";"0";"1"
"37";"27";"0";"1";"18";"1";"1";"1";"2";"[1,2,3,19]";"0";"0";"1"
"38";"17";"0";"1";"20";"1";"1";"1";"1";"[1,2,3,21]";"0";"0";"1"
"39";"38";"0";"1";"6";"1";"1";"1";"1";"[1,2,3,7]";"0";"0";"1"
"40";"19";"0";"1";"12";"1";"1";"1";"1";"[1,2,3,13]";"0";"0";"1"
"41";"3";"5";"1";"22";"1";"1";"1";"1";"[1,2,3,23]";"1";"0";"1"
"42";"33";"6";"1";"7";"1";"1";"1";"1";"[1,2,3,8]";"1";"0";"1"
"43";"3";"6";"1";"22";"1";"1";"1";"1";"[1,2,3,23]";"1";"0";"1"
"44";"13";"7";"1";"5";"1";"1";"1";"2";"[1,2,3,6]";"2";"0";"1"
"45";"7";"7";"1";"3";"1";"1";"1";"1";"[1,2,4]";"1";"0";"1"
"46";"30";"7";"1";"8";"1";"1";"1";"1";"[1,2,3,9]";"1";"0";"1"
"47";"33";"7";"1";"7";"1";"1";"1";"1";"[1,2,3,8]";"1";"0";"1"
"48";"38";"7";"1";"6";"1";"1";"1";"1";"[1,2,3,7]";"1";"0";"1"
"49";"12";"7";"1";"9";"1";"1";"1";"2";"[1,2,3,10]";"2";"0";"1"
"50";"17";"7";"1";"20";"1";"1";"1";"1";"[1,2,3,21]";"1";"0";"1"
"51";"25";"8";"1";"27";"1";"1";"1";"1";"[1,2,3,28]";"1";"0";"1"
"52";"13";"8";"1";"5";"1";"1";"1";"2";"[1,2,3,6]";"2";"0";"1"
"53";"37";"8";"1";"30";"1";"1";"1";"1";"[1,2,3,31]";"1";"0";"1"
"54";"7";"8";"1";"3";"1";"1";"1";"1";"[1,2,4]";"1";"0";"1"
"55";"30";"8";"1";"8";"1";"1";"1";"1";"[1,2,3,9]";"1";"0";"1"
"56";"18";"8";"1";"32";"1";"1";"1";"1";"[1,2,3,33]";"1";"0";"1"
"57";"38";"8";"1";"6";"1";"1";"1";"1";"[1,2,3,7]";"1";"0";"1"
"58";"8";"8";"1";"40";"1";"1";"1";"1";"[1,2,3]";"1";"0";"1"
"59";"12";"8";"1";"9";"1";"1";"1";"2";"[1,2,3,10]";"2";"0";"1"
"60";"17";"8";"1";"20";"1";"1";"1";"1";"[1,2,3,21]";"1";"0";"1"
"61";"9";"8";"1";"21";"1";"1";"1";"2";"[1,2,3,22]";"2";"0";"1"
"62";"32";"8";"1";"28";"1";"1";"1";"1";"[1,2,3,29]";"1";"0";"1"
"63";"10";"8";"1";"15";"1";"1";"1";"2";"[1,2,3,16]";"2";"0";"1"
"64";"25";"9";"1";"27";"1";"1";"1";"1";"[1,2,3,28]";"1";"0";"1"
"65";"37";"9";"1";"30";"1";"1";"1";"1";"[1,2,3,31]";"1";"0";"1"
"66";"18";"9";"1";"32";"1";"1";"1";"1";"[1,2,3,33]";"1";"0";"1"
"67";"8";"9";"1";"40";"1";"1";"1";"1";"[1,2,3]";"1";"0";"1"
"68";"20";"9";"1";"13";"1";"1";"1";"1";"[1,2,3,14]";"1";"0";"1"
"69";"9";"9";"1";"21";"1";"1";"1";"2";"[1,2,3,22]";"2";"0";"1"
"70";"32";"10";"1";"28";"1";"1";"1";"1";"[1,2,3,29]";"1";"0";"1"
"71";"10";"10";"1";"15";"1";"1";"1";"2";"[1,2,3,16]";"2";"0";"1"
"72";"5";"10";"1";"26";"1";"1";"1";"1";"[1,2,3,27]";"1";"0";"1"
"73";"23";"10";"1";"37";"1";"1";"1";"2";"[1,2,3,38]";"2";"0";"1"
"74";"14";"10";"1";"29";"1";"1";"1";"1";"[1,2,3,30]";"1";"0";"1"
"75";"29";"10";"1";"24";"1";"1";"1";"1";"[1,2,3,25]";"1";"0";"1"
"76";"2";"10";"1";"19";"1";"1";"1";"1";"[1,2,3,20]";"1";"0";"1"
"77";"26";"10";"1";"23";"1";"1";"1";"2";"[1,2,3,24]";"2";"0";"1"
"78";"35";"10";"1";"38";"1";"1";"1";"1";"[1,2,3,39]";"2";"0";"1"
"79";"34";"10";"1";"34";"1";"1";"1";"2";"[1,2,3,35]";"1";"0";"1"
"80";"20";"10";"1";"13";"1";"1";"1";"1";"[1,2,3,14]";"1";"0";"1"
"81";"1";"11";"1";"11";"1";"1";"1";"1";"[1,2,3,12]";"1";"0";"1"
"82";"6";"11";"1";"2";"1";"1";"1";"1";"[1,3]";"1";"0";"1"
"83";"31";"11";"1";"36";"1";"1";"1";"1";"[1,2,3,37]";"1";"0";"1"
"84";"5";"11";"1";"26";"1";"1";"1";"1";"[1,2,3,27]";"1";"0";"1"
"85";"23";"11";"1";"37";"1";"1";"1";"2";"[1,2,3,38]";"2";"0";"1"
"86";"14";"11";"1";"29";"1";"1";"1";"1";"[1,2,3,30]";"1";"0";"1"
"87";"29";"11";"1";"24";"1";"1";"1";"1";"[1,2,3,25]";"1";"0";"1"
"88";"2";"11";"1";"19";"1";"1";"1";"1";"[1,2,3,20]";"1";"0";"1"
"89";"26";"11";"1";"23";"1";"1";"1";"2";"[1,2,3,24]";"2";"0";"1"
"90";"22";"11";"1";"14";"1";"1";"1";"1";"[1,2,3,15]";"1";"0";"1"
"91";"35";"11";"1";"38";"1";"1";"1";"1";"[1,2,3,39]";"2";"0";"1"
"92";"34";"11";"1";"34";"1";"1";"1";"2";"[1,2,3,35]";"1";"0";"1"
"93";"19";"12";"1";"12";"1";"1";"1";"1";"[1,2,3,13]";"1";"0";"1"
"94";"16";"12";"1";"39";"1";"1";"1";"1";"[1,2,3,40]";"1";"0";"1"
"95";"1";"12";"1";"11";"1";"1";"1";"1";"[1,2,3,12]";"1";"0";"1"
"96";"6";"12";"1";"2";"1";"1";"1";"1";"[1,3]";"1";"0";"1"
"97";"31";"12";"1";"36";"1";"1";"1";"1";"[1,2,3,37]";"1";"0";"1"
"98";"22";"12";"1";"14";"1";"1";"1";"1";"[1,2,3,15]";"1";"0";"1"
"99";"19";"13";"1";"12";"1";"1";"1";"1";"[1,2,3,13]";"1";"0";"1"
"100";"16";"13";"1";"39";"1";"1";"1";"1";"[1,2,3,40]";"1";"0";"1"
"101";"28";"14";"1";"1";"1";"1";"1";"2";"[2,3]";"2";"0";"1"
"102";"15";"15";"1";"33";"1";"1";"1";"1";"[1,2,3,34]";"1";"0";"1"
"103";"28";"15";"1";"1";"1";"1";"1";"2";"[2,3]";"2";"0";"1"
"104";"4";"15";"1";"16";"1";"1";"1";"2";"[1,2,3,17]";"2";"0";"1"
"105";"15";"16";"1";"33";"1";"1";"1";"1";"[1,2,3,34]";"1";"0";"1"
"106";"4";"16";"1";"16";"1";"1";"1";"2";"[1,2,3,17]";"2";"0";"1"
"107";"27";"16";"1";"18";"1";"1";"1";"2";"[1,2,3,19]";"2";"0";"1"
"108";"21";"17";"1";"10";"1";"1";"1";"1";"[1,2,3,11]";"1";"0";"1"
"109";"27";"17";"1";"18";"1";"1";"1";"2";"[1,2,3,19]";"2";"0";"1"
"110";"21";"18";"1";"10";"1";"1";"1";"1";"[1,2,3,11]";"1";"0";"1"
"111";"40";"19";"1";"31";"1";"1";"1";"1";"[1,2,3,32]";"1";"0";"1"
"112";"40";"20";"1";"31";"1";"1";"1";"1";"[1,2,3,32]";"1";"0";"1"
"113";"36";"22";"1";"25";"1";"1";"1";"1";"[1,2,3,26]";"1";"0";"1"
"114";"24";"22";"1";"17";"1";"1";"1";"1";"[1,2,3,18]";"1";"0";"1"
"115";"36";"23";"1";"25";"1";"1";"1";"1";"[1,2,3,26]";"1";"0";"1"
"116";"11";"23";"1";"35";"1";"1";"1";"1";"[1,2,3,36]";"1";"0";"1"
"117";"24";"23";"1";"17";"1";"1";"1";"1";"[1,2,3,18]";"1";"0";"1"
"118";"11";"24";"1";"35";"1";"1";"1";"1";"[1,2,3,36]";"1";"0";"1"
"119";"39";"25";"1";"4";"1";"1";"1";"1";"[1,2,3,5]";"2";"0";"1"
"120";"39";"26";"1";"4";"1";"1";"1";"1";"[1,2,3,5]";"2";"0";"1"
"121";"37";"2";"1";"30";"1";"1";"2";"1";"[1,2,3,31]";"1";"0";"1"
"122";"37";"3";"1";"30";"1";"1";"2";"1";"[1,2,3,31]";"1";"0";"1"
"123";"33";"3";"1";"7";"1";"1";"2";"1";"[1,2,3,8]";"1";"0";"1"
"124";"20";"4";"1";"13";"1";"1";"2";"1";"[1,2,3,14]";"1";"0";"1"
"125";"33";"4";"1";"7";"1";"1";"2";"1";"[1,2,3,8]";"1";"0";"1"
"126";"18";"4";"1";"32";"1";"1";"2";"1";"[1,2,3,33]";"1";"0";"1"
"127";"32";"4";"1";"28";"1";"1";"2";"1";"[1,2,3,29]";"1";"0";"1"
"128";"7";"5";"1";"3";"1";"1";"2";"1";"[1,2,4]";"1";"0";"1"
"129";"20";"5";"1";"13";"1";"1";"2";"1";"[1,2,3,14]";"1";"0";"1"
"130";"25";"5";"1";"27";"1";"1";"2";"1";"[1,2,3,28]";"1";"0";"1"
"131";"36";"5";"1";"25";"1";"1";"2";"1";"[1,2,3,26]";"1";"0";"1"
"132";"18";"5";"1";"32";"1";"1";"2";"1";"[1,2,3,33]";"1";"0";"1"
"133";"32";"5";"1";"28";"1";"1";"2";"1";"[1,2,3,29]";"1";"0";"1"
"134";"24";"6";"1";"17";"1";"1";"2";"1";"[1,2,3,18]";"1";"0";"1"
"135";"40";"6";"1";"31";"1";"1";"2";"1";"[1,2,3,32]";"1";"0";"1"
"136";"7";"6";"1";"3";"1";"1";"2";"1";"[1,2,4]";"1";"0";"1"
"137";"25";"6";"1";"27";"1";"1";"2";"1";"[1,2,3,28]";"1";"0";"1"
"138";"36";"6";"1";"25";"1";"1";"2";"1";"[1,2,3,26]";"1";"0";"1"
"139";"9";"7";"1";"21";"1";"1";"2";"2";"[1,2,3,22]";"1";"0";"1"
"140";"2";"7";"1";"19";"1";"1";"2";"1";"[1,2,3,20]";"1";"0";"1"
"141";"29";"7";"1";"24";"1";"1";"2";"1";"[1,2,3,25]";"1";"0";"1"
"142";"24";"7";"1";"17";"1";"1";"2";"1";"[1,2,3,18]";"1";"0";"1"
"143";"40";"7";"1";"31";"1";"1";"2";"1";"[1,2,3,32]";"1";"0";"1"
"144";"12";"7";"1";"9";"1";"1";"2";"2";"[1,2,3,10]";"2";"0";"1"
"145";"3";"7";"1";"22";"1";"1";"2";"1";"[1,2,3,23]";"2";"0";"1"
"146";"9";"8";"1";"21";"1";"1";"2";"2";"[1,2,3,22]";"1";"0";"1"
"147";"35";"8";"1";"38";"1";"1";"2";"1";"[1,2,3,39]";"2";"0";"1"
"148";"2";"8";"1";"19";"1";"1";"2";"1";"[1,2,3,20]";"1";"0";"1"
"149";"29";"8";"1";"24";"1";"1";"2";"1";"[1,2,3,25]";"1";"0";"1"
"150";"12";"8";"1";"9";"1";"1";"2";"2";"[1,2,3,10]";"2";"0";"1"
"151";"6";"8";"1";"2";"1";"1";"2";"1";"[1,3]";"1";"0";"1"
"152";"16";"8";"1";"39";"1";"1";"2";"1";"[1,2,3,40]";"1";"0";"1"
"153";"26";"8";"1";"23";"1";"1";"2";"2";"[1,2,3,24]";"2";"0";"1"
"154";"3";"8";"1";"22";"1";"1";"2";"1";"[1,2,3,23]";"2";"0";"1"
"155";"5";"8";"1";"26";"1";"1";"2";"1";"[1,2,3,27]";"1";"0";"1"
"156";"35";"9";"1";"38";"1";"1";"2";"1";"[1,2,3,39]";"2";"0";"1"
"157";"30";"9";"1";"8";"1";"1";"2";"1";"[1,2,3,9]";"1";"0";"1"
"158";"8";"9";"1";"40";"1";"1";"2";"1";"[1,2,3]";"1";"0";"1"
"159";"6";"9";"1";"2";"1";"1";"2";"1";"[1,3]";"1";"0";"1"
"160";"16";"9";"1";"39";"1";"1";"2";"1";"[1,2,3,40]";"1";"0";"1"
"161";"26";"9";"1";"23";"1";"1";"2";"2";"[1,2,3,24]";"2";"0";"1"
"162";"5";"9";"1";"26";"1";"1";"2";"1";"[1,2,3,27]";"1";"0";"1"
"163";"23";"10";"1";"37";"1";"1";"2";"2";"[1,2,3,38]";"2";"0";"1"
"164";"30";"10";"1";"8";"1";"1";"2";"1";"[1,2,3,9]";"1";"0";"1"
"165";"15";"10";"1";"33";"1";"1";"2";"1";"[1,2,3,34]";"1";"0";"1"
"166";"8";"10";"1";"40";"1";"1";"2";"1";"[1,2,3]";"1";"0";"1"
"167";"23";"11";"1";"37";"1";"1";"2";"2";"[1,2,3,38]";"2";"0";"1"
"168";"22";"11";"1";"14";"1";"1";"2";"1";"[1,2,3,15]";"1";"0";"1"
"169";"15";"11";"1";"33";"1";"1";"2";"1";"[1,2,3,34]";"1";"0";"1"
"170";"39";"12";"1";"4";"1";"1";"2";"1";"[1,2,3,5]";"2";"0";"1"
"171";"22";"12";"1";"14";"1";"1";"2";"1";"[1,2,3,15]";"1";"0";"1"
"172";"13";"12";"1";"5";"1";"1";"2";"2";"[1,2,3,6]";"2";"0";"1"
"173";"39";"13";"1";"4";"1";"1";"2";"1";"[1,2,3,5]";"2";"0";"1"
"174";"11";"13";"1";"35";"1";"1";"2";"1";"[1,2,3,36]";"1";"0";"1"
"175";"1";"13";"1";"11";"1";"1";"2";"1";"[1,2,3,12]";"1";"0";"1"
"176";"13";"13";"1";"5";"1";"1";"2";"2";"[1,2,3,6]";"2";"0";"1"
"177";"31";"13";"1";"36";"1";"1";"2";"1";"[1,2,3,37]";"1";"0";"1"
"178";"28";"13";"1";"1";"1";"1";"2";"2";"[2,3]";"2";"0";"1"
"179";"11";"14";"1";"35";"1";"1";"2";"1";"[1,2,3,36]";"1";"0";"1"
"180";"1";"14";"1";"11";"1";"1";"2";"1";"[1,2,3,12]";"1";"0";"1"
"181";"31";"14";"1";"36";"1";"1";"2";"1";"[1,2,3,37]";"1";"0";"1"
"182";"28";"14";"1";"1";"1";"1";"2";"2";"[2,3]";"2";"0";"1"
"183";"38";"15";"1";"6";"1";"1";"2";"1";"[1,2,3,7]";"1";"0";"1"
"184";"38";"16";"1";"6";"1";"1";"2";"1";"[1,2,3,7]";"1";"0";"1"
"185";"34";"17";"1";"34";"1";"1";"2";"2";"[1,2,3,35]";"1";"0";"1"
"186";"34";"18";"1";"34";"1";"1";"2";"2";"[1,2,3,35]";"1";"0";"1"
"187";"10";"18";"1";"15";"1";"1";"2";"2";"[1,2,3,16]";"2";"0";"1"
"188";"14";"19";"1";"29";"1";"1";"2";"1";"[1,2,3,30]";"1";"0";"1"
"189";"10";"19";"1";"15";"1";"1";"2";"2";"[1,2,3,16]";"2";"0";"1"
"190";"14";"20";"1";"29";"1";"1";"2";"1";"[1,2,3,30]";"1";"0";"1"
"191";"19";"21";"1";"12";"1";"1";"2";"1";"[1,2,3,13]";"1";"0";"1"
"192";"21";"22";"1";"10";"1";"1";"2";"1";"[1,2,3,11]";"1";"0";"1"
"193";"19";"22";"1";"12";"1";"1";"2";"1";"[1,2,3,13]";"1";"0";"1"
"194";"27";"22";"1";"18";"1";"1";"2";"2";"[1,2,3,19]";"2";"0";"1"
"195";"21";"23";"1";"10";"1";"1";"2";"1";"[1,2,3,11]";"1";"0";"1"
"196";"27";"23";"1";"18";"1";"1";"2";"2";"[1,2,3,19]";"2";"0";"1"
"197";"4";"24";"1";"16";"1";"1";"2";"2";"[1,2,3,17]";"1";"0";"1"
"198";"4";"25";"1";"16";"1";"1";"2";"2";"[1,2,3,17]";"1";"0";"1"
"199";"17";"25";"1";"20";"1";"1";"2";"1";"[1,2,3,21]";"1";"0";"1"
"200";"17";"26";"1";"20";"1";"1";"2";"1";"[1,2,3,21]";"1";"0";"1"
"201";"17";"1";"1";"20";"1";"1";"3";"1";"[1,2,3,21]";"1";"0";"1"
"202";"17";"3";"1";"20";"1";"1";"3";"1";"[1,2,3,21]";"1";"0";"1"
"203";"36";"3";"1";"25";"1";"1";"3";"1";"[1,2,3,26]";"1";"0";"1"
"204";"32";"3";"1";"28";"1";"1";"3";"1";"[1,2,3,29]";"1";"0";"1"
"205";"20";"4";"1";"13";"1";"1";"3";"1";"[1,2,3,14]";"1";"0";"1"
"206";"36";"4";"1";"25";"1";"1";"3";"1";"[1,2,3,26]";"1";"0";"1"
"207";"15";"4";"1";"33";"1";"1";"3";"1";"[1,2,3,34]";"1";"0";"1"
"208";"32";"4";"1";"28";"1";"1";"3";"1";"[1,2,3,29]";"1";"0";"1"
"209";"26";"4";"1";"23";"1";"1";"3";"2";"[1,2,3,24]";"2";"0";"1"
"210";"20";"5";"1";"13";"1";"1";"3";"1";"[1,2,3,14]";"1";"0";"1"
"211";"40";"5";"1";"31";"1";"1";"3";"1";"[1,2,3,32]";"1";"0";"1"
"212";"30";"5";"1";"8";"1";"1";"3";"1";"[1,2,3,9]";"1";"0";"1"
"213";"25";"5";"1";"27";"1";"1";"3";"1";"[1,2,3,28]";"1";"0";"1"
"214";"9";"5";"1";"21";"1";"1";"3";"2";"[1,2,3,22]";"1";"0";"1"
"215";"15";"5";"1";"33";"1";"1";"3";"1";"[1,2,3,34]";"1";"0";"1"
"216";"18";"5";"1";"32";"1";"1";"3";"1";"[1,2,3,33]";"1";"0";"1"
"217";"12";"5";"1";"9";"1";"1";"3";"2";"[1,2,3,10]";"2";"0";"1"
"218";"26";"5";"1";"23";"1";"1";"3";"2";"[1,2,3,24]";"2";"0";"1"
"219";"40";"6";"1";"31";"1";"1";"3";"1";"[1,2,3,32]";"1";"0";"1"
"220";"30";"6";"1";"8";"1";"1";"3";"1";"[1,2,3,9]";"1";"0";"1"
"221";"25";"6";"1";"27";"1";"1";"3";"1";"[1,2,3,28]";"1";"0";"1"
"222";"9";"6";"1";"21";"1";"1";"3";"2";"[1,2,3,22]";"1";"0";"1"
"223";"18";"6";"1";"32";"1";"1";"3";"1";"[1,2,3,33]";"1";"0";"1"
"224";"35";"6";"1";"38";"1";"1";"3";"1";"[1,2,3,39]";"2";"0";"1"
"225";"12";"6";"1";"9";"1";"1";"3";"2";"[1,2,3,10]";"2";"0";"1"
"226";"24";"7";"1";"17";"1";"1";"3";"1";"[1,2,3,18]";"1";"0";"1"
"227";"33";"7";"1";"7";"1";"1";"3";"1";"[1,2,3,8]";"1";"0";"1"
"228";"29";"7";"1";"24";"1";"1";"3";"1";"[1,2,3,25]";"1";"0";"1"
"229";"28";"7";"1";"1";"1";"1";"3";"2";"[2,3]";"1";"0";"1"
"230";"35";"7";"1";"38";"1";"1";"3";"1";"[1,2,3,39]";"2";"0";"1"
"231";"3";"7";"1";"22";"1";"1";"3";"1";"[1,2,3,23]";"2";"0";"1"
"232";"7";"7";"1";"3";"1";"1";"3";"1";"[1,2,4]";"1";"0";"1"
"233";"24";"8";"1";"17";"1";"1";"3";"1";"[1,2,3,18]";"1";"0";"1"
"234";"33";"8";"1";"7";"1";"1";"3";"1";"[1,2,3,8]";"1";"0";"1"
"235";"29";"8";"1";"24";"1";"1";"3";"1";"[1,2,3,25]";"1";"0";"1"
"236";"28";"8";"1";"1";"1";"1";"3";"2";"[2,3]";"1";"0";"1"
"237";"3";"8";"1";"22";"1";"1";"3";"1";"[1,2,3,23]";"2";"0";"1"
"238";"7";"8";"1";"3";"1";"1";"3";"1";"[1,2,4]";"1";"0";"1"
"239";"2";"9";"1";"19";"1";"1";"3";"1";"[1,2,3,20]";"1";"0";"1"
"240";"38";"9";"1";"6";"1";"1";"3";"1";"[1,2,3,7]";"1";"0";"1"
"241";"2";"10";"1";"19";"1";"1";"3";"1";"[1,2,3,20]";"1";"0";"1"
"242";"38";"10";"1";"6";"1";"1";"3";"1";"[1,2,3,7]";"1";"0";"1"
"243";"13";"10";"1";"5";"1";"1";"3";"2";"[1,2,3,6]";"2";"0";"1"
"244";"21";"10";"1";"10";"1";"1";"3";"1";"[1,2,3,11]";"0";"1";"1"
"245";"13";"11";"1";"5";"1";"1";"3";"2";"[1,2,3,6]";"2";"0";"1"
"246";"37";"12";"1";"30";"1";"1";"3";"1";"[1,2,3,31]";"1";"0";"1"
"247";"21";"12";"1";"10";"1";"1";"3";"1";"[1,2,3,11]";"0";"2";"1"
"248";"37";"13";"1";"30";"1";"1";"3";"1";"[1,2,3,31]";"1";"0";"1"
"249";"21";"13";"1";"10";"1";"1";"3";"1";"[1,2,3,11]";"2";"2";"1"
"250";"34";"13";"1";"34";"1";"1";"3";"2";"[1,2,3,35]";"1";"0";"1"
"251";"35";"13";"1";"38";"1";"1";"3";"1";"[1,2,3,39]";"2";"6";"1"
"252";"16";"13";"1";"39";"1";"1";"3";"1";"[1,2,3,40]";"1";"0";"1"
"253";"21";"14";"1";"10";"1";"1";"3";"1";"[1,2,3,11]";"2";"2";"1"
"254";"34";"14";"1";"34";"1";"1";"3";"2";"[1,2,3,35]";"1";"0";"1"
"255";"16";"14";"1";"39";"1";"1";"3";"1";"[1,2,3,40]";"1";"0";"1"
"256";"11";"14";"1";"35";"1";"1";"3";"1";"[1,2,3,36]";"1";"0";"1"
"257";"10";"14";"1";"15";"1";"1";"3";"2";"[1,2,3,16]";"2";"0";"1"
"258";"5";"14";"1";"26";"1";"1";"3";"1";"[1,2,3,27]";"1";"0";"1"
"259";"11";"15";"1";"35";"1";"1";"3";"1";"[1,2,3,36]";"1";"0";"1"
"260";"10";"15";"1";"15";"1";"1";"3";"2";"[1,2,3,16]";"2";"0";"1"
"261";"5";"15";"1";"26";"1";"1";"3";"1";"[1,2,3,27]";"1";"0";"1"
"262";"14";"16";"1";"29";"1";"1";"3";"1";"[1,2,3,30]";"1";"0";"1"
"263";"31";"16";"1";"36";"1";"1";"3";"1";"[1,2,3,37]";"1";"0";"1"
"264";"39";"16";"1";"4";"1";"1";"3";"1";"[1,2,3,5]";"2";"0";"1"
"265";"14";"17";"1";"29";"1";"1";"3";"1";"[1,2,3,30]";"1";"0";"1"
"266";"36";"17";"1";"25";"1";"1";"3";"1";"[1,2,3,26]";"1";"1";"1"
"267";"8";"17";"1";"40";"1";"1";"3";"1";"[1,2,3]";"1";"0";"1"
"268";"31";"17";"1";"36";"1";"1";"3";"1";"[1,2,3,37]";"1";"0";"1"
"269";"22";"17";"1";"14";"1";"1";"3";"1";"[1,2,3,15]";"1";"0";"1"
"270";"39";"18";"1";"4";"1";"1";"3";"1";"[1,2,3,5]";"2";"0";"1"
"271";"23";"18";"1";"37";"1";"1";"3";"2";"[1,2,3,38]";"2";"0";"1"
"272";"8";"18";"1";"40";"1";"1";"3";"1";"[1,2,3]";"1";"0";"1"
"273";"22";"18";"1";"14";"1";"1";"3";"1";"[1,2,3,15]";"1";"0";"1"
"274";"23";"19";"1";"37";"1";"1";"3";"2";"[1,2,3,38]";"2";"0";"1"
"275";"36";"19";"1";"25";"1";"1";"3";"1";"[1,2,3,26]";"1";"2";"1"
"276";"36";"20";"1";"25";"1";"1";"3";"1";"[1,2,3,26]";"1";"3";"1"
"277";"31";"21";"1";"36";"1";"1";"3";"1";"[1,2,3,37]";"1";"1";"1"
"278";"9";"21";"1";"21";"1";"1";"3";"2";"[1,2,3,22]";"1";"1";"1"
"279";"31";"22";"1";"36";"1";"1";"3";"1";"[1,2,3,37]";"1";"2";"1"
"280";"9";"22";"1";"21";"1";"1";"3";"2";"[1,2,3,22]";"1";"2";"1"
"281";"9";"23";"1";"21";"1";"1";"3";"2";"[1,2,3,22]";"1";"1";"1"
"282";"4";"24";"1";"16";"1";"1";"3";"2";"[1,2,3,17]";"1";"0";"1"
"283";"27";"24";"1";"18";"1";"1";"3";"2";"[1,2,3,19]";"1";"0";"1"
"284";"1";"25";"1";"11";"1";"1";"3";"1";"[1,2,3,12]";"1";"0";"1"
"285";"4";"25";"1";"16";"1";"1";"3";"2";"[1,2,3,17]";"1";"0";"1"
"286";"27";"25";"1";"18";"1";"1";"3";"2";"[1,2,3,19]";"1";"0";"1"
"287";"9";"25";"1";"21";"1";"1";"3";"2";"[1,2,3,22]";"1";"2";"1"
"288";"19";"25";"1";"12";"1";"1";"3";"1";"[1,2,3,13]";"1";"0";"1"
"289";"1";"26";"1";"11";"1";"1";"3";"1";"[1,2,3,12]";"1";"0";"1"
"290";"19";"26";"1";"12";"1";"1";"3";"1";"[1,2,3,13]";"1";"0";"1"
"291";"3";"27";"1";"22";"1";"1";"3";"1";"[1,2,3,23]";"2";"1";"1"
"292";"9";"27";"1";"21";"1";"1";"3";"2";"[1,2,3,22]";"1";"1";"1"
"293";"3";"28";"1";"22";"1";"1";"3";"1";"[1,2,3,23]";"2";"2";"1"
"294";"9";"28";"1";"21";"1";"1";"3";"2";"[1,2,3,22]";"1";"2";"1"
"295";"6";"29";"1";"2";"1";"1";"3";"1";"[1,3]";"1";"0";"1"
"296";"9";"29";"1";"21";"1";"1";"3";"2";"[1,2,3,22]";"1";"1";"1"
"297";"6";"30";"1";"2";"1";"1";"3";"1";"[1,3]";"1";"0";"1"
"298";"3";"2";"1";"22";"1";"1";"4";"1";"[1,2,3,23]";"1";"0";"1"
"299";"17";"2";"1";"20";"1";"1";"4";"1";"[1,2,3,21]";"1";"0";"1"
"300";"36";"2";"1";"25";"1";"1";"4";"1";"[1,2,3,26]";"1";"0";"1"
"301";"20";"2";"1";"13";"1";"1";"4";"1";"[1,2,3,14]";"1";"0";"1"
"302";"37";"2";"1";"30";"1";"1";"4";"1";"[1,2,3,31]";"1";"0";"1"
"303";"30";"2";"1";"8";"1";"1";"4";"1";"[1,2,3,9]";"1";"0";"1"
"304";"15";"2";"1";"33";"1";"1";"4";"1";"[1,2,3,34]";"1";"0";"1"
"305";"35";"2";"1";"38";"1";"1";"4";"1";"[1,2,3,39]";"1";"0";"1"
"306";"3";"3";"1";"22";"1";"1";"4";"1";"[1,2,3,23]";"1";"0";"1"
"307";"18";"3";"1";"32";"1";"1";"4";"1";"[1,2,3,33]";"1";"0";"1"
"308";"32";"3";"1";"28";"1";"1";"4";"1";"[1,2,3,29]";"1";"0";"1"
"309";"7";"3";"1";"3";"1";"1";"4";"1";"[1,2,4]";"1";"0";"1"
"310";"17";"3";"1";"20";"1";"1";"4";"1";"[1,2,3,21]";"1";"0";"1"
"311";"25";"3";"1";"27";"1";"1";"4";"1";"[1,2,3,28]";"1";"0";"1"
"312";"36";"3";"1";"25";"1";"1";"4";"1";"[1,2,3,26]";"1";"0";"1"
"313";"20";"3";"1";"13";"1";"1";"4";"1";"[1,2,3,14]";"1";"0";"1"
"314";"37";"3";"1";"30";"1";"1";"4";"1";"[1,2,3,31]";"1";"0";"1"
"315";"30";"3";"1";"8";"1";"1";"4";"1";"[1,2,3,9]";"1";"0";"1"
"316";"11";"3";"1";"35";"1";"1";"4";"1";"[1,2,3,36]";"1";"0";"1"
"317";"2";"3";"1";"19";"1";"1";"4";"1";"[1,2,3,20]";"1";"0";"1"
"318";"12";"3";"1";"9";"1";"1";"4";"2";"[1,2,3,10]";"1";"0";"1"
"319";"15";"3";"1";"33";"1";"1";"4";"1";"[1,2,3,34]";"1";"0";"1"
"320";"35";"3";"1";"38";"1";"1";"4";"1";"[1,2,3,39]";"1";"0";"1"
"321";"18";"4";"1";"32";"1";"1";"4";"1";"[1,2,3,33]";"1";"0";"1"
"322";"32";"4";"1";"28";"1";"1";"4";"1";"[1,2,3,29]";"1";"0";"1"
"323";"7";"4";"1";"3";"1";"1";"4";"1";"[1,2,4]";"1";"0";"1"
"324";"25";"4";"1";"27";"1";"1";"4";"1";"[1,2,3,28]";"1";"0";"1"
"325";"11";"4";"1";"35";"1";"1";"4";"1";"[1,2,3,36]";"1";"0";"1"
"326";"2";"4";"1";"19";"1";"1";"4";"1";"[1,2,3,20]";"1";"0";"1"
"327";"12";"4";"1";"9";"1";"1";"4";"2";"[1,2,3,10]";"1";"0";"1"
"328";"26";"4";"1";"23";"1";"1";"4";"2";"[1,2,3,24]";"2";"0";"1"
"329";"6";"5";"1";"2";"1";"1";"4";"1";"[1,3]";"1";"0";"1"
"330";"31";"5";"1";"36";"1";"1";"4";"1";"[1,2,3,37]";"0";"2";"1"
"331";"24";"5";"1";"17";"1";"1";"4";"1";"[1,2,3,18]";"1";"0";"1"
"332";"5";"5";"1";"26";"1";"1";"4";"1";"[1,2,3,27]";"1";"0";"1"
"333";"38";"5";"1";"6";"1";"1";"4";"1";"[1,2,3,7]";"1";"0";"1"
"334";"14";"5";"1";"29";"1";"1";"4";"1";"[1,2,3,30]";"1";"0";"1"
"335";"26";"5";"1";"23";"1";"1";"4";"2";"[1,2,3,24]";"2";"0";"1"
"336";"40";"5";"1";"31";"1";"1";"4";"1";"[1,2,3,32]";"1";"0";"1"
"337";"6";"6";"1";"2";"1";"1";"4";"1";"[1,3]";"1";"0";"1"
"338";"9";"6";"1";"21";"1";"1";"4";"2";"[1,2,3,22]";"1";"0";"1"
"339";"24";"6";"1";"17";"1";"1";"4";"1";"[1,2,3,18]";"1";"0";"1"
"340";"29";"6";"1";"24";"1";"1";"4";"1";"[1,2,3,25]";"1";"0";"1"
"341";"5";"6";"1";"26";"1";"1";"4";"1";"[1,2,3,27]";"1";"0";"1"
"342";"38";"6";"1";"6";"1";"1";"4";"1";"[1,2,3,7]";"1";"0";"1"
"343";"14";"6";"1";"29";"1";"1";"4";"1";"[1,2,3,30]";"1";"0";"1"
"344";"40";"6";"1";"31";"1";"1";"4";"1";"[1,2,3,32]";"1";"0";"1"
"345";"31";"7";"1";"36";"1";"1";"4";"1";"[1,2,3,37]";"0";"1";"1"
"346";"22";"7";"1";"14";"1";"1";"4";"1";"[1,2,3,15]";"1";"0";"1"
"347";"1";"7";"1";"11";"1";"1";"4";"1";"[1,2,3,12]";"1";"0";"1"
"348";"21";"7";"1";"10";"1";"1";"4";"1";"[1,2,3,11]";"1";"0";"1"
"349";"9";"7";"1";"21";"1";"1";"4";"2";"[1,2,3,22]";"1";"0";"1"
"350";"29";"7";"1";"24";"1";"1";"4";"1";"[1,2,3,25]";"1";"0";"1"
"351";"1";"8";"1";"11";"1";"1";"4";"1";"[1,2,3,12]";"1";"0";"1"
"352";"22";"8";"1";"14";"1";"1";"4";"1";"[1,2,3,15]";"1";"0";"1"
"353";"21";"8";"1";"10";"1";"1";"4";"1";"[1,2,3,11]";"1";"0";"1"
"354";"31";"8";"1";"36";"1";"1";"4";"1";"[1,2,3,37]";"0";"2";"1"
"355";"39";"8";"1";"4";"1";"1";"4";"1";"[1,2,3,5]";"2";"0";"1"
"356";"28";"8";"1";"1";"1";"1";"4";"2";"[2,3]";"1";"0";"1"
"357";"8";"9";"1";"40";"1";"1";"4";"1";"[1,2,3]";"1";"0";"1"
"358";"39";"9";"1";"4";"1";"1";"4";"1";"[1,2,3,5]";"2";"0";"1"
"359";"28";"9";"1";"1";"1";"1";"4";"2";"[2,3]";"1";"0";"1"
"360";"31";"9";"1";"36";"1";"1";"4";"1";"[1,2,3,37]";"0";"3";"1"
"361";"8";"10";"1";"40";"1";"1";"4";"1";"[1,2,3]";"1";"0";"1"
"362";"16";"11";"1";"39";"1";"1";"4";"1";"[1,2,3,40]";"1";"0";"1"
"363";"31";"12";"1";"36";"1";"1";"4";"1";"[1,2,3,37]";"1";"3";"1"
"364";"16";"12";"1";"39";"1";"1";"4";"1";"[1,2,3,40]";"1";"0";"1"
"365";"34";"13";"1";"34";"1";"1";"4";"2";"[1,2,3,35]";"1";"0";"1"
"366";"31";"13";"1";"36";"1";"1";"4";"1";"[1,2,3,37]";"1";"3";"1"
"367";"34";"14";"1";"34";"1";"1";"4";"2";"[1,2,3,35]";"1";"0";"1"
"368";"23";"14";"1";"37";"1";"1";"4";"2";"[1,2,3,38]";"1";"0";"1"
"369";"23";"15";"1";"37";"1";"1";"4";"2";"[1,2,3,38]";"1";"0";"1"
"370";"33";"16";"1";"7";"1";"1";"4";"1";"[1,2,3,8]";"1";"0";"1"
"371";"13";"16";"1";"5";"1";"1";"4";"2";"[1,2,3,6]";"2";"0";"1"
"372";"19";"16";"1";"12";"1";"1";"4";"1";"[1,2,3,13]";"1";"0";"1"
"373";"10";"16";"1";"15";"1";"1";"4";"2";"[1,2,3,16]";"1";"0";"1"
"374";"33";"17";"1";"7";"1";"1";"4";"1";"[1,2,3,8]";"1";"0";"1"
"375";"4";"17";"1";"16";"1";"1";"4";"2";"[1,2,3,17]";"1";"0";"1"
"376";"13";"17";"1";"5";"1";"1";"4";"2";"[1,2,3,6]";"2";"0";"1"
"377";"19";"17";"1";"12";"1";"1";"4";"1";"[1,2,3,13]";"1";"0";"1"
"378";"10";"17";"1";"15";"1";"1";"4";"2";"[1,2,3,16]";"1";"0";"1"
"379";"4";"18";"1";"16";"1";"1";"4";"2";"[1,2,3,17]";"1";"0";"1"
"380";"3";"21";"1";"22";"1";"1";"4";"1";"[1,2,3,23]";"1";"4";"1"
"381";"27";"22";"1";"18";"1";"1";"4";"2";"[1,2,3,19]";"1";"0";"1"
"382";"27";"23";"1";"18";"1";"1";"4";"2";"[1,2,3,19]";"1";"0";"1"
"383";"19";"2";"1";"12";"1";"1";"5";"1";"[1,2,3,13]";"0";"2";"1"
"384";"32";"2";"1";"28";"1";"1";"5";"1";"[1,2,3,29]";"1";"0";"1"
"385";"18";"2";"1";"32";"1";"1";"5";"1";"[1,2,3,33]";"1";"0";"1"
"386";"38";"2";"1";"6";"1";"1";"5";"1";"[1,2,3,7]";"1";"0";"1"
"387";"20";"2";"1";"13";"1";"1";"5";"1";"[1,2,3,14]";"1";"0";"1"
"388";"15";"2";"1";"33";"1";"1";"5";"1";"[1,2,3,34]";"1";"0";"1"
"389";"19";"2";"1";"12";"1";"1";"5";"1";"[1,2,3,13]";"0";"1";"1"
"390";"17";"2";"1";"20";"1";"1";"5";"1";"[1,2,3,21]";"1";"0";"1"
"391";"7";"2";"1";"3";"1";"1";"5";"1";"[1,2,4]";"1";"0";"1"
"392";"31";"2";"1";"36";"1";"1";"5";"1";"[1,2,3,37]";"1";"0";"1"
"393";"36";"3";"1";"25";"1";"1";"5";"1";"[1,2,3,26]";"1";"0";"1"
"394";"6";"3";"1";"2";"1";"1";"5";"1";"[1,3]";"0";"3";"1"
"395";"26";"3";"1";"23";"1";"1";"5";"2";"[1,2,3,24]";"2";"0";"1"
"396";"19";"3";"1";"12";"1";"1";"5";"1";"[1,2,3,13]";"0";"2";"1"
"397";"11";"3";"1";"35";"1";"1";"5";"1";"[1,2,3,36]";"1";"0";"1"
"398";"18";"3";"1";"32";"1";"1";"5";"1";"[1,2,3,33]";"1";"0";"1"
"399";"32";"3";"1";"28";"1";"1";"5";"1";"[1,2,3,29]";"1";"0";"1"
"400";"38";"3";"1";"6";"1";"1";"5";"1";"[1,2,3,7]";"1";"0";"1"
"401";"20";"3";"1";"13";"1";"1";"5";"1";"[1,2,3,14]";"1";"0";"1"
"402";"30";"3";"1";"8";"1";"1";"5";"1";"[1,2,3,9]";"1";"0";"1"
"403";"15";"3";"1";"33";"1";"1";"5";"1";"[1,2,3,34]";"1";"0";"1"
"404";"17";"3";"1";"20";"1";"1";"5";"1";"[1,2,3,21]";"1";"0";"1"
"405";"7";"3";"1";"3";"1";"1";"5";"1";"[1,2,4]";"1";"0";"1"
"406";"6";"3";"1";"2";"1";"1";"5";"1";"[1,3]";"0";"2";"1"
"407";"19";"3";"1";"12";"1";"1";"5";"1";"[1,2,3,13]";"0";"3";"1"
"408";"31";"3";"1";"36";"1";"1";"5";"1";"[1,2,3,37]";"1";"0";"1"
"409";"36";"4";"1";"25";"1";"1";"5";"1";"[1,2,3,26]";"1";"0";"1"
"410";"26";"4";"1";"23";"1";"1";"5";"2";"[1,2,3,24]";"2";"0";"1"
"411";"12";"4";"1";"9";"1";"1";"5";"2";"[1,2,3,10]";"2";"0";"1"
"412";"11";"4";"1";"35";"1";"1";"5";"1";"[1,2,3,36]";"1";"0";"1"
"413";"33";"4";"1";"7";"1";"1";"5";"1";"[1,2,3,8]";"2";"0";"1"
"414";"39";"4";"1";"4";"1";"1";"5";"1";"[1,2,3,5]";"2";"0";"1"
"415";"30";"4";"1";"8";"1";"1";"5";"1";"[1,2,3,9]";"1";"0";"1"
"416";"40";"4";"1";"31";"1";"1";"5";"1";"[1,2,3,32]";"1";"0";"1"
"417";"37";"4";"1";"30";"1";"1";"5";"1";"[1,2,3,31]";"1";"0";"1"
"418";"9";"4";"1";"21";"1";"1";"5";"2";"[1,2,3,22]";"1";"0";"1"
"419";"3";"4";"1";"22";"1";"1";"5";"1";"[1,2,3,23]";"1";"0";"1"
"420";"19";"5";"1";"12";"1";"1";"5";"1";"[1,2,3,13]";"0";"4";"1"
"421";"12";"5";"1";"9";"1";"1";"5";"2";"[1,2,3,10]";"2";"0";"1"
"422";"5";"5";"1";"26";"1";"1";"5";"1";"[1,2,3,27]";"1";"0";"1"
"423";"6";"5";"1";"2";"1";"1";"5";"1";"[1,3]";"0";"1";"1"
"424";"22";"5";"1";"14";"1";"1";"5";"1";"[1,2,3,15]";"1";"0";"1"
"425";"33";"5";"1";"7";"1";"1";"5";"1";"[1,2,3,8]";"2";"0";"1"
"426";"39";"5";"1";"4";"1";"1";"5";"1";"[1,2,3,5]";"2";"0";"1"
"427";"40";"5";"1";"31";"1";"1";"5";"1";"[1,2,3,32]";"1";"0";"1"
"428";"1";"5";"1";"11";"1";"1";"5";"1";"[1,2,3,12]";"1";"0";"1"
"429";"19";"5";"1";"12";"1";"1";"5";"1";"[1,2,3,13]";"0";"5";"1"
"430";"37";"5";"1";"30";"1";"1";"5";"1";"[1,2,3,31]";"1";"0";"1"
"431";"6";"5";"1";"2";"1";"1";"5";"1";"[1,3]";"0";"3";"1"
"432";"9";"5";"1";"21";"1";"1";"5";"2";"[1,2,3,22]";"1";"0";"1"
"433";"3";"5";"1";"22";"1";"1";"5";"1";"[1,2,3,23]";"1";"0";"1"
"434";"2";"6";"1";"19";"1";"1";"5";"1";"[1,2,3,20]";"1";"0";"1"
"435";"5";"6";"1";"26";"1";"1";"5";"1";"[1,2,3,27]";"1";"0";"1"
"436";"25";"6";"1";"27";"1";"1";"5";"1";"[1,2,3,28]";"1";"0";"1"
"437";"22";"6";"1";"14";"1";"1";"5";"1";"[1,2,3,15]";"1";"0";"1"
"438";"6";"6";"1";"2";"1";"1";"5";"1";"[1,3]";"0";"4";"1"
"439";"35";"6";"1";"38";"1";"1";"5";"1";"[1,2,3,39]";"2";"0";"1"
"440";"24";"6";"1";"17";"1";"1";"5";"1";"[1,2,3,18]";"1";"0";"1"
"441";"1";"6";"1";"11";"1";"1";"5";"1";"[1,2,3,12]";"1";"0";"1"
"442";"29";"6";"1";"24";"1";"1";"5";"1";"[1,2,3,25]";"1";"0";"1"
"443";"2";"7";"1";"19";"1";"1";"5";"1";"[1,2,3,20]";"1";"0";"1"
"444";"25";"7";"1";"27";"1";"1";"5";"1";"[1,2,3,28]";"1";"0";"1"
"445";"6";"7";"1";"2";"1";"1";"5";"1";"[1,3]";"0";"5";"1"
"446";"35";"7";"1";"38";"1";"1";"5";"1";"[1,2,3,39]";"2";"0";"1"
"447";"24";"7";"1";"17";"1";"1";"5";"1";"[1,2,3,18]";"1";"0";"1"
"448";"14";"7";"1";"29";"1";"1";"5";"1";"[1,2,3,30]";"1";"0";"1"
"449";"29";"7";"1";"24";"1";"1";"5";"1";"[1,2,3,25]";"1";"0";"1"
"450";"14";"8";"1";"29";"1";"1";"5";"1";"[1,2,3,30]";"1";"0";"1"
"451";"6";"10";"1";"2";"1";"1";"5";"1";"[1,3]";"1";"5";"1"
"452";"34";"10";"1";"34";"1";"1";"5";"2";"[1,2,3,35]";"1";"0";"1"
"453";"21";"10";"1";"10";"1";"1";"5";"1";"[1,2,3,11]";"2";"0";"1"
"454";"23";"11";"1";"37";"1";"1";"5";"2";"[1,2,3,38]";"1";"0";"1"
"455";"6";"11";"1";"2";"1";"1";"5";"1";"[1,3]";"1";"5";"1"
"456";"34";"11";"1";"34";"1";"1";"5";"2";"[1,2,3,35]";"1";"0";"1"
"457";"21";"11";"1";"10";"1";"1";"5";"1";"[1,2,3,11]";"2";"0";"1"
"458";"23";"12";"1";"37";"1";"1";"5";"2";"[1,2,3,38]";"1";"0";"1"
"459";"8";"12";"1";"40";"1";"1";"5";"1";"[1,2,3]";"1";"0";"1"
"460";"4";"12";"1";"16";"1";"1";"5";"2";"[1,2,3,17]";"1";"0";"1"
"461";"8";"13";"1";"40";"1";"1";"5";"1";"[1,2,3]";"1";"0";"1"
"462";"4";"13";"1";"16";"1";"1";"5";"2";"[1,2,3,17]";"1";"0";"1"
"463";"16";"13";"1";"39";"1";"1";"5";"1";"[1,2,3,40]";"1";"0";"1"
"464";"16";"14";"1";"39";"1";"1";"5";"1";"[1,2,3,40]";"1";"0";"1"
"465";"13";"18";"1";"5";"1";"1";"5";"2";"[1,2,3,6]";"1";"0";"1"
"466";"13";"19";"1";"5";"1";"1";"5";"2";"[1,2,3,6]";"1";"0";"1"
"467";"28";"21";"1";"1";"1";"1";"5";"2";"[2,3]";"2";"0";"1"
"468";"28";"22";"1";"1";"1";"1";"5";"2";"[2,3]";"2";"0";"1"
"469";"10";"22";"1";"15";"1";"1";"5";"2";"[1,2,3,16]";"1";"0";"1"
"470";"19";"23";"1";"12";"1";"1";"5";"1";"[1,2,3,13]";"1";"5";"1"
"471";"10";"23";"1";"15";"1";"1";"5";"2";"[1,2,3,16]";"1";"0";"1"
"472";"19";"24";"1";"12";"1";"1";"5";"1";"[1,2,3,13]";"1";"5";"1"
"473";"36";"24";"1";"25";"1";"1";"5";"1";"[1,2,3,26]";"1";"3";"1"
"474";"36";"26";"1";"25";"1";"1";"5";"1";"[1,2,3,26]";"1";"2";"1"
"475";"36";"28";"1";"25";"1";"1";"5";"1";"[1,2,3,26]";"1";"1";"1"
"476";"27";"28";"1";"18";"1";"1";"5";"2";"[1,2,3,19]";"1";"0";"1"
"477";"27";"29";"1";"18";"1";"1";"5";"2";"[1,2,3,19]";"1";"0";"1"
"478";"20";"2";"1";"13";"1";"1";"6";"1";"[1,2,3,14]";"1";"0";"1"
"479";"12";"2";"1";"9";"1";"1";"6";"2";"[1,2,3,10]";"2";"0";"1"
"480";"35";"2";"1";"38";"1";"1";"6";"1";"[1,2,3,39]";"2";"0";"1"
"481";"36";"2";"1";"25";"1";"1";"6";"1";"[1,2,3,26]";"0";"6";"1"
"482";"32";"3";"1";"28";"1";"1";"6";"1";"[1,2,3,29]";"1";"0";"1"
"483";"20";"3";"1";"13";"1";"1";"6";"1";"[1,2,3,14]";"1";"0";"1"
"484";"12";"3";"1";"9";"1";"1";"6";"2";"[1,2,3,10]";"2";"0";"1"
"485";"35";"3";"1";"38";"1";"1";"6";"1";"[1,2,3,39]";"2";"0";"1"
"486";"3";"3";"1";"22";"1";"1";"6";"1";"[1,2,3,23]";"2";"0";"1"
"487";"9";"3";"1";"21";"1";"1";"6";"2";"[1,2,3,22]";"1";"0";"1"
"488";"32";"4";"1";"28";"1";"1";"6";"1";"[1,2,3,29]";"1";"0";"1"
"489";"26";"4";"1";"23";"1";"1";"6";"2";"[1,2,3,24]";"2";"0";"1"
"490";"3";"4";"1";"22";"1";"1";"6";"1";"[1,2,3,23]";"2";"0";"1"
"491";"9";"4";"1";"21";"1";"1";"6";"2";"[1,2,3,22]";"1";"0";"1"
"492";"36";"4";"1";"25";"1";"1";"6";"1";"[1,2,3,26]";"1";"6";"1"
"493";"40";"4";"1";"31";"1";"1";"6";"1";"[1,2,3,32]";"1";"0";"1"
"494";"14";"5";"1";"29";"1";"1";"6";"1";"[1,2,3,30]";"1";"0";"1"
"495";"17";"5";"1";"20";"1";"1";"6";"1";"[1,2,3,21]";"1";"0";"1"
"496";"15";"5";"1";"33";"1";"1";"6";"1";"[1,2,3,34]";"1";"0";"1"
"497";"30";"5";"1";"8";"1";"1";"6";"1";"[1,2,3,9]";"1";"0";"1"
"498";"18";"5";"1";"32";"1";"1";"6";"1";"[1,2,3,33]";"1";"0";"1"
"499";"26";"5";"1";"23";"1";"1";"6";"2";"[1,2,3,24]";"2";"0";"1"
"500";"36";"5";"1";"25";"1";"1";"6";"1";"[1,2,3,26]";"1";"6";"1"
"501";"39";"5";"1";"4";"1";"1";"6";"1";"[1,2,3,5]";"1";"0";"1"
"502";"40";"5";"1";"31";"1";"1";"6";"1";"[1,2,3,32]";"1";"0";"1"
"503";"25";"5";"1";"27";"1";"1";"6";"1";"[1,2,3,28]";"1";"0";"1"
"504";"14";"6";"1";"29";"1";"1";"6";"1";"[1,2,3,30]";"1";"0";"1"
"505";"17";"6";"1";"20";"1";"1";"6";"1";"[1,2,3,21]";"1";"0";"1"
"506";"15";"6";"1";"33";"1";"1";"6";"1";"[1,2,3,34]";"1";"0";"1"
"507";"2";"6";"1";"19";"1";"1";"6";"1";"[1,2,3,20]";"1";"0";"1"
"508";"18";"6";"1";"32";"1";"1";"6";"1";"[1,2,3,33]";"1";"0";"1"
"509";"30";"6";"1";"8";"1";"1";"6";"1";"[1,2,3,9]";"1";"0";"1"
"510";"28";"6";"1";"1";"1";"1";"6";"2";"[2,3]";"1";"0";"1"
"511";"39";"6";"1";"4";"1";"1";"6";"1";"[1,2,3,5]";"1";"0";"1"
"512";"25";"6";"1";"27";"1";"1";"6";"1";"[1,2,3,28]";"1";"0";"1"
"513";"31";"6";"1";"36";"1";"1";"6";"1";"[1,2,3,37]";"0";"4";"1"
"514";"2";"7";"1";"19";"1";"1";"6";"1";"[1,2,3,20]";"1";"0";"1"
"515";"5";"7";"1";"26";"1";"1";"6";"1";"[1,2,3,27]";"1";"0";"1"
"516";"28";"7";"1";"1";"1";"1";"6";"2";"[2,3]";"1";"0";"1"
"517";"31";"7";"1";"36";"1";"1";"6";"1";"[1,2,3,37]";"0";"3";"1"
"518";"33";"7";"1";"7";"1";"1";"6";"1";"[1,2,3,8]";"1";"0";"1"
"519";"29";"8";"1";"24";"1";"1";"6";"1";"[1,2,3,25]";"1";"0";"1"
"520";"1";"8";"1";"11";"1";"1";"6";"1";"[1,2,3,12]";"1";"0";"1"
"521";"5";"8";"1";"26";"1";"1";"6";"1";"[1,2,3,27]";"1";"0";"1"
"522";"31";"8";"1";"36";"1";"1";"6";"1";"[1,2,3,37]";"0";"2";"1"
"523";"33";"8";"1";"7";"1";"1";"6";"1";"[1,2,3,8]";"1";"0";"1"
"524";"37";"9";"1";"30";"1";"1";"6";"1";"[1,2,3,31]";"1";"0";"1"
"525";"29";"9";"1";"24";"1";"1";"6";"1";"[1,2,3,25]";"1";"0";"1"
"526";"1";"9";"1";"11";"1";"1";"6";"1";"[1,2,3,12]";"1";"0";"1"
"527";"21";"9";"1";"10";"1";"1";"6";"1";"[1,2,3,11]";"2";"0";"1"
"528";"31";"9";"1";"36";"1";"1";"6";"1";"[1,2,3,37]";"0";"1";"1"
"529";"7";"9";"1";"3";"1";"1";"6";"1";"[1,2,4]";"1";"0";"1"
"530";"37";"10";"1";"30";"1";"1";"6";"1";"[1,2,3,31]";"1";"0";"1"
"531";"31";"10";"1";"36";"1";"1";"6";"1";"[1,2,3,37]";"0";"2";"1"
"532";"21";"10";"1";"10";"1";"1";"6";"1";"[1,2,3,11]";"2";"0";"1"
"533";"31";"10";"1";"36";"1";"1";"6";"1";"[1,2,3,37]";"0";"4";"1"
"534";"7";"10";"1";"3";"1";"1";"6";"1";"[1,2,4]";"1";"0";"1"
"535";"31";"11";"1";"36";"1";"1";"6";"1";"[1,2,3,37]";"0";"5";"1"
"536";"13";"12";"1";"5";"1";"1";"6";"2";"[1,2,3,6]";"1";"0";"1"
"537";"31";"12";"1";"36";"1";"1";"6";"1";"[1,2,3,37]";"0";"6";"1"
"538";"16";"13";"1";"39";"1";"1";"6";"1";"[1,2,3,40]";"2";"0";"1"
"539";"13";"13";"1";"5";"1";"1";"6";"2";"[1,2,3,6]";"1";"0";"1"
"540";"34";"13";"1";"34";"1";"1";"6";"2";"[1,2,3,35]";"1";"0";"1"
"541";"16";"14";"1";"39";"1";"1";"6";"1";"[1,2,3,40]";"2";"0";"1"
"542";"31";"14";"1";"36";"1";"1";"6";"1";"[1,2,3,37]";"1";"6";"1"
"543";"34";"14";"1";"34";"1";"1";"6";"2";"[1,2,3,35]";"1";"0";"1"
"544";"11";"14";"1";"35";"1";"1";"6";"1";"[1,2,3,36]";"1";"0";"1"
"545";"9";"14";"1";"21";"1";"1";"6";"2";"[1,2,3,22]";"1";"1";"1"
"546";"38";"15";"1";"6";"1";"1";"6";"1";"[1,2,3,7]";"1";"0";"1"
"547";"31";"15";"1";"36";"1";"1";"6";"1";"[1,2,3,37]";"1";"6";"1"
"548";"11";"15";"1";"35";"1";"1";"6";"1";"[1,2,3,36]";"1";"0";"1"
"549";"9";"15";"1";"21";"1";"1";"6";"2";"[1,2,3,22]";"1";"2";"1"
"550";"38";"16";"1";"6";"1";"1";"6";"1";"[1,2,3,7]";"1";"0";"1"
"551";"8";"16";"1";"40";"1";"1";"6";"1";"[1,2,3]";"1";"0";"1"
"552";"22";"16";"1";"14";"1";"1";"6";"1";"[1,2,3,15]";"1";"0";"1"
"553";"24";"16";"1";"17";"1";"1";"6";"1";"[1,2,3,18]";"1";"0";"1"
"554";"9";"17";"1";"21";"1";"1";"6";"2";"[1,2,3,22]";"1";"3";"1"
"555";"8";"17";"1";"40";"1";"1";"6";"1";"[1,2,3]";"1";"0";"1"
"556";"22";"17";"1";"14";"1";"1";"6";"1";"[1,2,3,15]";"1";"0";"1"
"557";"24";"17";"1";"17";"1";"1";"6";"1";"[1,2,3,18]";"1";"0";"1"
"558";"27";"18";"1";"18";"1";"1";"6";"2";"[1,2,3,19]";"1";"0";"1"
"559";"9";"18";"1";"21";"1";"1";"6";"2";"[1,2,3,22]";"1";"4";"1"
"560";"27";"19";"1";"18";"1";"1";"6";"2";"[1,2,3,19]";"1";"0";"1"
"561";"9";"19";"1";"21";"1";"1";"6";"2";"[1,2,3,22]";"1";"5";"1"
"562";"6";"19";"1";"2";"1";"1";"6";"1";"[1,3]";"1";"0";"1"
"563";"6";"20";"1";"2";"1";"1";"6";"1";"[1,3]";"1";"0";"1"
"564";"23";"23";"1";"37";"1";"1";"6";"2";"[1,2,3,38]";"2";"0";"1"
"565";"23";"24";"1";"37";"1";"1";"6";"2";"[1,2,3,38]";"2";"0";"1"
"566";"10";"25";"1";"15";"1";"1";"6";"2";"[1,2,3,16]";"2";"0";"1"
"567";"4";"26";"1";"16";"1";"1";"6";"2";"[1,2,3,17]";"1";"0";"1"
"568";"19";"26";"1";"12";"1";"1";"6";"1";"[1,2,3,13]";"1";"0";"1"
"569";"10";"26";"1";"15";"1";"1";"6";"2";"[1,2,3,16]";"2";"0";"1"
"570";"4";"27";"1";"16";"1";"1";"6";"2";"[1,2,3,17]";"1";"0";"1"
"571";"19";"27";"1";"12";"1";"1";"6";"1";"[1,2,3,13]";"1";"0";"1"
"572";"12";"1";"1";"9";"1";"1";"7";"2";"[1,2,3,10]";"2";"0";"1"
"573";"20";"1";"1";"13";"1";"1";"7";"1";"[1,2,3,14]";"1";"0";"1"
"574";"32";"1";"1";"28";"1";"1";"7";"1";"[1,2,3,29]";"1";"0";"1"
"575";"35";"1";"1";"38";"1";"1";"7";"1";"[1,2,3,39]";"2";"0";"1"
"576";"12";"2";"1";"9";"1";"1";"7";"2";"[1,2,3,10]";"2";"0";"1"
"577";"36";"2";"1";"25";"1";"1";"7";"1";"[1,2,3,26]";"1";"0";"1"
"578";"20";"2";"1";"13";"1";"1";"7";"1";"[1,2,3,14]";"1";"0";"1"
"579";"30";"2";"1";"8";"1";"1";"7";"1";"[1,2,3,9]";"1";"0";"1"
"580";"7";"2";"1";"3";"1";"1";"7";"1";"[1,2,4]";"1";"0";"1"
"581";"3";"2";"1";"22";"1";"1";"7";"1";"[1,2,3,23]";"1";"0";"1"
"582";"32";"2";"1";"28";"1";"1";"7";"1";"[1,2,3,29]";"1";"0";"1"
"583";"15";"2";"1";"33";"1";"1";"7";"1";"[1,2,3,34]";"1";"0";"1"
"584";"35";"2";"1";"38";"1";"1";"7";"1";"[1,2,3,39]";"2";"0";"1"
"585";"10";"3";"1";"15";"1";"1";"7";"2";"[1,2,3,16]";"1";"0";"1"
"586";"18";"3";"1";"32";"1";"1";"7";"1";"[1,2,3,33]";"1";"0";"1"
"587";"31";"3";"1";"36";"1";"1";"7";"1";"[1,2,3,37]";"1";"0";"1"
"588";"36";"3";"1";"25";"1";"1";"7";"1";"[1,2,3,26]";"1";"0";"1"
"589";"11";"3";"1";"35";"1";"1";"7";"1";"[1,2,3,36]";"1";"0";"1"
"590";"30";"3";"1";"8";"1";"1";"7";"1";"[1,2,3,9]";"1";"0";"1"
"591";"7";"3";"1";"3";"1";"1";"7";"1";"[1,2,4]";"1";"0";"1"
"592";"3";"3";"1";"22";"1";"1";"7";"1";"[1,2,3,23]";"1";"0";"1"
"593";"15";"3";"1";"33";"1";"1";"7";"1";"[1,2,3,34]";"1";"0";"1"
"594";"10";"4";"1";"15";"1";"1";"7";"2";"[1,2,3,16]";"1";"0";"1"
"595";"5";"4";"1";"26";"1";"1";"7";"1";"[1,2,3,27]";"1";"0";"1"
"596";"18";"4";"1";"32";"1";"1";"7";"1";"[1,2,3,33]";"1";"0";"1"
"597";"31";"4";"1";"36";"1";"1";"7";"1";"[1,2,3,37]";"1";"0";"1"
"598";"1";"4";"1";"11";"1";"1";"7";"1";"[1,2,3,12]";"1";"0";"1"
"599";"38";"4";"1";"6";"1";"1";"7";"1";"[1,2,3,7]";"1";"0";"1"
"600";"40";"4";"1";"31";"1";"1";"7";"1";"[1,2,3,32]";"1";"0";"1"
"601";"14";"4";"1";"29";"1";"1";"7";"1";"[1,2,3,30]";"1";"0";"1"
"602";"11";"4";"1";"35";"1";"1";"7";"1";"[1,2,3,36]";"1";"0";"1"
"603";"22";"4";"1";"14";"1";"1";"7";"1";"[1,2,3,15]";"1";"0";"1"
"604";"37";"4";"1";"30";"1";"1";"7";"1";"[1,2,3,31]";"1";"0";"1"
"605";"5";"5";"1";"26";"1";"1";"7";"1";"[1,2,3,27]";"1";"0";"1"
"606";"1";"5";"1";"11";"1";"1";"7";"1";"[1,2,3,12]";"1";"0";"1"
"607";"38";"5";"1";"6";"1";"1";"7";"1";"[1,2,3,7]";"1";"0";"1"
"608";"13";"5";"1";"5";"1";"1";"7";"2";"[1,2,3,6]";"2";"0";"1"
"609";"40";"5";"1";"31";"1";"1";"7";"1";"[1,2,3,32]";"1";"0";"1"
"610";"2";"5";"1";"19";"1";"1";"7";"1";"[1,2,3,20]";"1";"0";"1"
"611";"14";"5";"1";"29";"1";"1";"7";"1";"[1,2,3,30]";"1";"0";"1"
"612";"17";"5";"1";"20";"1";"1";"7";"1";"[1,2,3,21]";"1";"0";"1"
"613";"16";"5";"1";"39";"1";"1";"7";"1";"[1,2,3,40]";"1";"0";"1"
"614";"24";"5";"1";"17";"1";"1";"7";"1";"[1,2,3,18]";"1";"0";"1"
"615";"22";"5";"1";"14";"1";"1";"7";"1";"[1,2,3,15]";"1";"0";"1"
"616";"37";"5";"1";"30";"1";"1";"7";"1";"[1,2,3,31]";"1";"0";"1"
"617";"18";"5";"1";"32";"1";"1";"7";"1";"[1,2,3,33]";"1";"5";"1"
"618";"26";"5";"1";"23";"1";"1";"7";"2";"[1,2,3,24]";"2";"0";"1"
"619";"29";"6";"1";"24";"1";"1";"7";"1";"[1,2,3,25]";"1";"0";"1"
"620";"33";"6";"1";"7";"1";"1";"7";"1";"[1,2,3,8]";"1";"0";"1"
"621";"13";"6";"1";"5";"1";"1";"7";"2";"[1,2,3,6]";"2";"0";"1"
"622";"4";"6";"1";"16";"1";"1";"7";"2";"[1,2,3,17]";"1";"0";"1"
"623";"2";"6";"1";"19";"1";"1";"7";"1";"[1,2,3,20]";"1";"0";"1"
"624";"25";"6";"1";"27";"1";"1";"7";"1";"[1,2,3,28]";"1";"0";"1"
"625";"17";"6";"1";"20";"1";"1";"7";"1";"[1,2,3,21]";"1";"0";"1"
"626";"16";"6";"1";"39";"1";"1";"7";"1";"[1,2,3,40]";"1";"0";"1"
"627";"24";"6";"1";"17";"1";"1";"7";"1";"[1,2,3,18]";"1";"0";"1"
"628";"26";"6";"1";"23";"1";"1";"7";"2";"[1,2,3,24]";"2";"0";"1"
"629";"18";"7";"1";"32";"1";"1";"7";"1";"[1,2,3,33]";"1";"4";"1"
"630";"29";"7";"1";"24";"1";"1";"7";"1";"[1,2,3,25]";"1";"0";"1"
"631";"33";"7";"1";"7";"1";"1";"7";"1";"[1,2,3,8]";"1";"0";"1"
"632";"8";"7";"1";"40";"1";"1";"7";"1";"[1,2,3]";"1";"0";"1"
"633";"4";"7";"1";"16";"1";"1";"7";"2";"[1,2,3,17]";"1";"0";"1"
"634";"25";"7";"1";"27";"1";"1";"7";"1";"[1,2,3,28]";"1";"0";"1"
"635";"23";"7";"1";"37";"1";"1";"7";"2";"[1,2,3,38]";"1";"0";"1"
"636";"8";"8";"1";"40";"1";"1";"7";"1";"[1,2,3]";"1";"0";"1"
"637";"18";"8";"1";"32";"1";"1";"7";"1";"[1,2,3,33]";"1";"7";"1"
"638";"9";"8";"1";"21";"1";"1";"7";"2";"[1,2,3,22]";"1";"0";"1"
"639";"23";"8";"1";"37";"1";"1";"7";"2";"[1,2,3,38]";"1";"0";"1"
"640";"9";"9";"1";"21";"1";"1";"7";"2";"[1,2,3,22]";"1";"0";"1"
"641";"28";"9";"1";"1";"1";"1";"7";"2";"[2,3]";"1";"0";"1"
"642";"28";"10";"1";"1";"1";"1";"7";"2";"[2,3]";"1";"0";"1"
"643";"34";"12";"1";"34";"1";"1";"7";"2";"[1,2,3,35]";"1";"0";"1"
"644";"21";"13";"1";"10";"1";"1";"7";"1";"[1,2,3,11]";"1";"0";"1"
"645";"34";"13";"1";"34";"1";"1";"7";"2";"[1,2,3,35]";"1";"0";"1"
"646";"8";"13";"1";"40";"1";"1";"7";"1";"[1,2,3]";"1";"1";"1"
"647";"21";"14";"1";"10";"1";"1";"7";"1";"[1,2,3,11]";"1";"0";"1"
"648";"27";"15";"1";"18";"1";"1";"7";"2";"[1,2,3,19]";"2";"0";"1"
"649";"15";"15";"1";"33";"1";"1";"7";"1";"[1,2,3,34]";"1";"5";"1"
"650";"6";"15";"1";"2";"1";"1";"7";"1";"[1,3]";"1";"0";"1"
"651";"8";"15";"1";"40";"1";"1";"7";"1";"[1,2,3]";"1";"6";"1"
"652";"39";"16";"1";"4";"1";"1";"7";"1";"[1,2,3,5]";"2";"0";"1"
"653";"27";"16";"1";"18";"1";"1";"7";"2";"[1,2,3,19]";"2";"0";"1"
"654";"6";"16";"1";"2";"1";"1";"7";"1";"[1,3]";"1";"0";"1"
"655";"8";"16";"1";"40";"1";"1";"7";"1";"[1,2,3]";"1";"5";"1"
"656";"15";"16";"1";"33";"1";"1";"7";"1";"[1,2,3,34]";"1";"6";"1"
"657";"39";"17";"1";"4";"1";"1";"7";"1";"[1,2,3,5]";"2";"0";"1"
"658";"8";"17";"1";"40";"1";"1";"7";"1";"[1,2,3]";"1";"8";"1"
"659";"19";"29";"1";"12";"1";"1";"7";"1";"[1,2,3,13]";"1";"0";"1"
"660";"40";"30";"1";"31";"1";"1";"7";"1";"[1,2,3,32]";"1";"7";"1"
"661";"40";"30";"1";"31";"1";"1";"7";"1";"[1,2,3,32]";"1";"5";"1"
"662";"40";"30";"1";"31";"1";"1";"7";"1";"[1,2,3,32]";"1";"4";"1"
"663";"19";"30";"1";"12";"1";"1";"7";"1";"[1,2,3,13]";"1";"0";"1"
"664";"40";"0";"1";"31";"1";"1";"8";"1";"[1,2,3,32]";"0";"8";"1"
"665";"20";"1";"1";"13";"1";"1";"8";"1";"[1,2,3,14]";"1";"0";"1"
"666";"8";"1";"1";"40";"1";"1";"8";"1";"[1,2,3]";"1";"0";"1"
"667";"32";"2";"1";"28";"1";"1";"8";"1";"[1,2,3,29]";"1";"0";"1"
"668";"9";"2";"1";"21";"1";"1";"8";"2";"[1,2,3,22]";"1";"0";"1"
"669";"20";"2";"1";"13";"1";"1";"8";"1";"[1,2,3,14]";"1";"0";"1"
"670";"3";"2";"1";"22";"1";"1";"8";"1";"[1,2,3,23]";"1";"0";"1"
"671";"31";"2";"1";"36";"1";"1";"8";"1";"[1,2,3,37]";"1";"0";"1"
"672";"15";"2";"1";"33";"1";"1";"8";"1";"[1,2,3,34]";"1";"0";"1"
"673";"33";"2";"1";"7";"1";"1";"8";"1";"[1,2,3,8]";"1";"0";"1"
"674";"8";"2";"1";"40";"1";"1";"8";"1";"[1,2,3]";"1";"0";"1"
"675";"7";"3";"1";"3";"1";"1";"8";"1";"[1,2,4]";"1";"0";"1"
"676";"14";"3";"1";"29";"1";"1";"8";"1";"[1,2,3,30]";"1";"0";"1"
"677";"30";"3";"1";"8";"1";"1";"8";"1";"[1,2,3,9]";"1";"0";"1"
"678";"5";"3";"1";"26";"1";"1";"8";"1";"[1,2,3,27]";"1";"0";"1"
"679";"26";"3";"1";"23";"1";"1";"8";"2";"[1,2,3,24]";"2";"0";"1"
"680";"18";"3";"1";"32";"1";"1";"8";"1";"[1,2,3,33]";"1";"0";"1"
"681";"40";"3";"1";"31";"1";"1";"8";"1";"[1,2,3,32]";"1";"8";"1"
"682";"32";"3";"1";"28";"1";"1";"8";"1";"[1,2,3,29]";"1";"0";"1"
"683";"9";"3";"1";"21";"1";"1";"8";"2";"[1,2,3,22]";"1";"0";"1"
"684";"3";"3";"1";"22";"1";"1";"8";"1";"[1,2,3,23]";"1";"0";"1"
"685";"31";"3";"1";"36";"1";"1";"8";"1";"[1,2,3,37]";"1";"0";"1"
"686";"37";"3";"1";"30";"1";"1";"8";"1";"[1,2,3,31]";"1";"0";"1"
"687";"15";"3";"1";"33";"1";"1";"8";"1";"[1,2,3,34]";"1";"0";"1"
"688";"33";"3";"1";"7";"1";"1";"8";"1";"[1,2,3,8]";"1";"0";"1"
"689";"7";"4";"1";"3";"1";"1";"8";"1";"[1,2,4]";"1";"0";"1"
"690";"14";"4";"1";"29";"1";"1";"8";"1";"[1,2,3,30]";"1";"0";"1"
"691";"30";"4";"1";"8";"1";"1";"8";"1";"[1,2,3,9]";"1";"0";"1"
"692";"5";"4";"1";"26";"1";"1";"8";"1";"[1,2,3,27]";"1";"0";"1"
"693";"18";"4";"1";"32";"1";"1";"8";"1";"[1,2,3,33]";"1";"0";"1"
"694";"26";"4";"1";"23";"1";"1";"8";"2";"[1,2,3,24]";"2";"0";"1"
"695";"12";"4";"1";"9";"1";"1";"8";"2";"[1,2,3,10]";"1";"0";"1"
"696";"40";"4";"1";"31";"1";"1";"8";"1";"[1,2,3,32]";"1";"8";"1"
"697";"37";"4";"1";"30";"1";"1";"8";"1";"[1,2,3,31]";"1";"0";"1"
"698";"22";"5";"1";"14";"1";"1";"8";"1";"[1,2,3,15]";"1";"0";"1"
"699";"35";"5";"1";"38";"1";"1";"8";"1";"[1,2,3,39]";"2";"0";"1"
"700";"24";"5";"1";"17";"1";"1";"8";"1";"[1,2,3,18]";"2";"0";"1"
"701";"12";"5";"1";"9";"1";"1";"8";"2";"[1,2,3,10]";"1";"0";"1"
"702";"1";"5";"1";"11";"1";"1";"8";"1";"[1,2,3,12]";"1";"0";"1"
"703";"29";"5";"1";"24";"1";"1";"8";"1";"[1,2,3,25]";"1";"0";"1"
"704";"36";"5";"1";"25";"1";"1";"8";"1";"[1,2,3,26]";"1";"0";"1"
"705";"16";"5";"1";"39";"1";"1";"8";"1";"[1,2,3,40]";"1";"0";"1"
"706";"22";"6";"1";"14";"1";"1";"8";"1";"[1,2,3,15]";"1";"0";"1"
"707";"35";"6";"1";"38";"1";"1";"8";"1";"[1,2,3,39]";"2";"0";"1"
"708";"11";"6";"1";"35";"1";"1";"8";"1";"[1,2,3,36]";"1";"0";"1"
"709";"24";"6";"1";"17";"1";"1";"8";"1";"[1,2,3,18]";"2";"0";"1"
"710";"2";"6";"1";"19";"1";"1";"8";"1";"[1,2,3,20]";"1";"0";"1"
"711";"1";"6";"1";"11";"1";"1";"8";"1";"[1,2,3,12]";"1";"0";"1"
"712";"29";"6";"1";"24";"1";"1";"8";"1";"[1,2,3,25]";"1";"0";"1"
"713";"36";"6";"1";"25";"1";"1";"8";"1";"[1,2,3,26]";"1";"0";"1"
"714";"16";"6";"1";"39";"1";"1";"8";"1";"[1,2,3,40]";"1";"0";"1"
"715";"25";"6";"1";"27";"1";"1";"8";"1";"[1,2,3,28]";"1";"0";"1"
"716";"23";"7";"1";"37";"1";"1";"8";"2";"[1,2,3,38]";"1";"0";"1"
"717";"11";"7";"1";"35";"1";"1";"8";"1";"[1,2,3,36]";"1";"0";"1"
"718";"2";"7";"1";"19";"1";"1";"8";"1";"[1,2,3,20]";"1";"0";"1"
"719";"25";"7";"1";"27";"1";"1";"8";"1";"[1,2,3,28]";"1";"0";"1"
"720";"21";"7";"1";"10";"1";"1";"8";"1";"[1,2,3,11]";"1";"0";"1"
"721";"23";"8";"1";"37";"1";"1";"8";"2";"[1,2,3,38]";"1";"0";"1"
"722";"19";"8";"1";"12";"1";"1";"8";"1";"[1,2,3,13]";"0";"3";"1"
"723";"19";"8";"1";"12";"1";"1";"8";"1";"[1,2,3,13]";"0";"2";"1"
"724";"21";"8";"1";"10";"1";"1";"8";"1";"[1,2,3,11]";"1";"0";"1"
"725";"38";"9";"1";"6";"1";"1";"8";"1";"[1,2,3,7]";"1";"0";"1"
"726";"34";"10";"1";"34";"1";"1";"8";"2";"[1,2,3,35]";"1";"0";"1"
"727";"38";"10";"1";"6";"1";"1";"8";"1";"[1,2,3,7]";"1";"0";"1"
"728";"4";"10";"1";"16";"1";"1";"8";"2";"[1,2,3,17]";"1";"0";"1"
"729";"13";"10";"1";"5";"1";"1";"8";"2";"[1,2,3,6]";"2";"0";"1"
"730";"34";"11";"1";"34";"1";"1";"8";"2";"[1,2,3,35]";"1";"0";"1"
"731";"4";"11";"1";"16";"1";"1";"8";"2";"[1,2,3,17]";"1";"0";"1"
"732";"13";"11";"1";"5";"1";"1";"8";"2";"[1,2,3,6]";"2";"0";"1"
"733";"10";"12";"1";"15";"1";"1";"8";"2";"[1,2,3,16]";"1";"0";"1"
"734";"19";"12";"1";"12";"1";"1";"8";"1";"[1,2,3,13]";"0";"5";"1"
"735";"17";"12";"1";"20";"1";"1";"8";"1";"[1,2,3,21]";"1";"0";"1"
"736";"19";"13";"1";"12";"1";"1";"8";"1";"[1,2,3,13]";"0";"3";"1"
"737";"10";"13";"1";"15";"1";"1";"8";"2";"[1,2,3,16]";"1";"0";"1"
"738";"17";"13";"1";"20";"1";"1";"8";"1";"[1,2,3,21]";"1";"0";"1"
"739";"19";"13";"1";"12";"1";"1";"8";"1";"[1,2,3,13]";"0";"4";"1"
"740";"19";"14";"1";"12";"1";"1";"8";"1";"[1,2,3,13]";"0";"5";"1"
"741";"28";"14";"1";"1";"1";"1";"8";"2";"[2,3]";"1";"0";"1"
"742";"19";"15";"1";"12";"1";"1";"8";"1";"[1,2,3,13]";"0";"6";"1"
"743";"6";"15";"1";"2";"1";"1";"8";"1";"[1,3]";"1";"0";"1"
"744";"28";"15";"1";"1";"1";"1";"8";"2";"[2,3]";"1";"0";"1"
"745";"39";"16";"1";"4";"1";"1";"8";"1";"[1,2,3,5]";"2";"0";"1"
"746";"6";"16";"1";"2";"1";"1";"8";"1";"[1,3]";"1";"0";"1"
"747";"39";"17";"1";"4";"1";"1";"8";"1";"[1,2,3,5]";"2";"0";"1"
"748";"27";"18";"1";"18";"1";"1";"8";"2";"[1,2,3,19]";"2";"0";"1"
"749";"27";"19";"1";"18";"1";"1";"8";"2";"[1,2,3,19]";"2";"0";"1"
"750";"19";"27";"1";"12";"1";"1";"8";"1";"[1,2,3,13]";"1";"6";"1"
"751";"19";"28";"1";"12";"1";"1";"8";"1";"[1,2,3,13]";"1";"6";"1"
"752";"20";"2";"1";"13";"1";"1";"9";"1";"[1,2,3,14]";"1";"0";"1"
"753";"27";"2";"1";"18";"1";"1";"9";"2";"[1,2,3,19]";"0";"6";"1"
"754";"8";"2";"1";"40";"1";"1";"9";"1";"[1,2,3]";"1";"0";"1"
"755";"40";"2";"1";"31";"1";"1";"9";"1";"[1,2,3,32]";"1";"0";"1"
"756";"9";"2";"1";"21";"1";"1";"9";"2";"[1,2,3,22]";"1";"0";"1"
"757";"15";"2";"1";"33";"1";"1";"9";"1";"[1,2,3,34]";"1";"0";"1"
"758";"38";"2";"1";"6";"1";"1";"9";"1";"[1,2,3,7]";"1";"0";"1"
"759";"30";"2";"1";"8";"1";"1";"9";"1";"[1,2,3,9]";"1";"0";"1"
"760";"31";"3";"1";"36";"1";"1";"9";"1";"[1,2,3,37]";"1";"0";"1"
"761";"20";"3";"1";"13";"1";"1";"9";"1";"[1,2,3,14]";"1";"0";"1"
"762";"27";"3";"1";"18";"1";"1";"9";"2";"[1,2,3,19]";"0";"2";"1"
"763";"18";"3";"1";"32";"1";"1";"9";"1";"[1,2,3,33]";"1";"0";"1"
"764";"5";"3";"1";"26";"1";"1";"9";"1";"[1,2,3,27]";"1";"0";"1"
"765";"8";"3";"1";"40";"1";"1";"9";"1";"[1,2,3]";"1";"0";"1"
"766";"40";"3";"1";"31";"1";"1";"9";"1";"[1,2,3,32]";"1";"0";"1"
"767";"14";"3";"1";"29";"1";"1";"9";"1";"[1,2,3,30]";"1";"0";"1"
"768";"9";"3";"1";"21";"1";"1";"9";"2";"[1,2,3,22]";"1";"0";"1"
"769";"15";"3";"1";"33";"1";"1";"9";"1";"[1,2,3,34]";"1";"0";"1"
"770";"35";"3";"1";"38";"1";"1";"9";"1";"[1,2,3,39]";"2";"0";"1"
"771";"38";"3";"1";"6";"1";"1";"9";"1";"[1,2,3,7]";"1";"0";"1"
"772";"30";"3";"1";"8";"1";"1";"9";"1";"[1,2,3,9]";"1";"0";"1"
"773";"32";"4";"1";"28";"1";"1";"9";"1";"[1,2,3,29]";"1";"0";"1"
"774";"31";"4";"1";"36";"1";"1";"9";"1";"[1,2,3,37]";"1";"0";"1"
"775";"27";"4";"1";"18";"1";"1";"9";"2";"[1,2,3,19]";"0";"1";"1"
"776";"7";"4";"1";"3";"1";"1";"9";"1";"[1,2,4]";"1";"0";"1"
"777";"18";"4";"1";"32";"1";"1";"9";"1";"[1,2,3,33]";"1";"0";"1"
"778";"5";"4";"1";"26";"1";"1";"9";"1";"[1,2,3,27]";"1";"0";"1"
"779";"3";"4";"1";"22";"1";"1";"9";"1";"[1,2,3,23]";"1";"0";"1"
"780";"14";"4";"1";"29";"1";"1";"9";"1";"[1,2,3,30]";"1";"0";"1"
"781";"35";"4";"1";"38";"1";"1";"9";"1";"[1,2,3,39]";"2";"0";"1"
"782";"28";"4";"1";"1";"1";"1";"9";"2";"[2,3]";"2";"0";"1"
"783";"25";"4";"1";"27";"1";"1";"9";"1";"[1,2,3,28]";"1";"0";"1"
"784";"1";"4";"1";"11";"1";"1";"9";"1";"[1,2,3,12]";"1";"0";"1"
"785";"36";"4";"1";"25";"1";"1";"9";"1";"[1,2,3,26]";"1";"0";"1"
"786";"39";"4";"1";"4";"1";"1";"9";"1";"[1,2,3,5]";"2";"0";"1"
"787";"9";"4";"1";"21";"1";"1";"9";"2";"[1,2,3,22]";"1";"1";"1"
"788";"32";"5";"1";"28";"1";"1";"9";"1";"[1,2,3,29]";"1";"0";"1"
"789";"27";"5";"1";"18";"1";"1";"9";"2";"[1,2,3,19]";"0";"3";"1"
"790";"7";"5";"1";"3";"1";"1";"9";"1";"[1,2,4]";"1";"0";"1"
"791";"17";"5";"1";"20";"1";"1";"9";"1";"[1,2,3,21]";"1";"0";"1"
"792";"22";"5";"1";"14";"1";"1";"9";"1";"[1,2,3,15]";"1";"0";"1"
"793";"26";"5";"1";"23";"1";"1";"9";"2";"[1,2,3,24]";"2";"0";"1"
"794";"33";"5";"1";"7";"1";"1";"9";"1";"[1,2,3,8]";"1";"0";"1"
"795";"3";"5";"1";"22";"1";"1";"9";"1";"[1,2,3,23]";"1";"0";"1"
"796";"28";"5";"1";"1";"1";"1";"9";"2";"[2,3]";"2";"0";"1"
"797";"25";"5";"1";"27";"1";"1";"9";"1";"[1,2,3,28]";"1";"0";"1"
"798";"1";"5";"1";"11";"1";"1";"9";"1";"[1,2,3,12]";"1";"0";"1"
"799";"36";"5";"1";"25";"1";"1";"9";"1";"[1,2,3,26]";"1";"0";"1"
"800";"12";"5";"1";"9";"1";"1";"9";"2";"[1,2,3,10]";"1";"0";"1"
"801";"39";"5";"1";"4";"1";"1";"9";"1";"[1,2,3,5]";"2";"0";"1"
"802";"29";"6";"1";"24";"1";"1";"9";"1";"[1,2,3,25]";"1";"0";"1"
"803";"9";"6";"1";"21";"1";"1";"9";"2";"[1,2,3,22]";"1";"2";"1"
"804";"17";"6";"1";"20";"1";"1";"9";"1";"[1,2,3,21]";"1";"0";"1"
"805";"22";"6";"1";"14";"1";"1";"9";"1";"[1,2,3,15]";"1";"0";"1"
"806";"27";"6";"1";"18";"1";"1";"9";"2";"[1,2,3,19]";"0";"6";"1"
"807";"26";"6";"1";"23";"1";"1";"9";"2";"[1,2,3,24]";"2";"0";"1"
"808";"33";"6";"1";"7";"1";"1";"9";"1";"[1,2,3,8]";"1";"0";"1"
"809";"37";"6";"1";"30";"1";"1";"9";"1";"[1,2,3,31]";"1";"0";"1"
"810";"12";"6";"1";"9";"1";"1";"9";"2";"[1,2,3,10]";"1";"0";"1"
"811";"29";"7";"1";"24";"1";"1";"9";"1";"[1,2,3,25]";"1";"0";"1"
"812";"2";"7";"1";"19";"1";"1";"9";"1";"[1,2,3,20]";"1";"0";"1"
"813";"16";"7";"1";"39";"1";"1";"9";"1";"[1,2,3,40]";"1";"0";"1"
"814";"27";"7";"1";"18";"1";"1";"9";"2";"[1,2,3,19]";"0";"11";"1"
"815";"24";"7";"1";"17";"1";"1";"9";"1";"[1,2,3,18]";"1";"0";"1"
"816";"19";"7";"1";"12";"1";"1";"9";"1";"[1,2,3,13]";"1";"0";"1"
"817";"37";"7";"1";"30";"1";"1";"9";"1";"[1,2,3,31]";"1";"0";"1"
"818";"13";"7";"1";"5";"1";"1";"9";"2";"[1,2,3,6]";"2";"0";"1"
"819";"9";"7";"1";"21";"1";"1";"9";"2";"[1,2,3,22]";"1";"3";"1"
"820";"2";"8";"1";"19";"1";"1";"9";"1";"[1,2,3,20]";"1";"0";"1"
"821";"16";"8";"1";"39";"1";"1";"9";"1";"[1,2,3,40]";"1";"0";"1"
"822";"24";"8";"1";"17";"1";"1";"9";"1";"[1,2,3,18]";"1";"0";"1"
"823";"19";"8";"1";"12";"1";"1";"9";"1";"[1,2,3,13]";"1";"0";"1"
"824";"34";"8";"1";"34";"1";"1";"9";"2";"[1,2,3,35]";"1";"0";"1"
"825";"13";"8";"1";"5";"1";"1";"9";"2";"[1,2,3,6]";"2";"0";"1"
"826";"10";"8";"1";"15";"1";"1";"9";"2";"[1,2,3,16]";"2";"0";"1"
"827";"27";"9";"1";"18";"1";"1";"9";"2";"[1,2,3,19]";"2";"11";"1"
"828";"9";"9";"1";"21";"1";"1";"9";"2";"[1,2,3,22]";"1";"4";"1"
"829";"34";"9";"1";"34";"1";"1";"9";"2";"[1,2,3,35]";"1";"0";"1"
"830";"10";"10";"1";"15";"1";"1";"9";"2";"[1,2,3,16]";"2";"0";"1"
"831";"27";"10";"1";"18";"1";"1";"9";"2";"[1,2,3,19]";"2";"11";"1"
"832";"9";"10";"1";"21";"1";"1";"9";"2";"[1,2,3,22]";"1";"5";"1"
"833";"9";"12";"1";"21";"1";"1";"9";"2";"[1,2,3,22]";"1";"6";"1"
"834";"23";"12";"1";"37";"1";"1";"9";"2";"[1,2,3,38]";"1";"0";"1"
"835";"9";"13";"1";"21";"1";"1";"9";"2";"[1,2,3,22]";"1";"7";"1"
"836";"11";"13";"1";"35";"1";"1";"9";"1";"[1,2,3,36]";"1";"0";"1"
"837";"23";"13";"1";"37";"1";"1";"9";"2";"[1,2,3,38]";"1";"0";"1"
"838";"11";"14";"1";"35";"1";"1";"9";"1";"[1,2,3,36]";"1";"0";"1"
"839";"9";"14";"1";"21";"1";"1";"9";"2";"[1,2,3,22]";"1";"8";"1"
"840";"9";"15";"1";"21";"1";"1";"9";"2";"[1,2,3,22]";"1";"9";"1"
"841";"4";"17";"1";"16";"1";"1";"9";"2";"[1,2,3,17]";"1";"0";"1"
"842";"4";"18";"1";"16";"1";"1";"9";"2";"[1,2,3,17]";"1";"0";"1"
"843";"6";"18";"1";"2";"1";"1";"9";"1";"[1,3]";"1";"0";"1"
"844";"6";"19";"1";"2";"1";"1";"9";"1";"[1,3]";"1";"0";"1"
"845";"27";"22";"1";"18";"1";"1";"9";"2";"[1,2,3,19]";"2";"1";"1"
"846";"21";"22";"1";"10";"1";"1";"9";"1";"[1,2,3,11]";"1";"0";"1"
"847";"21";"24";"1";"10";"1";"1";"9";"1";"[1,2,3,11]";"1";"0";"1"
"848";"20";"1";"1";"13";"1";"1";"10";"1";"[1,2,3,14]";"1";"0";"1"
"849";"17";"1";"1";"20";"1";"1";"10";"1";"[1,2,3,21]";"1";"0";"1"
"850";"32";"1";"1";"28";"1";"1";"10";"1";"[1,2,3,29]";"1";"0";"1"
"851";"3";"1";"1";"22";"1";"1";"10";"1";"[1,2,3,23]";"1";"0";"1"
"852";"12";"1";"1";"9";"1";"1";"10";"2";"[1,2,3,10]";"2";"0";"1"
"853";"20";"2";"1";"13";"1";"1";"10";"1";"[1,2,3,14]";"1";"0";"1"
"854";"30";"2";"1";"8";"1";"1";"10";"1";"[1,2,3,9]";"1";"0";"1"
"855";"27";"2";"1";"18";"1";"1";"10";"2";"[1,2,3,19]";"0";"1";"1"
"856";"40";"2";"1";"31";"1";"1";"10";"1";"[1,2,3,32]";"1";"0";"1"
"857";"31";"2";"1";"36";"1";"1";"10";"1";"[1,2,3,37]";"1";"0";"1"
"858";"17";"2";"1";"20";"1";"1";"10";"1";"[1,2,3,21]";"1";"0";"1"
"859";"32";"2";"1";"28";"1";"1";"10";"1";"[1,2,3,29]";"1";"0";"1"
"860";"3";"2";"1";"22";"1";"1";"10";"1";"[1,2,3,23]";"1";"0";"1"
"861";"18";"2";"1";"32";"1";"1";"10";"1";"[1,2,3,33]";"1";"0";"1"
"862";"26";"2";"1";"23";"1";"1";"10";"2";"[1,2,3,24]";"2";"0";"1"
"863";"12";"2";"1";"9";"1";"1";"10";"2";"[1,2,3,10]";"2";"0";"1"
"864";"36";"2";"1";"25";"1";"1";"10";"1";"[1,2,3,26]";"1";"0";"1"
"865";"15";"3";"1";"33";"1";"1";"10";"1";"[1,2,3,34]";"1";"0";"1"
"866";"30";"3";"1";"8";"1";"1";"10";"1";"[1,2,3,9]";"1";"0";"1"
"867";"40";"3";"1";"31";"1";"1";"10";"1";"[1,2,3,32]";"1";"0";"1"
"868";"31";"3";"1";"36";"1";"1";"10";"1";"[1,2,3,37]";"1";"0";"1"
"869";"27";"3";"1";"18";"1";"1";"10";"2";"[1,2,3,19]";"0";"2";"1"
"870";"5";"3";"1";"26";"1";"1";"10";"1";"[1,2,3,27]";"1";"0";"1"
"871";"9";"3";"1";"21";"1";"1";"10";"2";"[1,2,3,22]";"1";"0";"1"
"872";"18";"3";"1";"32";"1";"1";"10";"1";"[1,2,3,33]";"1";"0";"1"
"873";"26";"3";"1";"23";"1";"1";"10";"2";"[1,2,3,24]";"2";"0";"1"
"874";"36";"3";"1";"25";"1";"1";"10";"1";"[1,2,3,26]";"1";"0";"1"
"875";"15";"4";"1";"33";"1";"1";"10";"1";"[1,2,3,34]";"1";"0";"1"
"876";"25";"4";"1";"27";"1";"1";"10";"1";"[1,2,3,28]";"1";"0";"1"
"877";"14";"4";"1";"29";"1";"1";"10";"1";"[1,2,3,30]";"1";"0";"1"
"878";"5";"4";"1";"26";"1";"1";"10";"1";"[1,2,3,27]";"1";"0";"1"
"879";"27";"4";"1";"18";"1";"1";"10";"2";"[1,2,3,19]";"0";"5";"1"
"880";"9";"4";"1";"21";"1";"1";"10";"2";"[1,2,3,22]";"1";"0";"1"
"881";"2";"5";"1";"19";"1";"1";"10";"1";"[1,2,3,20]";"1";"0";"1"
"882";"25";"5";"1";"27";"1";"1";"10";"1";"[1,2,3,28]";"1";"0";"1"
"883";"35";"5";"1";"38";"1";"1";"10";"1";"[1,2,3,39]";"2";"0";"1"
"884";"31";"5";"1";"36";"1";"1";"10";"1";"[1,2,3,37]";"1";"7";"1"
"885";"14";"5";"1";"29";"1";"1";"10";"1";"[1,2,3,30]";"1";"0";"1"
"886";"7";"5";"1";"3";"1";"1";"10";"1";"[1,2,4]";"1";"0";"1"
"887";"27";"6";"1";"18";"1";"1";"10";"2";"[1,2,3,19]";"0";"7";"1"
"888";"2";"6";"1";"19";"1";"1";"10";"1";"[1,2,3,20]";"1";"0";"1"
"889";"35";"6";"1";"38";"1";"1";"10";"1";"[1,2,3,39]";"2";"0";"1"
"890";"7";"6";"1";"3";"1";"1";"10";"1";"[1,2,4]";"1";"0";"1"
"891";"22";"6";"1";"14";"1";"1";"10";"1";"[1,2,3,15]";"1";"0";"1"
"892";"29";"6";"1";"24";"1";"1";"10";"1";"[1,2,3,25]";"1";"0";"1"
"893";"31";"6";"1";"36";"1";"1";"10";"1";"[1,2,3,37]";"1";"1";"1"
"894";"38";"6";"1";"6";"1";"1";"10";"1";"[1,2,3,7]";"1";"0";"1"
"895";"33";"6";"1";"7";"1";"1";"10";"1";"[1,2,3,8]";"1";"0";"1"
"896";"4";"6";"1";"16";"1";"1";"10";"2";"[1,2,3,17]";"1";"0";"1"
"897";"27";"6";"1";"18";"1";"1";"10";"2";"[1,2,3,19]";"0";"1";"1"
"898";"24";"7";"1";"17";"1";"1";"10";"1";"[1,2,3,18]";"1";"0";"1"
"899";"37";"7";"1";"30";"1";"1";"10";"1";"[1,2,3,31]";"1";"0";"1"
"900";"22";"7";"1";"14";"1";"1";"10";"1";"[1,2,3,15]";"1";"0";"1"
"901";"29";"7";"1";"24";"1";"1";"10";"1";"[1,2,3,25]";"1";"0";"1"
"902";"31";"7";"1";"36";"1";"1";"10";"1";"[1,2,3,37]";"1";"2";"1"
"903";"38";"7";"1";"6";"1";"1";"10";"1";"[1,2,3,7]";"1";"0";"1"
"904";"33";"7";"1";"7";"1";"1";"10";"1";"[1,2,3,8]";"1";"0";"1"
"905";"4";"7";"1";"16";"1";"1";"10";"2";"[1,2,3,17]";"1";"0";"1"
"906";"34";"8";"1";"34";"1";"1";"10";"2";"[1,2,3,35]";"1";"0";"1"
"907";"24";"8";"1";"17";"1";"1";"10";"1";"[1,2,3,18]";"1";"0";"1"
"908";"37";"8";"1";"30";"1";"1";"10";"1";"[1,2,3,31]";"1";"0";"1"
"909";"34";"9";"1";"34";"1";"1";"10";"2";"[1,2,3,35]";"1";"0";"1"
"910";"27";"9";"1";"18";"1";"1";"10";"2";"[1,2,3,19]";"0";"7";"1"
"911";"31";"9";"1";"36";"1";"1";"10";"1";"[1,2,3,37]";"1";"3";"1"
"912";"39";"11";"1";"4";"1";"1";"10";"1";"[1,2,3,5]";"1";"0";"1"
"913";"27";"11";"1";"18";"1";"1";"10";"2";"[1,2,3,19]";"0";"9";"1"
"914";"6";"11";"1";"2";"1";"1";"10";"1";"[1,3]";"0";"2";"1"
"915";"11";"12";"1";"35";"1";"1";"10";"1";"[1,2,3,36]";"1";"0";"1"
"916";"39";"12";"1";"4";"1";"1";"10";"1";"[1,2,3,5]";"1";"0";"1"
"917";"6";"12";"1";"2";"1";"1";"10";"1";"[1,3]";"0";"3";"1"
"918";"31";"12";"1";"36";"1";"1";"10";"1";"[1,2,3,37]";"1";"4";"1"
"919";"8";"13";"1";"40";"1";"1";"10";"1";"[1,2,3]";"1";"0";"1"
"920";"11";"13";"1";"35";"1";"1";"10";"1";"[1,2,3,36]";"1";"0";"1"
"921";"6";"13";"1";"2";"1";"1";"10";"1";"[1,3]";"0";"4";"1"
"922";"27";"13";"1";"18";"1";"1";"10";"2";"[1,2,3,19]";"0";"10";"1"
"923";"23";"14";"1";"37";"1";"1";"10";"2";"[1,2,3,38]";"2";"0";"1"
"924";"31";"14";"1";"36";"1";"1";"10";"1";"[1,2,3,37]";"1";"5";"1"
"925";"8";"14";"1";"40";"1";"1";"10";"1";"[1,2,3]";"1";"0";"1"
"926";"27";"14";"1";"18";"1";"1";"10";"2";"[1,2,3,19]";"0";"1";"1"
"927";"23";"15";"1";"37";"1";"1";"10";"2";"[1,2,3,38]";"2";"0";"1"
"928";"6";"15";"1";"2";"1";"1";"10";"1";"[1,3]";"0";"11";"1"
"929";"13";"15";"1";"5";"1";"1";"10";"2";"[1,2,3,6]";"2";"0";"1"
"930";"31";"15";"1";"36";"1";"1";"10";"1";"[1,2,3,37]";"1";"6";"1"
"931";"21";"16";"1";"10";"1";"1";"10";"1";"[1,2,3,11]";"2";"0";"1"
"932";"1";"16";"1";"11";"1";"1";"10";"1";"[1,2,3,12]";"1";"0";"1"
"933";"13";"16";"1";"5";"1";"1";"10";"2";"[1,2,3,6]";"2";"0";"1"
"934";"27";"16";"1";"18";"1";"1";"10";"2";"[1,2,3,19]";"0";"8";"1"
"935";"8";"17";"1";"40";"1";"1";"10";"1";"[1,2,3]";"1";"5";"1"
"936";"21";"17";"1";"10";"1";"1";"10";"1";"[1,2,3,11]";"2";"0";"1"
"937";"31";"17";"1";"36";"1";"1";"10";"1";"[1,2,3,37]";"1";"7";"1"
"938";"1";"17";"1";"11";"1";"1";"10";"1";"[1,2,3,12]";"1";"0";"1"
"939";"36";"17";"1";"25";"1";"1";"10";"1";"[1,2,3,26]";"1";"8";"1"
"940";"8";"18";"1";"40";"1";"1";"10";"1";"[1,2,3]";"1";"1";"1"
"941";"27";"18";"1";"18";"1";"1";"10";"2";"[1,2,3,19]";"0";"10";"1"
"942";"6";"18";"1";"2";"1";"1";"10";"1";"[1,3]";"1";"11";"1"
"943";"36";"18";"1";"25";"1";"1";"10";"1";"[1,2,3,26]";"1";"4";"1"
"944";"9";"18";"1";"21";"1";"1";"10";"2";"[1,2,3,22]";"1";"1";"1"
"945";"28";"19";"1";"1";"1";"1";"10";"2";"[2,3]";"1";"0";"1"
"946";"6";"19";"1";"2";"1";"1";"10";"1";"[1,3]";"1";"11";"1"
"947";"36";"19";"1";"25";"1";"1";"10";"1";"[1,2,3,26]";"1";"1";"1"
"948";"8";"19";"1";"40";"1";"1";"10";"1";"[1,2,3]";"1";"12";"1"
"949";"15";"20";"1";"33";"1";"1";"10";"1";"[1,2,3,34]";"1";"8";"1"
"950";"19";"20";"1";"12";"1";"1";"10";"1";"[1,2,3,13]";"1";"0";"1"
"951";"28";"20";"1";"1";"1";"1";"10";"2";"[2,3]";"1";"0";"1"
"952";"31";"20";"1";"36";"1";"1";"10";"1";"[1,2,3,37]";"1";"8";"1"
"953";"16";"20";"1";"39";"1";"1";"10";"1";"[1,2,3,40]";"1";"0";"1"
"954";"19";"21";"1";"12";"1";"1";"10";"1";"[1,2,3,13]";"1";"0";"1"
"955";"27";"21";"1";"18";"1";"1";"10";"2";"[1,2,3,19]";"2";"10";"1"
"956";"15";"21";"1";"33";"1";"1";"10";"1";"[1,2,3,34]";"1";"7";"1"
"957";"10";"21";"1";"15";"1";"1";"10";"2";"[1,2,3,16]";"2";"0";"1"
"958";"16";"21";"1";"39";"1";"1";"10";"1";"[1,2,3,40]";"1";"0";"1"
"959";"31";"22";"1";"36";"1";"1";"10";"1";"[1,2,3,37]";"1";"9";"1"
"960";"27";"22";"1";"18";"1";"1";"10";"2";"[1,2,3,19]";"2";"10";"1"
"961";"36";"22";"1";"25";"1";"1";"10";"1";"[1,2,3,26]";"1";"12";"1"
"962";"10";"22";"1";"15";"1";"1";"10";"2";"[1,2,3,16]";"2";"0";"1"
"963";"15";"1";"1";"33";"1";"1";"11";"1";"[1,2,3,34]";"0";"1";"1"
"964";"31";"2";"1";"36";"1";"1";"11";"1";"[1,2,3,37]";"1";"0";"1"
"965";"17";"2";"1";"20";"1";"1";"11";"1";"[1,2,3,21]";"1";"0";"1"
"966";"3";"2";"1";"22";"1";"1";"11";"1";"[1,2,3,23]";"1";"0";"1"
"967";"12";"2";"1";"9";"1";"1";"11";"2";"[1,2,3,10]";"2";"0";"1"
"968";"15";"2";"1";"33";"1";"1";"11";"1";"[1,2,3,34]";"0";"10";"1"
"969";"5";"3";"1";"26";"1";"1";"11";"1";"[1,2,3,27]";"1";"0";"1"
"970";"18";"3";"1";"32";"1";"1";"11";"1";"[1,2,3,33]";"1";"0";"1"
"971";"31";"3";"1";"36";"1";"1";"11";"1";"[1,2,3,37]";"1";"0";"1"
"972";"17";"3";"1";"20";"1";"1";"11";"1";"[1,2,3,21]";"1";"0";"1"
"973";"3";"3";"1";"22";"1";"1";"11";"1";"[1,2,3,23]";"1";"0";"1"
"974";"12";"3";"1";"9";"1";"1";"11";"2";"[1,2,3,10]";"2";"0";"1"
"975";"36";"3";"1";"25";"1";"1";"11";"1";"[1,2,3,26]";"1";"0";"1"
"976";"30";"3";"1";"8";"1";"1";"11";"1";"[1,2,3,9]";"1";"0";"1"
"977";"14";"3";"1";"29";"1";"1";"11";"1";"[1,2,3,30]";"1";"0";"1"
"978";"35";"3";"1";"38";"1";"1";"11";"1";"[1,2,3,39]";"2";"0";"1"
"979";"37";"3";"1";"30";"1";"1";"11";"1";"[1,2,3,31]";"1";"0";"1"
"980";"5";"4";"1";"26";"1";"1";"11";"1";"[1,2,3,27]";"1";"0";"1"
"981";"18";"4";"1";"32";"1";"1";"11";"1";"[1,2,3,33]";"1";"0";"1"
"982";"32";"4";"1";"28";"1";"1";"11";"1";"[1,2,3,29]";"1";"0";"1"
"983";"15";"4";"1";"33";"1";"1";"11";"1";"[1,2,3,34]";"0";"11";"1"
"984";"11";"4";"1";"35";"1";"1";"11";"1";"[1,2,3,36]";"1";"0";"1"
"985";"9";"4";"1";"21";"1";"1";"11";"2";"[1,2,3,22]";"1";"0";"1"
"986";"38";"4";"1";"6";"1";"1";"11";"1";"[1,2,3,7]";"1";"0";"1"
"987";"7";"4";"1";"3";"1";"1";"11";"1";"[1,2,4]";"1";"0";"1"
"988";"27";"4";"1";"18";"1";"1";"11";"2";"[1,2,3,19]";"0";"9";"1"
"989";"20";"4";"1";"13";"1";"1";"11";"1";"[1,2,3,14]";"1";"0";"1"
"990";"36";"4";"1";"25";"1";"1";"11";"1";"[1,2,3,26]";"1";"0";"1"
"991";"30";"4";"1";"8";"1";"1";"11";"1";"[1,2,3,9]";"1";"0";"1"
"992";"14";"4";"1";"29";"1";"1";"11";"1";"[1,2,3,30]";"1";"0";"1"
"993";"1";"4";"1";"11";"1";"1";"11";"1";"[1,2,3,12]";"1";"0";"1"
"994";"35";"4";"1";"38";"1";"1";"11";"1";"[1,2,3,39]";"2";"0";"1"
"995";"37";"4";"1";"30";"1";"1";"11";"1";"[1,2,3,31]";"1";"0";"1"
"996";"32";"5";"1";"28";"1";"1";"11";"1";"[1,2,3,29]";"1";"0";"1"
"997";"11";"5";"1";"35";"1";"1";"11";"1";"[1,2,3,36]";"1";"0";"1"
"998";"2";"5";"1";"19";"1";"1";"11";"1";"[1,2,3,20]";"1";"0";"1"
"999";"9";"5";"1";"21";"1";"1";"11";"2";"[1,2,3,22]";"1";"0";"1"
"1000";"29";"5";"1";"24";"1";"1";"11";"1";"[1,2,3,25]";"1";"0";"1"
"1001";"38";"5";"1";"6";"1";"1";"11";"1";"[1,2,3,7]";"1";"0";"1"
"1002";"7";"5";"1";"3";"1";"1";"11";"1";"[1,2,4]";"1";"0";"1"
"1003";"22";"5";"1";"14";"1";"1";"11";"1";"[1,2,3,15]";"1";"0";"1"
"1004";"20";"5";"1";"13";"1";"1";"11";"1";"[1,2,3,14]";"1";"0";"1"
"1005";"33";"5";"1";"7";"1";"1";"11";"1";"[1,2,3,8]";"1";"0";"1"
"1006";"1";"5";"1";"11";"1";"1";"11";"1";"[1,2,3,12]";"1";"0";"1"
"1007";"23";"5";"1";"37";"1";"1";"11";"2";"[1,2,3,38]";"2";"0";"1"
"1008";"34";"5";"1";"34";"1";"1";"11";"2";"[1,2,3,35]";"2";"0";"1"
"1009";"15";"6";"1";"33";"1";"1";"11";"1";"[1,2,3,34]";"1";"11";"1"
"1010";"39";"6";"1";"4";"1";"1";"11";"1";"[1,2,3,5]";"1";"0";"1"
"1011";"40";"6";"1";"31";"1";"1";"11";"1";"[1,2,3,32]";"1";"0";"1"
"1012";"36";"6";"1";"25";"1";"1";"11";"1";"[1,2,3,26]";"1";"9";"1"
"1013";"2";"6";"1";"19";"1";"1";"11";"1";"[1,2,3,20]";"1";"0";"1"
"1014";"29";"6";"1";"24";"1";"1";"11";"1";"[1,2,3,25]";"1";"0";"1"
"1015";"22";"6";"1";"14";"1";"1";"11";"1";"[1,2,3,15]";"1";"0";"1"
"1016";"33";"6";"1";"7";"1";"1";"11";"1";"[1,2,3,8]";"1";"0";"1"
"1017";"24";"6";"1";"17";"1";"1";"11";"1";"[1,2,3,18]";"1";"0";"1"
"1018";"23";"6";"1";"37";"1";"1";"11";"2";"[1,2,3,38]";"2";"0";"1"
"1019";"34";"7";"1";"34";"1";"1";"11";"2";"[1,2,3,35]";"2";"0";"1"
"1020";"15";"7";"1";"33";"1";"1";"11";"1";"[1,2,3,34]";"1";"11";"1"
"1021";"25";"7";"1";"27";"1";"1";"11";"1";"[1,2,3,28]";"1";"0";"1"
"1022";"39";"7";"1";"4";"1";"1";"11";"1";"[1,2,3,5]";"1";"0";"1"
"1023";"36";"7";"1";"25";"1";"1";"11";"1";"[1,2,3,26]";"1";"6";"1"
"1024";"40";"7";"1";"31";"1";"1";"11";"1";"[1,2,3,32]";"1";"0";"1"
"1025";"15";"7";"1";"33";"1";"1";"11";"1";"[1,2,3,34]";"1";"9";"1"
"1026";"24";"7";"1";"17";"1";"1";"11";"1";"[1,2,3,18]";"1";"0";"1"
"1027";"25";"8";"1";"27";"1";"1";"11";"1";"[1,2,3,28]";"1";"0";"1"
"1028";"28";"8";"1";"1";"1";"1";"11";"2";"[2,3]";"1";"0";"1"
"1029";"36";"8";"1";"25";"1";"1";"11";"1";"[1,2,3,26]";"1";"5";"1"
"1030";"15";"8";"1";"33";"1";"1";"11";"1";"[1,2,3,34]";"1";"8";"1"
"1031";"27";"8";"1";"18";"1";"1";"11";"2";"[1,2,3,19]";"0";"10";"1"
"1032";"8";"9";"1";"40";"1";"1";"11";"1";"[1,2,3]";"1";"0";"1"
"1033";"10";"9";"1";"15";"1";"1";"11";"2";"[1,2,3,16]";"1";"0";"1"
"1034";"28";"9";"1";"1";"1";"1";"11";"2";"[2,3]";"1";"0";"1"
"1035";"36";"9";"1";"25";"1";"1";"11";"1";"[1,2,3,26]";"1";"4";"1"
"1036";"26";"9";"1";"23";"1";"1";"11";"2";"[1,2,3,24]";"2";"0";"1"
"1037";"13";"9";"1";"5";"1";"1";"11";"2";"[1,2,3,6]";"2";"0";"1"
"1038";"15";"9";"1";"33";"1";"1";"11";"1";"[1,2,3,34]";"1";"7";"1"
"1039";"27";"10";"1";"18";"1";"1";"11";"2";"[1,2,3,19]";"0";"11";"1"
"1040";"8";"10";"1";"40";"1";"1";"11";"1";"[1,2,3]";"1";"0";"1"
"1041";"10";"10";"1";"15";"1";"1";"11";"2";"[1,2,3,16]";"1";"0";"1"
"1042";"16";"10";"1";"39";"1";"1";"11";"1";"[1,2,3,40]";"1";"0";"1"
"1043";"26";"10";"1";"23";"1";"1";"11";"2";"[1,2,3,24]";"2";"0";"1"
"1044";"15";"10";"1";"33";"1";"1";"11";"1";"[1,2,3,34]";"1";"6";"1"
"1045";"13";"10";"1";"5";"1";"1";"11";"2";"[1,2,3,6]";"2";"0";"1"
"1046";"15";"11";"1";"33";"1";"1";"11";"1";"[1,2,3,34]";"1";"5";"1"
"1047";"16";"11";"1";"39";"1";"1";"11";"1";"[1,2,3,40]";"1";"0";"1"
"1048";"27";"11";"1";"18";"1";"1";"11";"2";"[1,2,3,19]";"0";"9";"1"
"1049";"21";"11";"1";"10";"1";"1";"11";"1";"[1,2,3,11]";"2";"0";"1"
"1050";"15";"12";"1";"33";"1";"1";"11";"1";"[1,2,3,34]";"1";"4";"1"
"1051";"27";"12";"1";"18";"1";"1";"11";"2";"[1,2,3,19]";"0";"10";"1"
"1052";"15";"12";"1";"33";"1";"1";"11";"1";"[1,2,3,34]";"1";"3";"1"
"1053";"21";"13";"1";"10";"1";"1";"11";"1";"[1,2,3,11]";"2";"0";"1"
"1054";"27";"13";"1";"18";"1";"1";"11";"2";"[1,2,3,19]";"0";"9";"1"
"1055";"15";"14";"1";"33";"1";"1";"11";"1";"[1,2,3,34]";"1";"2";"1"
"1056";"6";"14";"1";"2";"1";"1";"11";"1";"[1,3]";"1";"0";"1"
"1057";"15";"15";"1";"33";"1";"1";"11";"1";"[1,2,3,34]";"1";"1";"1"
"1058";"6";"15";"1";"2";"1";"1";"11";"1";"[1,3]";"1";"0";"1"
"1059";"27";"16";"1";"18";"1";"1";"11";"2";"[1,2,3,19]";"0";"10";"1"
"1060";"15";"17";"1";"33";"1";"1";"11";"1";"[1,2,3,34]";"1";"12";"1"
"1061";"4";"18";"1";"16";"1";"1";"11";"2";"[1,2,3,17]";"1";"0";"1"
"1062";"4";"19";"1";"16";"1";"1";"11";"2";"[1,2,3,17]";"1";"0";"1"
"1063";"27";"19";"1";"18";"1";"1";"11";"2";"[1,2,3,19]";"0";"1";"1"
"1064";"19";"20";"1";"12";"1";"1";"11";"1";"[1,2,3,13]";"1";"0";"1"
"1065";"27";"21";"1";"18";"1";"1";"11";"2";"[1,2,3,19]";"0";"2";"1"
"1066";"19";"21";"1";"12";"1";"1";"11";"1";"[1,2,3,13]";"1";"0";"1"
"1067";"27";"23";"1";"18";"1";"1";"11";"2";"[1,2,3,19]";"0";"3";"1"
"1068";"27";"24";"1";"18";"1";"1";"11";"2";"[1,2,3,19]";"0";"2";"1"
"1069";"27";"25";"1";"18";"1";"1";"11";"2";"[1,2,3,19]";"0";"10";"1"
"1070";"27";"26";"1";"18";"1";"1";"11";"2";"[1,2,3,19]";"2";"10";"1"
"1071";"27";"27";"1";"18";"1";"1";"11";"2";"[1,2,3,19]";"2";"12";"1"
"1072";"27";"27";"1";"18";"1";"1";"11";"2";"[1,2,3,19]";"2";"12";"1"
"1073";"12";"1";"1";"9";"1";"1";"12";"2";"[1,2,3,10]";"2";"0";"1"
"1074";"32";"2";"1";"28";"1";"1";"12";"1";"[1,2,3,29]";"1";"0";"1"
"1075";"3";"2";"1";"22";"1";"1";"12";"1";"[1,2,3,23]";"1";"0";"1"
"1076";"27";"2";"1";"18";"1";"1";"12";"2";"[1,2,3,19]";"0";"12";"1"
"1077";"18";"2";"1";"32";"1";"1";"12";"1";"[1,2,3,33]";"1";"0";"1"
"1078";"5";"2";"1";"26";"1";"1";"12";"1";"[1,2,3,27]";"1";"0";"1"
"1079";"12";"2";"1";"9";"1";"1";"12";"2";"[1,2,3,10]";"2";"0";"1"
"1080";"8";"2";"1";"40";"1";"1";"12";"1";"[1,2,3]";"1";"0";"1"
"1081";"10";"3";"1";"15";"1";"1";"12";"2";"[1,2,3,16]";"1";"0";"1"
"1082";"35";"3";"1";"38";"1";"1";"12";"1";"[1,2,3,39]";"2";"0";"1"
"1083";"9";"3";"1";"21";"1";"1";"12";"2";"[1,2,3,22]";"1";"0";"1"
"1084";"37";"3";"1";"30";"1";"1";"12";"1";"[1,2,3,31]";"1";"0";"1"
"1085";"17";"3";"1";"20";"1";"1";"12";"1";"[1,2,3,21]";"1";"0";"1"
"1086";"32";"3";"1";"28";"1";"1";"12";"1";"[1,2,3,29]";"1";"0";"1"
"1087";"3";"3";"1";"22";"1";"1";"12";"1";"[1,2,3,23]";"1";"0";"1"
"1088";"4";"3";"1";"16";"1";"1";"12";"2";"[1,2,3,17]";"1";"0";"1"
"1089";"1";"3";"1";"11";"1";"1";"12";"1";"[1,2,3,12]";"1";"0";"1"
"1090";"24";"3";"1";"17";"1";"1";"12";"1";"[1,2,3,18]";"1";"0";"1"
"1091";"18";"3";"1";"32";"1";"1";"12";"1";"[1,2,3,33]";"1";"0";"1"
"1092";"5";"3";"1";"26";"1";"1";"12";"1";"[1,2,3,27]";"1";"0";"1"
"1093";"29";"3";"1";"24";"1";"1";"12";"1";"[1,2,3,25]";"1";"0";"1"
"1094";"8";"4";"1";"40";"1";"1";"12";"1";"[1,2,3]";"1";"0";"1"
"1095";"22";"4";"1";"14";"1";"1";"12";"1";"[1,2,3,15]";"1";"0";"1"
"1096";"10";"4";"1";"15";"1";"1";"12";"2";"[1,2,3,16]";"1";"0";"1"
"1097";"20";"4";"1";"13";"1";"1";"12";"1";"[1,2,3,14]";"1";"0";"1"
"1098";"30";"4";"1";"8";"1";"1";"12";"1";"[1,2,3,9]";"1";"0";"1"
"1099";"35";"4";"1";"38";"1";"1";"12";"1";"[1,2,3,39]";"2";"0";"1"
"1100";"19";"4";"1";"12";"1";"1";"12";"1";"[1,2,3,13]";"1";"0";"1"
"1101";"9";"4";"1";"21";"1";"1";"12";"2";"[1,2,3,22]";"1";"0";"1"
"1102";"25";"4";"1";"27";"1";"1";"12";"1";"[1,2,3,28]";"1";"0";"1"
"1103";"37";"4";"1";"30";"1";"1";"12";"1";"[1,2,3,31]";"1";"0";"1"
"1104";"17";"4";"1";"20";"1";"1";"12";"1";"[1,2,3,21]";"1";"0";"1"
"1105";"2";"4";"1";"19";"1";"1";"12";"1";"[1,2,3,20]";"1";"0";"1"
"1106";"27";"4";"1";"18";"1";"1";"12";"2";"[1,2,3,19]";"2";"12";"1"
"1107";"4";"4";"1";"16";"1";"1";"12";"2";"[1,2,3,17]";"1";"0";"1"
"1108";"1";"4";"1";"11";"1";"1";"12";"1";"[1,2,3,12]";"1";"0";"1"
"1109";"34";"4";"1";"34";"1";"1";"12";"2";"[1,2,3,35]";"1";"0";"1"
"1110";"24";"4";"1";"17";"1";"1";"12";"1";"[1,2,3,18]";"1";"0";"1"
"1111";"15";"4";"1";"33";"1";"1";"12";"1";"[1,2,3,34]";"1";"0";"1"
"1112";"33";"4";"1";"7";"1";"1";"12";"1";"[1,2,3,8]";"1";"0";"1"
"1113";"16";"4";"1";"39";"1";"1";"12";"1";"[1,2,3,40]";"1";"0";"1"
"1114";"29";"4";"1";"24";"1";"1";"12";"1";"[1,2,3,25]";"1";"0";"1"
"1115";"36";"4";"1";"25";"1";"1";"12";"1";"[1,2,3,26]";"1";"0";"1"
"1116";"22";"5";"1";"14";"1";"1";"12";"1";"[1,2,3,15]";"1";"0";"1"
"1117";"20";"5";"1";"13";"1";"1";"12";"1";"[1,2,3,14]";"1";"0";"1"
"1118";"30";"5";"1";"8";"1";"1";"12";"1";"[1,2,3,9]";"1";"0";"1"
"1119";"31";"5";"1";"36";"1";"1";"12";"1";"[1,2,3,37]";"0";"9";"1"
"1120";"39";"5";"1";"4";"1";"1";"12";"1";"[1,2,3,5]";"1";"0";"1"
"1121";"19";"5";"1";"12";"1";"1";"12";"1";"[1,2,3,13]";"1";"0";"1"
"1122";"25";"5";"1";"27";"1";"1";"12";"1";"[1,2,3,28]";"1";"0";"1"
"1123";"40";"5";"1";"31";"1";"1";"12";"1";"[1,2,3,32]";"1";"0";"1"
"1124";"11";"5";"1";"35";"1";"1";"12";"1";"[1,2,3,36]";"1";"0";"1"
"1125";"27";"5";"1";"18";"1";"1";"12";"2";"[1,2,3,19]";"2";"12";"1"
"1126";"7";"5";"1";"3";"1";"1";"12";"1";"[1,2,4]";"1";"0";"1"
"1127";"2";"5";"1";"19";"1";"1";"12";"1";"[1,2,3,20]";"1";"0";"1"
"1128";"6";"5";"1";"2";"1";"1";"12";"1";"[1,3]";"1";"0";"1"
"1129";"34";"5";"1";"34";"1";"1";"12";"2";"[1,2,3,35]";"1";"0";"1"
"1130";"14";"5";"1";"29";"1";"1";"12";"1";"[1,2,3,30]";"1";"0";"1"
"1131";"15";"5";"1";"33";"1";"1";"12";"1";"[1,2,3,34]";"1";"0";"1"
"1132";"33";"5";"1";"7";"1";"1";"12";"1";"[1,2,3,8]";"1";"0";"1"
"1133";"21";"5";"1";"10";"1";"1";"12";"1";"[1,2,3,11]";"1";"0";"1"
"1134";"16";"5";"1";"39";"1";"1";"12";"1";"[1,2,3,40]";"1";"0";"1"
"1135";"36";"5";"1";"25";"1";"1";"12";"1";"[1,2,3,26]";"1";"0";"1"
"1136";"39";"6";"1";"4";"1";"1";"12";"1";"[1,2,3,5]";"1";"0";"1"
"1137";"31";"6";"1";"36";"1";"1";"12";"1";"[1,2,3,37]";"0";"11";"1"
"1138";"11";"6";"1";"35";"1";"1";"12";"1";"[1,2,3,36]";"1";"0";"1"
"1139";"40";"6";"1";"31";"1";"1";"12";"1";"[1,2,3,32]";"1";"0";"1"
"1140";"7";"6";"1";"3";"1";"1";"12";"1";"[1,2,4]";"1";"0";"1"
"1141";"6";"6";"1";"2";"1";"1";"12";"1";"[1,3]";"1";"0";"1"
"1142";"14";"6";"1";"29";"1";"1";"12";"1";"[1,2,3,30]";"1";"0";"1"
"1143";"23";"6";"1";"37";"1";"1";"12";"2";"[1,2,3,38]";"1";"0";"1"
"1144";"21";"6";"1";"10";"1";"1";"12";"1";"[1,2,3,11]";"1";"0";"1"
"1145";"13";"7";"1";"5";"1";"1";"12";"2";"[1,2,3,6]";"2";"0";"1"
"1146";"31";"7";"1";"36";"1";"1";"12";"1";"[1,2,3,37]";"1";"11";"1"
"1147";"23";"7";"1";"37";"1";"1";"12";"2";"[1,2,3,38]";"1";"0";"1"
"1148";"31";"8";"1";"36";"1";"1";"12";"1";"[1,2,3,37]";"1";"11";"1"
"1149";"13";"8";"1";"5";"1";"1";"12";"2";"[1,2,3,6]";"2";"0";"1"
"1150";"26";"9";"1";"23";"1";"1";"12";"2";"[1,2,3,24]";"2";"0";"1"
"1151";"26";"10";"1";"23";"1";"1";"12";"2";"[1,2,3,24]";"2";"0";"1"
"1152";"28";"12";"1";"1";"1";"1";"12";"2";"[2,3]";"1";"0";"1"
"1153";"28";"13";"1";"1";"1";"1";"12";"2";"[2,3]";"1";"0";"1"
"1154";"17";"31";"1";"20";"1";"1";"12";"1";"[1,2,3,21]";"1";"12";"1"
"1155";"38";"31";"1";"6";"1";"1";"12";"1";"[1,2,3,7]";"0";"0";"1"
"1156";"0";"30";"1";"6";"1";"1";"12";"1";"[1,2,3,7]";"1";"0";"0"
"1157";"30";"0";"1";"30";"1";"2";"12";"2";"[1,2,3,31]";"1";"0";"1"
"1158";"12";"0";"1";"11";"1";"2";"12";"2";"[1,2,3,12]";"1";"0";"1"
"1159";"25";"0";"1";"1";"1";"2";"12";"2";"[2,3]";"1";"0";"1"
"1160";"16";"0";"1";"17";"1";"2";"12";"1";"[1,2,3,18]";"1";"0";"1"
"1161";"32";"0";"1";"16";"1";"2";"12";"2";"[1,2,3,17]";"1";"0";"1"
"1162";"21";"0";"1";"9";"1";"2";"12";"2";"[1,2,3,10]";"2";"0";"1"
"1163";"22";"0";"1";"22";"1";"2";"12";"1";"[1,2,3,23]";"1";"0";"1"
"1164";"17";"0";"1";"33";"1";"2";"12";"2";"[1,2,3,34]";"1";"0";"1"
"1165";"3";"0";"1";"19";"1";"2";"12";"2";"[1,2,3,20]";"1";"0";"1"
"1166";"4";"0";"1";"32";"1";"2";"12";"2";"[1,2,3,33]";"1";"0";"1"
"1167";"7";"0";"1";"21";"1";"2";"12";"2";"[1,2,3,22]";"1";"0";"1"
"1168";"15";"0";"1";"23";"1";"2";"12";"1";"[1,2,3,24]";"2";"0";"1"
"1169";"2";"0";"1";"2";"1";"2";"12";"2";"[1,3]";"1";"0";"1"
"1170";"9";"0";"1";"35";"1";"2";"12";"1";"[1,2,3,36]";"1";"0";"1"
"1171";"11";"0";"1";"13";"1";"2";"12";"2";"[1,2,3,14]";"1";"0";"1"
"1172";"40";"0";"1";"14";"1";"2";"12";"2";"[1,2,3,15]";"1";"0";"1"
"1173";"28";"0";"1";"24";"1";"2";"12";"2";"[1,2,3,25]";"1";"0";"1"
"1174";"29";"0";"1";"15";"1";"2";"12";"2";"[1,2,3,16]";"1";"0";"1"
"1175";"35";"0";"1";"28";"1";"2";"12";"1";"[1,2,3,29]";"1";"0";"1"
"1176";"8";"0";"1";"38";"1";"2";"12";"1";"[1,2,3,39]";"2";"0";"1"
"1177";"24";"0";"1";"5";"1";"2";"12";"2";"[1,2,3,6]";"2";"0";"1"
"1178";"6";"0";"1";"37";"1";"2";"12";"2";"[1,2,3,38]";"1";"0";"1"
"1179";"39";"0";"1";"26";"1";"2";"12";"1";"[1,2,3,27]";"1";"0";"1"
"1180";"36";"0";"1";"27";"1";"2";"12";"2";"[1,2,3,28]";"1";"0";"1"
"1181";"10";"0";"1";"20";"1";"2";"12";"2";"[1,2,3,21]";"1";"12";"1"
"1182";"19";"0";"1";"10";"1";"2";"12";"1";"[1,2,3,11]";"1";"0";"1"
"1183";"1";"0";"1";"36";"1";"2";"12";"1";"[1,2,3,37]";"1";"11";"1"
"1184";"23";"0";"1";"25";"1";"2";"12";"2";"[1,2,3,26]";"1";"0";"1"
"1185";"26";"0";"1";"7";"1";"2";"12";"2";"[1,2,3,8]";"1";"0";"1"
"1186";"33";"0";"1";"34";"1";"2";"12";"2";"[1,2,3,35]";"1";"0";"1"
"1187";"18";"0";"1";"40";"1";"2";"12";"2";"[1,2,3]";"1";"0";"1"
"1188";"20";"0";"1";"12";"1";"2";"12";"2";"[1,2,3,13]";"1";"0";"1"
"1189";"31";"0";"1";"4";"1";"2";"12";"2";"[1,2,3,5]";"1";"0";"1"
"1190";"14";"0";"1";"8";"1";"2";"12";"2";"[1,2,3,9]";"1";"0";"1"
"1191";"5";"0";"1";"18";"1";"2";"12";"2";"[1,2,3,19]";"2";"12";"1"
"1192";"34";"0";"1";"29";"1";"2";"12";"2";"[1,2,3,30]";"1";"0";"1"
"1193";"27";"0";"1";"31";"1";"2";"12";"1";"[1,2,3,32]";"1";"0";"1"
"1194";"37";"0";"1";"3";"1";"2";"12";"2";"[1,2,4]";"1";"0";"1"
"1195";"38";"0";"1";"39";"1";"2";"12";"2";"[1,2,3,40]";"1";"0";"1"
"1196";"13";"0";"1";"6";"1";"2";"12";"2";"[1,2,3,7]";"1";"0";"1"
"1197";"12";"1";"1";"11";"1";"2";"1";"2";"[1,2,3,12]";"2";"0";"1"
"1198";"12";"2";"1";"11";"1";"2";"1";"2";"[1,2,3,12]";"2";"0";"1"
"1199";"36";"2";"1";"27";"1";"2";"1";"2";"[1,2,3,28]";"2";"0";"1"
"1200";"17";"2";"1";"33";"1";"2";"1";"2";"[1,2,3,34]";"2";"0";"1"
"1201";"3";"2";"1";"19";"1";"2";"1";"2";"[1,2,3,20]";"2";"0";"1"
"1202";"35";"3";"1";"28";"1";"2";"1";"1";"[1,2,3,29]";"1";"0";"1"
"1203";"36";"3";"1";"27";"1";"2";"1";"2";"[1,2,3,28]";"2";"0";"1"
"1204";"40";"3";"1";"14";"1";"2";"1";"2";"[1,2,3,15]";"2";"0";"1"
"1205";"17";"3";"1";"33";"1";"2";"1";"2";"[1,2,3,34]";"2";"0";"1"
"1206";"26";"3";"1";"7";"1";"2";"1";"2";"[1,2,3,8]";"2";"0";"1"
"1207";"3";"3";"1";"19";"1";"2";"1";"2";"[1,2,3,20]";"2";"0";"1"
"1208";"35";"4";"1";"28";"1";"2";"1";"1";"[1,2,3,29]";"1";"0";"1"
"1209";"33";"4";"1";"34";"1";"2";"1";"2";"[1,2,3,35]";"2";"0";"1"
"1210";"30";"4";"1";"30";"1";"2";"1";"2";"[1,2,3,31]";"2";"0";"1"
"1211";"40";"4";"1";"14";"1";"2";"1";"2";"[1,2,3,15]";"2";"0";"1"
"1212";"29";"4";"1";"15";"1";"2";"1";"2";"[1,2,3,16]";"2";"0";"1"
"1213";"26";"4";"1";"7";"1";"2";"1";"2";"[1,2,3,8]";"2";"0";"1"
"1214";"18";"4";"1";"40";"1";"2";"1";"2";"[1,2,3]";"2";"0";"1"
"1215";"27";"4";"1";"31";"1";"2";"1";"1";"[1,2,3,32]";"1";"0";"1"
"1216";"15";"5";"1";"23";"1";"2";"1";"1";"[1,2,3,24]";"1";"0";"1"
"1217";"23";"5";"1";"25";"1";"2";"1";"2";"[1,2,3,26]";"2";"0";"1"
"1218";"8";"5";"1";"38";"1";"2";"1";"1";"[1,2,3,39]";"1";"0";"1"
"1219";"32";"5";"1";"16";"1";"2";"1";"2";"[1,2,3,17]";"2";"0";"1"
"1220";"33";"5";"1";"34";"1";"2";"1";"2";"[1,2,3,35]";"2";"0";"1"
"1221";"2";"5";"1";"2";"1";"2";"1";"2";"[1,3]";"2";"0";"1"
"1222";"38";"5";"1";"39";"1";"2";"1";"2";"[1,2,3,40]";"2";"0";"1"
"1223";"30";"5";"1";"30";"1";"2";"1";"2";"[1,2,3,31]";"2";"0";"1"
"1224";"29";"5";"1";"15";"1";"2";"1";"2";"[1,2,3,16]";"2";"0";"1"
"1225";"18";"5";"1";"40";"1";"2";"1";"2";"[1,2,3]";"2";"0";"1"
"1226";"27";"5";"1";"31";"1";"2";"1";"1";"[1,2,3,32]";"1";"0";"1"
"1227";"1";"6";"1";"36";"1";"2";"1";"1";"[1,2,3,37]";"1";"0";"1"
"1228";"15";"6";"1";"23";"1";"2";"1";"1";"[1,2,3,24]";"1";"0";"1"
"1229";"23";"6";"1";"25";"1";"2";"1";"2";"[1,2,3,26]";"2";"0";"1"
"1230";"8";"6";"1";"38";"1";"2";"1";"1";"[1,2,3,39]";"1";"0";"1"
"1231";"32";"6";"1";"16";"1";"2";"1";"2";"[1,2,3,17]";"2";"0";"1"
"1232";"24";"6";"1";"5";"1";"2";"1";"2";"[1,2,3,6]";"2";"0";"1"
"1233";"7";"6";"1";"21";"1";"2";"1";"2";"[1,2,3,22]";"2";"0";"1"
"1234";"2";"6";"1";"2";"1";"2";"1";"2";"[1,3]";"2";"0";"1"
"1235";"38";"6";"1";"39";"1";"2";"1";"2";"[1,2,3,40]";"2";"0";"1"
"1236";"1";"7";"1";"36";"1";"2";"1";"1";"[1,2,3,37]";"1";"0";"1"
"1237";"9";"7";"1";"35";"1";"2";"1";"1";"[1,2,3,36]";"1";"0";"1"
"1238";"34";"7";"1";"29";"1";"2";"1";"2";"[1,2,3,30]";"1";"0";"1"
"1239";"24";"7";"1";"5";"1";"2";"1";"2";"[1,2,3,6]";"2";"0";"1"
"1240";"11";"7";"1";"13";"1";"2";"1";"2";"[1,2,3,14]";"2";"0";"1"
"1241";"7";"7";"1";"21";"1";"2";"1";"2";"[1,2,3,22]";"2";"0";"1"
"1242";"6";"7";"1";"37";"1";"2";"1";"2";"[1,2,3,38]";"2";"0";"1"
"1243";"28";"7";"1";"24";"1";"2";"1";"2";"[1,2,3,25]";"2";"0";"1"
"1244";"9";"8";"1";"35";"1";"2";"1";"1";"[1,2,3,36]";"1";"0";"1"
"1245";"34";"8";"1";"29";"1";"2";"1";"2";"[1,2,3,30]";"1";"0";"1"
"1246";"22";"8";"1";"22";"1";"2";"1";"1";"[1,2,3,23]";"1";"0";"1"
"1247";"11";"8";"1";"13";"1";"2";"1";"2";"[1,2,3,14]";"2";"0";"1"
"1248";"6";"8";"1";"37";"1";"2";"1";"2";"[1,2,3,38]";"2";"0";"1"
"1249";"28";"8";"1";"24";"1";"2";"1";"2";"[1,2,3,25]";"2";"0";"1"
"1250";"20";"8";"1";"12";"1";"2";"1";"2";"[1,2,3,13]";"2";"0";"1"
"1251";"13";"9";"1";"6";"1";"2";"1";"2";"[1,2,3,7]";"2";"0";"1"
"1252";"31";"9";"1";"4";"1";"2";"1";"2";"[1,2,3,5]";"2";"0";"1"
"1253";"22";"9";"1";"22";"1";"2";"1";"1";"[1,2,3,23]";"1";"0";"1"
"1254";"20";"9";"1";"12";"1";"2";"1";"2";"[1,2,3,13]";"2";"0";"1"
"1255";"13";"10";"1";"6";"1";"2";"1";"2";"[1,2,3,7]";"2";"0";"1"
"1256";"31";"10";"1";"4";"1";"2";"1";"2";"[1,2,3,5]";"2";"0";"1"
"1257";"37";"10";"1";"3";"1";"2";"1";"2";"[1,2,4]";"2";"0";"1"
"1258";"37";"11";"1";"3";"1";"2";"1";"2";"[1,2,4]";"2";"0";"1"
"1259";"10";"11";"1";"20";"1";"2";"1";"2";"[1,2,3,21]";"2";"0";"1"
"1260";"25";"11";"1";"1";"1";"2";"1";"2";"[2,3]";"1";"0";"1"
"1261";"21";"12";"1";"9";"1";"2";"1";"2";"[1,2,3,10]";"2";"0";"1"
"1262";"10";"12";"1";"20";"1";"2";"1";"2";"[1,2,3,21]";"2";"0";"1"
"1263";"25";"12";"1";"1";"1";"2";"1";"2";"[2,3]";"1";"0";"1"
"1264";"16";"13";"1";"17";"1";"2";"1";"1";"[1,2,3,18]";"2";"0";"1"
"1265";"21";"13";"1";"9";"1";"2";"1";"2";"[1,2,3,10]";"2";"0";"1"
"1266";"5";"13";"1";"18";"1";"2";"1";"2";"[1,2,3,19]";"2";"0";"1"
"1267";"16";"14";"1";"17";"1";"2";"1";"1";"[1,2,3,18]";"2";"0";"1"
"1268";"5";"14";"1";"18";"1";"2";"1";"2";"[1,2,3,19]";"2";"0";"1"
"1269";"19";"15";"1";"10";"1";"2";"1";"1";"[1,2,3,11]";"1";"0";"1"
"1270";"39";"15";"1";"26";"1";"2";"1";"1";"[1,2,3,27]";"2";"0";"1"
"1271";"19";"16";"1";"10";"1";"2";"1";"1";"[1,2,3,11]";"1";"0";"1"
"1272";"39";"16";"1";"26";"1";"2";"1";"1";"[1,2,3,27]";"2";"0";"1"
"1273";"14";"18";"1";"8";"1";"2";"1";"2";"[1,2,3,9]";"1";"0";"1"
"1274";"14";"19";"1";"8";"1";"2";"1";"2";"[1,2,3,9]";"1";"0";"1"
"1275";"4";"20";"1";"32";"1";"2";"1";"2";"[1,2,3,33]";"2";"0";"1"
"1276";"4";"21";"1";"32";"1";"2";"1";"2";"[1,2,3,33]";"2";"0";"1"
"1277";"12";"1";"1";"11";"1";"2";"2";"2";"[1,2,3,12]";"2";"0";"1"
"1278";"20";"2";"1";"12";"1";"2";"2";"2";"[1,2,3,13]";"2";"0";"1"
"1279";"12";"2";"1";"11";"1";"2";"2";"2";"[1,2,3,12]";"2";"0";"1"
"1280";"32";"3";"1";"16";"1";"2";"2";"2";"[1,2,3,17]";"2";"0";"1"
"1281";"40";"3";"1";"14";"1";"2";"2";"2";"[1,2,3,15]";"2";"0";"1"
"1282";"35";"3";"1";"28";"1";"2";"2";"1";"[1,2,3,29]";"1";"0";"1"
"1283";"3";"3";"1";"19";"1";"2";"2";"2";"[1,2,3,20]";"2";"0";"1"
"1284";"20";"3";"1";"12";"1";"2";"2";"2";"[1,2,3,13]";"2";"0";"1"
"1285";"25";"3";"1";"1";"1";"2";"2";"2";"[2,3]";"2";"0";"1"
"1286";"17";"3";"1";"33";"1";"2";"2";"2";"[1,2,3,34]";"2";"0";"1"
"1287";"15";"4";"1";"23";"1";"2";"2";"1";"[1,2,3,24]";"1";"0";"1"
"1288";"32";"4";"1";"16";"1";"2";"2";"2";"[1,2,3,17]";"2";"0";"1"
"1289";"40";"4";"1";"14";"1";"2";"2";"2";"[1,2,3,15]";"2";"0";"1"
"1290";"31";"4";"1";"4";"1";"2";"2";"2";"[1,2,3,5]";"2";"0";"1"
"1291";"35";"4";"1";"28";"1";"2";"2";"1";"[1,2,3,29]";"1";"0";"1"
"1292";"3";"4";"1";"19";"1";"2";"2";"2";"[1,2,3,20]";"2";"0";"1"
"1293";"7";"4";"1";"21";"1";"2";"2";"2";"[1,2,3,22]";"2";"0";"1"
"1294";"2";"4";"1";"2";"1";"2";"2";"2";"[1,3]";"2";"0";"1"
"1295";"25";"4";"1";"1";"1";"2";"2";"2";"[2,3]";"2";"0";"1"
"1296";"30";"4";"1";"30";"1";"2";"2";"2";"[1,2,3,31]";"2";"0";"1"
"1297";"17";"4";"1";"33";"1";"2";"2";"2";"[1,2,3,34]";"2";"0";"1"
"1298";"15";"5";"1";"23";"1";"2";"2";"1";"[1,2,3,24]";"1";"0";"1"
"1299";"23";"5";"1";"25";"1";"2";"2";"2";"[1,2,3,26]";"2";"0";"1"
"1300";"9";"5";"1";"35";"1";"2";"2";"1";"[1,2,3,36]";"1";"0";"1"
"1301";"5";"5";"1";"18";"1";"2";"2";"2";"[1,2,3,19]";"2";"0";"1"
"1302";"31";"5";"1";"4";"1";"2";"2";"2";"[1,2,3,5]";"2";"0";"1"
"1303";"14";"5";"1";"8";"1";"2";"2";"2";"[1,2,3,9]";"2";"0";"1"
"1304";"7";"5";"1";"21";"1";"2";"2";"2";"[1,2,3,22]";"2";"0";"1"
"1305";"16";"5";"1";"17";"1";"2";"2";"1";"[1,2,3,18]";"2";"0";"1"
"1306";"11";"5";"1";"13";"1";"2";"2";"2";"[1,2,3,14]";"2";"0";"1"
"1307";"2";"5";"1";"2";"1";"2";"2";"2";"[1,3]";"2";"0";"1"
"1308";"36";"5";"1";"27";"1";"2";"2";"2";"[1,2,3,28]";"2";"0";"1"
"1309";"30";"5";"1";"30";"1";"2";"2";"2";"[1,2,3,31]";"2";"0";"1"
"1310";"34";"5";"1";"29";"1";"2";"2";"2";"[1,2,3,30]";"2";"0";"1"
"1311";"18";"6";"1";"40";"1";"2";"2";"2";"[1,2,3]";"2";"0";"1"
"1312";"37";"6";"1";"3";"1";"2";"2";"2";"[1,2,4]";"2";"0";"1"
"1313";"23";"6";"1";"25";"1";"2";"2";"2";"[1,2,3,26]";"2";"0";"1"
"1314";"9";"6";"1";"35";"1";"2";"2";"1";"[1,2,3,36]";"1";"0";"1"
"1315";"5";"6";"1";"18";"1";"2";"2";"2";"[1,2,3,19]";"2";"0";"1"
"1316";"29";"6";"1";"15";"1";"2";"2";"2";"[1,2,3,16]";"2";"0";"1"
"1317";"14";"6";"1";"8";"1";"2";"2";"2";"[1,2,3,9]";"2";"0";"1"
"1318";"16";"6";"1";"17";"1";"2";"2";"1";"[1,2,3,18]";"2";"0";"1"
"1319";"11";"6";"1";"13";"1";"2";"2";"2";"[1,2,3,14]";"2";"0";"1"
"1320";"36";"6";"1";"27";"1";"2";"2";"2";"[1,2,3,28]";"2";"0";"1"
"1321";"34";"6";"1";"29";"1";"2";"2";"2";"[1,2,3,30]";"2";"0";"1"
"1322";"18";"7";"1";"40";"1";"2";"2";"2";"[1,2,3]";"2";"0";"1"
"1323";"37";"7";"1";"3";"1";"2";"2";"2";"[1,2,4]";"2";"0";"1"
"1324";"39";"7";"1";"26";"1";"2";"2";"1";"[1,2,3,27]";"2";"0";"1"
"1325";"29";"7";"1";"15";"1";"2";"2";"2";"[1,2,3,16]";"2";"0";"1"
"1326";"39";"8";"1";"26";"1";"2";"2";"1";"[1,2,3,27]";"2";"0";"1"
"1327";"26";"8";"1";"7";"1";"2";"2";"2";"[1,2,3,8]";"2";"0";"1"
"1328";"33";"8";"1";"34";"1";"2";"2";"2";"[1,2,3,35]";"2";"0";"1"
"1329";"10";"9";"1";"20";"1";"2";"2";"2";"[1,2,3,21]";"2";"0";"1"
"1330";"26";"9";"1";"7";"1";"2";"2";"2";"[1,2,3,8]";"2";"0";"1"
"1331";"28";"9";"1";"24";"1";"2";"2";"2";"[1,2,3,25]";"2";"0";"1"
"1332";"38";"9";"1";"39";"1";"2";"2";"2";"[1,2,3,40]";"2";"0";"1"
"1333";"33";"9";"1";"34";"1";"2";"2";"2";"[1,2,3,35]";"2";"0";"1"
"1334";"10";"10";"1";"20";"1";"2";"2";"2";"[1,2,3,21]";"2";"0";"1"
"1335";"28";"10";"1";"24";"1";"2";"2";"2";"[1,2,3,25]";"2";"0";"1"
"1336";"38";"10";"1";"39";"1";"2";"2";"2";"[1,2,3,40]";"2";"0";"1"
"1337";"24";"11";"1";"5";"1";"2";"2";"2";"[1,2,3,6]";"2";"0";"1"
"1338";"24";"12";"1";"5";"1";"2";"2";"2";"[1,2,3,6]";"2";"0";"1"
"1339";"21";"13";"1";"9";"1";"2";"2";"2";"[1,2,3,10]";"2";"0";"1"
"1340";"22";"13";"1";"22";"1";"2";"2";"1";"[1,2,3,23]";"1";"0";"1"
"1341";"21";"14";"1";"9";"1";"2";"2";"2";"[1,2,3,10]";"2";"0";"1"
"1342";"22";"14";"1";"22";"1";"2";"2";"1";"[1,2,3,23]";"1";"0";"1"
"1343";"8";"14";"1";"38";"1";"2";"2";"1";"[1,2,3,39]";"2";"0";"1"
"1344";"8";"15";"1";"38";"1";"2";"2";"1";"[1,2,3,39]";"2";"0";"1"
"1345";"27";"16";"1";"31";"1";"2";"2";"1";"[1,2,3,32]";"2";"0";"1"
"1346";"1";"17";"1";"36";"1";"2";"2";"1";"[1,2,3,37]";"1";"0";"1"
"1347";"27";"17";"1";"31";"1";"2";"2";"1";"[1,2,3,32]";"2";"0";"1"
"1348";"1";"18";"1";"36";"1";"2";"2";"1";"[1,2,3,37]";"1";"0";"1"
"1349";"13";"18";"1";"6";"1";"2";"2";"2";"[1,2,3,7]";"2";"0";"1"
"1350";"13";"19";"1";"6";"1";"2";"2";"2";"[1,2,3,7]";"2";"0";"1"
"1351";"4";"19";"1";"32";"1";"2";"2";"2";"[1,2,3,33]";"2";"0";"1"
"1352";"4";"20";"1";"32";"1";"2";"2";"2";"[1,2,3,33]";"2";"0";"1"
"1353";"6";"21";"1";"37";"1";"2";"2";"2";"[1,2,3,38]";"2";"0";"1"
"1354";"6";"22";"1";"37";"1";"2";"2";"2";"[1,2,3,38]";"2";"0";"1"
"1355";"19";"29";"1";"10";"1";"2";"2";"1";"[1,2,3,11]";"2";"0";"1"
"1356";"19";"30";"1";"10";"1";"2";"2";"1";"[1,2,3,11]";"2";"0";"1"
"1357";"20";"1";"1";"12";"1";"2";"3";"2";"[1,2,3,13]";"2";"0";"1"
"1358";"12";"1";"1";"11";"1";"2";"3";"2";"[1,2,3,12]";"2";"0";"1"
"1359";"32";"1";"1";"16";"1";"2";"3";"2";"[1,2,3,17]";"2";"0";"1"
"1360";"40";"1";"1";"14";"1";"2";"3";"2";"[1,2,3,15]";"2";"0";"1"
"1361";"38";"2";"1";"39";"1";"2";"3";"2";"[1,2,3,40]";"2";"0";"1"
"1362";"30";"2";"1";"30";"1";"2";"3";"2";"[1,2,3,31]";"2";"0";"1"
"1363";"18";"2";"1";"40";"1";"2";"3";"2";"[1,2,3]";"2";"0";"1"
"1364";"36";"2";"1";"27";"1";"2";"3";"2";"[1,2,3,28]";"2";"0";"1"
"1365";"17";"2";"1";"33";"1";"2";"3";"2";"[1,2,3,34]";"2";"0";"1"
"1366";"11";"2";"1";"13";"1";"2";"3";"2";"[1,2,3,14]";"2";"0";"1"
"1367";"20";"2";"1";"12";"1";"2";"3";"2";"[1,2,3,13]";"2";"0";"1"
"1368";"12";"2";"1";"11";"1";"2";"3";"2";"[1,2,3,12]";"2";"0";"1"
"1369";"32";"2";"1";"16";"1";"2";"3";"2";"[1,2,3,17]";"2";"0";"1"
"1370";"29";"2";"1";"15";"1";"2";"3";"2";"[1,2,3,16]";"2";"0";"1"
"1371";"40";"2";"1";"14";"1";"2";"3";"2";"[1,2,3,15]";"2";"0";"1"
"1372";"38";"3";"1";"39";"1";"2";"3";"2";"[1,2,3,40]";"2";"0";"1"
"1373";"30";"3";"1";"30";"1";"2";"3";"2";"[1,2,3,31]";"2";"0";"1"
"1374";"18";"3";"1";"40";"1";"2";"3";"2";"[1,2,3]";"2";"0";"1"
"1375";"2";"3";"1";"2";"1";"2";"3";"2";"[1,3]";"2";"0";"1"
"1376";"7";"3";"1";"21";"1";"2";"3";"2";"[1,2,3,22]";"2";"0";"1"
"1377";"5";"3";"1";"18";"1";"2";"3";"2";"[1,2,3,19]";"2";"0";"1"
"1378";"36";"3";"1";"27";"1";"2";"3";"2";"[1,2,3,28]";"2";"0";"1"
"1379";"17";"3";"1";"33";"1";"2";"3";"2";"[1,2,3,34]";"2";"0";"1"
"1380";"3";"3";"1";"19";"1";"2";"3";"2";"[1,2,3,20]";"2";"0";"1"
"1381";"28";"3";"1";"24";"1";"2";"3";"2";"[1,2,3,25]";"2";"0";"1"
"1382";"11";"3";"1";"13";"1";"2";"3";"2";"[1,2,3,14]";"2";"0";"1"
"1383";"26";"3";"1";"7";"1";"2";"3";"2";"[1,2,3,8]";"2";"0";"1"
"1384";"29";"3";"1";"15";"1";"2";"3";"2";"[1,2,3,16]";"2";"0";"1"
"1385";"2";"4";"1";"2";"1";"2";"3";"2";"[1,3]";"2";"0";"1"
"1386";"7";"4";"1";"21";"1";"2";"3";"2";"[1,2,3,22]";"2";"0";"1"
"1387";"34";"4";"1";"29";"1";"2";"3";"2";"[1,2,3,30]";"1";"0";"1"
"1388";"5";"4";"1";"18";"1";"2";"3";"2";"[1,2,3,19]";"2";"0";"1"
"1389";"3";"4";"1";"19";"1";"2";"3";"2";"[1,2,3,20]";"2";"0";"1"
"1390";"28";"4";"1";"24";"1";"2";"3";"2";"[1,2,3,25]";"2";"0";"1"
"1391";"26";"4";"1";"7";"1";"2";"3";"2";"[1,2,3,8]";"2";"0";"1"
"1392";"15";"4";"1";"23";"1";"2";"3";"1";"[1,2,3,24]";"2";"0";"1"
"1393";"31";"4";"1";"4";"1";"2";"3";"2";"[1,2,3,5]";"2";"0";"1"
"1394";"22";"5";"1";"22";"1";"2";"3";"1";"[1,2,3,23]";"2";"0";"1"
"1395";"23";"5";"1";"25";"1";"2";"3";"2";"[1,2,3,26]";"2";"0";"1"
"1396";"34";"5";"1";"29";"1";"2";"3";"2";"[1,2,3,30]";"1";"0";"1"
"1397";"33";"5";"1";"34";"1";"2";"3";"2";"[1,2,3,35]";"2";"0";"1"
"1398";"15";"5";"1";"23";"1";"2";"3";"1";"[1,2,3,24]";"2";"0";"1"
"1399";"31";"5";"1";"4";"1";"2";"3";"2";"[1,2,3,5]";"2";"0";"1"
"1400";"39";"6";"1";"26";"1";"2";"3";"1";"[1,2,3,27]";"2";"0";"1"
"1401";"10";"6";"1";"20";"1";"2";"3";"2";"[1,2,3,21]";"2";"0";"1"
"1402";"22";"6";"1";"22";"1";"2";"3";"1";"[1,2,3,23]";"2";"0";"1"
"1403";"23";"6";"1";"25";"1";"2";"3";"2";"[1,2,3,26]";"2";"0";"1"
"1404";"14";"6";"1";"8";"1";"2";"3";"2";"[1,2,3,9]";"2";"0";"1"
"1405";"21";"6";"1";"9";"1";"2";"3";"2";"[1,2,3,10]";"2";"0";"1"
"1406";"8";"6";"1";"38";"1";"2";"3";"1";"[1,2,3,39]";"2";"0";"1"
"1407";"33";"6";"1";"34";"1";"2";"3";"2";"[1,2,3,35]";"2";"0";"1"
"1408";"37";"6";"1";"3";"1";"2";"3";"2";"[1,2,4]";"2";"0";"1"
"1409";"39";"7";"1";"26";"1";"2";"3";"1";"[1,2,3,27]";"2";"0";"1"
"1410";"10";"7";"1";"20";"1";"2";"3";"2";"[1,2,3,21]";"2";"0";"1"
"1411";"35";"7";"1";"28";"1";"2";"3";"1";"[1,2,3,29]";"1";"0";"1"
"1412";"14";"7";"1";"8";"1";"2";"3";"2";"[1,2,3,9]";"2";"0";"1"
"1413";"21";"7";"1";"9";"1";"2";"3";"2";"[1,2,3,10]";"2";"0";"1"
"1414";"24";"7";"1";"5";"1";"2";"3";"2";"[1,2,3,6]";"2";"0";"1"
"1415";"8";"7";"1";"38";"1";"2";"3";"1";"[1,2,3,39]";"2";"0";"1"
"1416";"37";"7";"1";"3";"1";"2";"3";"2";"[1,2,4]";"2";"0";"1"
"1417";"6";"7";"1";"37";"1";"2";"3";"2";"[1,2,3,38]";"2";"0";"1"
"1418";"35";"8";"1";"28";"1";"2";"3";"1";"[1,2,3,29]";"1";"0";"1"
"1419";"24";"8";"1";"5";"1";"2";"3";"2";"[1,2,3,6]";"2";"0";"1"
"1420";"4";"8";"1";"32";"1";"2";"3";"2";"[1,2,3,33]";"2";"0";"1"
"1421";"6";"8";"1";"37";"1";"2";"3";"2";"[1,2,3,38]";"2";"0";"1"
"1422";"4";"9";"1";"32";"1";"2";"3";"2";"[1,2,3,33]";"2";"0";"1"
"1423";"16";"10";"1";"17";"1";"2";"3";"1";"[1,2,3,18]";"2";"0";"1"
"1424";"25";"11";"1";"1";"1";"2";"3";"2";"[2,3]";"2";"0";"1"
"1425";"1";"11";"1";"36";"1";"2";"3";"1";"[1,2,3,37]";"1";"0";"1"
"1426";"16";"11";"1";"17";"1";"2";"3";"1";"[1,2,3,18]";"2";"0";"1"
"1427";"27";"11";"1";"31";"1";"2";"3";"1";"[1,2,3,32]";"2";"0";"1"
"1428";"25";"12";"1";"1";"1";"2";"3";"2";"[2,3]";"2";"0";"1"
"1429";"1";"12";"1";"36";"1";"2";"3";"1";"[1,2,3,37]";"1";"0";"1"
"1430";"27";"12";"1";"31";"1";"2";"3";"1";"[1,2,3,32]";"2";"0";"1"
"1431";"13";"15";"1";"6";"1";"2";"3";"2";"[1,2,3,7]";"2";"0";"1"
"1432";"13";"16";"1";"6";"1";"2";"3";"2";"[1,2,3,7]";"2";"0";"1"
"1433";"19";"19";"1";"10";"1";"2";"3";"1";"[1,2,3,11]";"2";"0";"1"
"1434";"19";"20";"1";"10";"1";"2";"3";"1";"[1,2,3,11]";"2";"0";"1"
"1435";"9";"23";"1";"35";"1";"2";"3";"1";"[1,2,3,36]";"2";"0";"1"
"1436";"9";"24";"1";"35";"1";"2";"3";"1";"[1,2,3,36]";"2";"0";"1"
"1437";"17";"1";"1";"33";"1";"2";"4";"2";"[1,2,3,34]";"2";"0";"1"
"1438";"38";"1";"1";"39";"1";"2";"4";"2";"[1,2,3,40]";"2";"0";"1"
"1439";"18";"1";"1";"40";"1";"2";"4";"2";"[1,2,3]";"2";"0";"1"
"1440";"12";"1";"1";"11";"1";"2";"4";"2";"[1,2,3,12]";"2";"0";"1"
"1441";"20";"1";"1";"12";"1";"2";"4";"2";"[1,2,3,13]";"2";"0";"1"
"1442";"25";"1";"1";"1";"1";"2";"4";"2";"[2,3]";"2";"0";"1"
"1443";"30";"1";"1";"30";"1";"2";"4";"2";"[1,2,3,31]";"2";"0";"1"
"1444";"3";"1";"1";"19";"1";"2";"4";"2";"[1,2,3,20]";"2";"0";"1"
"1445";"40";"1";"1";"14";"1";"2";"4";"2";"[1,2,3,15]";"2";"0";"1"
"1446";"17";"2";"1";"33";"1";"2";"4";"2";"[1,2,3,34]";"2";"0";"1"
"1447";"38";"2";"1";"39";"1";"2";"4";"2";"[1,2,3,40]";"2";"0";"1"
"1448";"5";"2";"1";"18";"1";"2";"4";"2";"[1,2,3,19]";"2";"0";"1"
"1449";"18";"2";"1";"40";"1";"2";"4";"2";"[1,2,3]";"2";"0";"1"
"1450";"29";"2";"1";"15";"1";"2";"4";"2";"[1,2,3,16]";"2";"0";"1"
"1451";"12";"2";"1";"11";"1";"2";"4";"2";"[1,2,3,12]";"2";"0";"1"
"1452";"20";"2";"1";"12";"1";"2";"4";"2";"[1,2,3,13]";"2";"0";"1"
"1453";"8";"2";"1";"38";"1";"2";"4";"1";"[1,2,3,39]";"2";"0";"1"
"1454";"4";"2";"1";"32";"1";"2";"4";"2";"[1,2,3,33]";"2";"0";"1"
"1455";"25";"2";"1";"1";"1";"2";"4";"2";"[2,3]";"2";"0";"1"
"1456";"30";"2";"1";"30";"1";"2";"4";"2";"[1,2,3,31]";"2";"0";"1"
"1457";"3";"2";"1";"19";"1";"2";"4";"2";"[1,2,3,20]";"2";"0";"1"
"1458";"22";"2";"1";"22";"1";"2";"4";"1";"[1,2,3,23]";"2";"0";"1"
"1459";"40";"2";"1";"14";"1";"2";"4";"2";"[1,2,3,15]";"2";"0";"1"
"1460";"2";"3";"1";"2";"1";"2";"4";"2";"[1,3]";"2";"0";"1"
"1461";"7";"3";"1";"21";"1";"2";"4";"2";"[1,2,3,22]";"2";"0";"1"
"1462";"13";"3";"1";"6";"1";"2";"4";"2";"[1,2,3,7]";"2";"0";"1"
"1463";"35";"3";"1";"28";"1";"2";"4";"1";"[1,2,3,29]";"1";"0";"1"
"1464";"5";"3";"1";"18";"1";"2";"4";"2";"[1,2,3,19]";"2";"0";"1"
"1465";"26";"3";"1";"7";"1";"2";"4";"2";"[1,2,3,8]";"2";"0";"1"
"1466";"29";"3";"1";"15";"1";"2";"4";"2";"[1,2,3,16]";"2";"0";"1"
"1467";"28";"3";"1";"24";"1";"2";"4";"2";"[1,2,3,25]";"2";"0";"1"
"1468";"8";"3";"1";"38";"1";"2";"4";"1";"[1,2,3,39]";"2";"0";"1"
"1469";"4";"3";"1";"32";"1";"2";"4";"2";"[1,2,3,33]";"2";"0";"1"
"1470";"15";"3";"1";"23";"1";"2";"4";"1";"[1,2,3,24]";"2";"0";"1"
"1471";"22";"3";"1";"22";"1";"2";"4";"1";"[1,2,3,23]";"2";"0";"1"
"1472";"23";"3";"1";"25";"1";"2";"4";"2";"[1,2,3,26]";"2";"0";"1"
"1473";"36";"3";"1";"27";"1";"2";"4";"2";"[1,2,3,28]";"2";"0";"1"
"1474";"2";"4";"1";"2";"1";"2";"4";"2";"[1,3]";"2";"0";"1"
"1475";"7";"4";"1";"21";"1";"2";"4";"2";"[1,2,3,22]";"2";"0";"1"
"1476";"13";"4";"1";"6";"1";"2";"4";"2";"[1,2,3,7]";"2";"0";"1"
"1477";"35";"4";"1";"28";"1";"2";"4";"1";"[1,2,3,29]";"1";"0";"1"
"1478";"32";"4";"1";"16";"1";"2";"4";"2";"[1,2,3,17]";"2";"0";"1"
"1479";"14";"4";"1";"8";"1";"2";"4";"2";"[1,2,3,9]";"2";"0";"1"
"1480";"26";"4";"1";"7";"1";"2";"4";"2";"[1,2,3,8]";"2";"0";"1"
"1481";"28";"4";"1";"24";"1";"2";"4";"2";"[1,2,3,25]";"2";"0";"1"
"1482";"27";"4";"1";"31";"1";"2";"4";"1";"[1,2,3,32]";"2";"0";"1"
"1483";"1";"4";"1";"36";"1";"2";"4";"1";"[1,2,3,37]";"2";"0";"1"
"1484";"15";"4";"1";"23";"1";"2";"4";"1";"[1,2,3,24]";"2";"0";"1"
"1485";"23";"4";"1";"25";"1";"2";"4";"2";"[1,2,3,26]";"2";"0";"1"
"1486";"36";"4";"1";"27";"1";"2";"4";"2";"[1,2,3,28]";"2";"0";"1"
"1487";"9";"5";"1";"35";"1";"2";"4";"1";"[1,2,3,36]";"2";"0";"1"
"1488";"34";"5";"1";"29";"1";"2";"4";"2";"[1,2,3,30]";"2";"0";"1"
"1489";"33";"5";"1";"34";"1";"2";"4";"2";"[1,2,3,35]";"2";"0";"1"
"1490";"32";"5";"1";"16";"1";"2";"4";"2";"[1,2,3,17]";"2";"0";"1"
"1491";"14";"5";"1";"8";"1";"2";"4";"2";"[1,2,3,9]";"2";"0";"1"
"1492";"11";"5";"1";"13";"1";"2";"4";"2";"[1,2,3,14]";"2";"0";"1"
"1493";"27";"5";"1";"31";"1";"2";"4";"1";"[1,2,3,32]";"2";"0";"1"
"1494";"1";"5";"1";"36";"1";"2";"4";"1";"[1,2,3,37]";"2";"0";"1"
"1495";"9";"6";"1";"35";"1";"2";"4";"1";"[1,2,3,36]";"2";"0";"1"
"1496";"34";"6";"1";"29";"1";"2";"4";"2";"[1,2,3,30]";"2";"0";"1"
"1497";"33";"6";"1";"34";"1";"2";"4";"2";"[1,2,3,35]";"2";"0";"1"
"1498";"11";"6";"1";"13";"1";"2";"4";"2";"[1,2,3,14]";"2";"0";"1"
"1499";"39";"8";"1";"26";"1";"2";"4";"1";"[1,2,3,27]";"2";"0";"1"
"1500";"16";"9";"1";"17";"1";"2";"4";"1";"[1,2,3,18]";"2";"0";"1"
"1501";"39";"9";"1";"26";"1";"2";"4";"1";"[1,2,3,27]";"2";"0";"1"
"1502";"16";"10";"1";"17";"1";"2";"4";"1";"[1,2,3,18]";"2";"0";"1"
"1503";"37";"10";"1";"3";"1";"2";"4";"2";"[1,2,4]";"2";"0";"1"
"1504";"37";"11";"1";"3";"1";"2";"4";"2";"[1,2,4]";"2";"0";"1"
"1505";"19";"13";"1";"10";"1";"2";"4";"1";"[1,2,3,11]";"2";"0";"1"
"1506";"9";"13";"1";"35";"1";"2";"4";"1";"[1,2,3,36]";"2";"1";"1"
"1507";"24";"13";"1";"5";"1";"2";"4";"2";"[1,2,3,6]";"2";"0";"1"
"1508";"19";"14";"1";"10";"1";"2";"4";"1";"[1,2,3,11]";"2";"0";"1"
"1509";"24";"14";"1";"5";"1";"2";"4";"2";"[1,2,3,6]";"2";"0";"1"
"1510";"9";"15";"1";"35";"1";"2";"4";"1";"[1,2,3,36]";"2";"2";"1"
"1511";"21";"16";"1";"9";"1";"2";"4";"2";"[1,2,3,10]";"2";"0";"1"
"1512";"9";"16";"1";"35";"1";"2";"4";"1";"[1,2,3,36]";"2";"1";"1"
"1513";"9";"17";"1";"35";"1";"2";"4";"1";"[1,2,3,36]";"2";"2";"1"
"1514";"21";"17";"1";"9";"1";"2";"4";"2";"[1,2,3,10]";"2";"0";"1"
"1515";"31";"17";"1";"4";"1";"2";"4";"2";"[1,2,3,5]";"2";"0";"1"
"1516";"9";"17";"1";"35";"1";"2";"4";"1";"[1,2,3,36]";"2";"3";"1"
