"id";"id_subj";"time";"session";"id_grp";"grp";"round";"period";"sig";"links";"choice";"hist";"active"
"1";"30";"0";"1";"18";"1";"1";"1";"1";"[5,16,17,19,20]";"0";"0";"1"
"2";"5";"0";"1";"13";"1";"1";"1";"1";"[11,12,14,15]";"0";"0";"1"
"3";"4";"0";"1";"22";"1";"1";"1";"1";"[1,21,23,24]";"0";"0";"1"
"4";"2";"0";"1";"38";"1";"1";"1";"2";"[4,36,39,40]";"0";"0";"1"
"5";"25";"0";"1";"8";"1";"1";"1";"1";"[4,6,7,9]";"0";"0";"1"
"6";"14";"0";"1";"19";"1";"1";"1";"1";"[2,9,16,17,18,20]";"0";"0";"1"
"7";"29";"0";"1";"32";"1";"1";"1";"1";"[17,31,33,34,35]";"0";"0";"1"
"8";"7";"0";"1";"35";"1";"1";"1";"1";"[31,32,33]";"0";"0";"1"
"9";"1";"0";"1";"3";"1";"1";"1";"1";"[1,2]";"0";"0";"1"
"10";"36";"0";"1";"5";"1";"1";"1";"1";"[1,2,4,18]";"0";"0";"1"
"11";"6";"0";"1";"33";"1";"1";"1";"2";"[7,31,32,35]";"0";"0";"1"
"12";"21";"0";"1";"25";"1";"1";"1";"1";"[21,23,24]";"0";"0";"1"
"13";"28";"0";"1";"34";"1";"1";"1";"2";"[31,32]";"0";"0";"1"
"14";"8";"0";"1";"36";"1";"1";"1";"1";"[9,37,38,40]";"0";"0";"1"
"15";"38";"0";"1";"7";"1";"1";"1";"1";"[6,8,9,33]";"0";"0";"1"
"16";"18";"0";"1";"17";"1";"1";"1";"1";"[16,18,19,20,32]";"0";"0";"1"
"17";"31";"0";"1";"14";"1";"1";"1";"1";"[11,12,13,15]";"0";"0";"1"
"18";"13";"0";"1";"31";"1";"1";"1";"1";"[32,33,34,35]";"0";"0";"1"
"19";"24";"0";"1";"39";"1";"1";"1";"2";"[37,38,40]";"0";"0";"1"
"20";"3";"0";"1";"9";"1";"1";"1";"1";"[6,7,8,10,19,36]";"0";"0";"1"
"21";"39";"0";"1";"27";"1";"1";"1";"2";"[26,28,29,30]";"0";"0";"1"
"22";"10";"0";"1";"11";"1";"1";"1";"1";"[12,13,14,15]";"0";"0";"1"
"23";"12";"0";"1";"26";"1";"1";"1";"2";"[4,27,28,29,30]";"0";"0";"1"
"24";"37";"0";"1";"1";"1";"1";"1";"1";"[2,3,4,5,22]";"0";"0";"1"
"25";"20";"0";"1";"29";"1";"1";"1";"1";"[26,27,28]";"0";"0";"1"
"26";"17";"0";"1";"30";"1";"1";"1";"1";"[15,26,27]";"0";"0";"1"
"27";"19";"0";"1";"21";"1";"1";"1";"1";"[22,23,24,25]";"0";"0";"1"
"28";"23";"0";"1";"24";"1";"1";"1";"1";"[21,22,23,25]";"0";"0";"1"
"29";"35";"0";"1";"28";"1";"1";"1";"1";"[26,27,29]";"0";"0";"1"
"30";"22";"0";"1";"23";"1";"1";"1";"1";"[15,21,22,24,25]";"0";"0";"1"
"31";"27";"0";"1";"15";"1";"1";"1";"2";"[11,12,13,14,23,30]";"0";"0";"1"
"32";"15";"0";"1";"16";"1";"1";"1";"1";"[17,18,19,20]";"0";"0";"1"
"33";"40";"0";"1";"10";"1";"1";"1";"2";"[9]";"0";"0";"1"
"34";"26";"0";"1";"12";"1";"1";"1";"1";"[11,13,14,15]";"0";"0";"1"
"35";"16";"0";"1";"20";"1";"1";"1";"2";"[16,17,18,19]";"0";"0";"1"
"36";"34";"0";"1";"6";"1";"1";"1";"1";"[7,8,9]";"0";"0";"1"
"37";"32";"0";"1";"2";"1";"1";"1";"1";"[1,3,4,5,19]";"0";"0";"1"
"38";"33";"0";"1";"4";"1";"1";"1";"1";"[1,2,5,8,26,38]";"0";"0";"1"
"39";"9";"0";"1";"40";"1";"1";"1";"2";"[36,37,38,39]";"0";"0";"1"
"40";"11";"0";"1";"37";"1";"1";"1";"1";"[36,39,40]";"0";"0";"1"
"41";"30";"4";"1";"18";"1";"1";"1";"1";"[5,16,17,19,20]";"1";"0";"1"
"42";"30";"5";"1";"18";"1";"1";"1";"1";"[5,16,17,19,20]";"1";"0";"1"
"43";"34";"6";"1";"6";"1";"1";"1";"1";"[7,8,9]";"1";"0";"1"
"44";"5";"6";"1";"13";"1";"1";"1";"1";"[11,12,14,15]";"2";"0";"1"
"45";"1";"6";"1";"3";"1";"1";"1";"1";"[1,2]";"1";"0";"1"
"46";"33";"7";"1";"4";"1";"1";"1";"1";"[1,2,5,8,26,38]";"1";"0";"1"
"47";"25";"7";"1";"8";"1";"1";"1";"1";"[4,6,7,9]";"1";"0";"1"
"48";"34";"7";"1";"6";"1";"1";"1";"1";"[7,8,9]";"1";"0";"1"
"49";"26";"7";"1";"12";"1";"1";"1";"1";"[11,13,14,15]";"1";"0";"1"
"50";"5";"7";"1";"13";"1";"1";"1";"1";"[11,12,14,15]";"2";"0";"1"
"51";"2";"7";"1";"38";"1";"1";"1";"2";"[4,36,39,40]";"2";"0";"1"
"52";"21";"7";"1";"25";"1";"1";"1";"1";"[21,23,24]";"1";"0";"1"
"53";"1";"7";"1";"3";"1";"1";"1";"1";"[1,2]";"1";"0";"1"
"54";"37";"7";"1";"1";"1";"1";"1";"1";"[2,3,4,5,22]";"1";"0";"1"
"55";"22";"8";"1";"23";"1";"1";"1";"1";"[15,21,22,24,25]";"1";"0";"1"
"56";"6";"8";"1";"33";"1";"1";"1";"2";"[7,31,32,35]";"1";"0";"1"
"57";"33";"8";"1";"4";"1";"1";"1";"1";"[1,2,5,8,26,38]";"1";"0";"1"
"58";"25";"8";"1";"8";"1";"1";"1";"1";"[4,6,7,9]";"1";"0";"1"
"59";"26";"8";"1";"12";"1";"1";"1";"1";"[11,13,14,15]";"1";"0";"1"
"60";"2";"8";"1";"38";"1";"1";"1";"2";"[4,36,39,40]";"2";"0";"1"
"61";"21";"8";"1";"25";"1";"1";"1";"1";"[21,23,24]";"1";"0";"1"
"62";"37";"8";"1";"1";"1";"1";"1";"1";"[2,3,4,5,22]";"1";"0";"1"
"63";"8";"8";"1";"36";"1";"1";"1";"1";"[9,37,38,40]";"1";"0";"1"
"64";"22";"9";"1";"23";"1";"1";"1";"1";"[15,21,22,24,25]";"1";"0";"1"
"65";"18";"9";"1";"17";"1";"1";"1";"1";"[16,18,19,20,32]";"1";"0";"1"
"66";"6";"9";"1";"33";"1";"1";"1";"2";"[7,31,32,35]";"1";"0";"1"
"67";"27";"9";"1";"15";"1";"1";"1";"2";"[11,12,13,14,23,30]";"2";"0";"1"
"68";"8";"9";"1";"36";"1";"1";"1";"1";"[9,37,38,40]";"1";"0";"1"
"69";"23";"10";"1";"24";"1";"1";"1";"1";"[21,22,23,25]";"2";"0";"1"
"70";"18";"10";"1";"17";"1";"1";"1";"1";"[16,18,19,20,32]";"1";"0";"1"
"71";"24";"10";"1";"39";"1";"1";"1";"2";"[37,38,40]";"2";"0";"1"
"72";"20";"10";"1";"29";"1";"1";"1";"1";"[26,27,28]";"1";"0";"1"
"73";"17";"10";"1";"30";"1";"1";"1";"1";"[15,26,27]";"1";"0";"1"
"74";"27";"10";"1";"15";"1";"1";"1";"2";"[11,12,13,14,23,30]";"2";"0";"1"
"75";"3";"10";"1";"9";"1";"1";"1";"1";"[6,7,8,10,19,36]";"1";"0";"1"
"76";"35";"10";"1";"28";"1";"1";"1";"1";"[26,27,29]";"1";"0";"1"
"77";"23";"11";"1";"24";"1";"1";"1";"1";"[21,22,23,25]";"2";"0";"1"
"78";"15";"11";"1";"16";"1";"1";"1";"1";"[17,18,19,20]";"1";"0";"1"
"79";"31";"11";"1";"14";"1";"1";"1";"1";"[11,12,13,15]";"1";"0";"1"
"80";"14";"11";"1";"19";"1";"1";"1";"1";"[2,9,16,17,18,20]";"2";"0";"1"
"81";"24";"11";"1";"39";"1";"1";"1";"2";"[37,38,40]";"2";"0";"1"
"82";"20";"11";"1";"29";"1";"1";"1";"1";"[26,27,28]";"1";"0";"1"
"83";"17";"11";"1";"30";"1";"1";"1";"1";"[15,26,27]";"1";"0";"1"
"84";"36";"11";"1";"5";"1";"1";"1";"1";"[1,2,4,18]";"1";"0";"1"
"85";"3";"11";"1";"9";"1";"1";"1";"1";"[6,7,8,10,19,36]";"1";"0";"1"
"86";"28";"11";"1";"34";"1";"1";"1";"2";"[31,32]";"1";"0";"1"
"87";"35";"12";"1";"28";"1";"1";"1";"1";"[26,27,29]";"1";"0";"1"
"88";"15";"12";"1";"16";"1";"1";"1";"1";"[17,18,19,20]";"1";"0";"1"
"89";"40";"12";"1";"10";"1";"1";"1";"2";"[9]";"2";"0";"1"
"90";"7";"12";"1";"35";"1";"1";"1";"1";"[31,32,33]";"2";"0";"1"
"91";"31";"12";"1";"14";"1";"1";"1";"1";"[11,12,13,15]";"1";"0";"1"
"92";"14";"12";"1";"19";"1";"1";"1";"1";"[2,9,16,17,18,20]";"2";"0";"1"
"93";"36";"12";"1";"5";"1";"1";"1";"1";"[1,2,4,18]";"1";"0";"1"
"94";"12";"12";"1";"26";"1";"1";"1";"2";"[4,27,28,29,30]";"2";"0";"1"
"95";"38";"12";"1";"7";"1";"1";"1";"1";"[6,8,9,33]";"1";"0";"1"
"96";"32";"12";"1";"2";"1";"1";"1";"1";"[1,3,4,5,19]";"1";"0";"1"
"97";"28";"12";"1";"34";"1";"1";"1";"2";"[31,32]";"1";"0";"1"
"98";"40";"13";"1";"10";"1";"1";"1";"2";"[9]";"2";"0";"1"
"99";"16";"13";"1";"20";"1";"1";"1";"2";"[16,17,18,19]";"2";"0";"1"
"100";"7";"13";"1";"35";"1";"1";"1";"1";"[31,32,33]";"2";"0";"1"
"101";"4";"13";"1";"22";"1";"1";"1";"1";"[1,21,23,24]";"1";"0";"1"
"102";"12";"13";"1";"26";"1";"1";"1";"2";"[4,27,28,29,30]";"2";"0";"1"
"103";"38";"13";"1";"7";"1";"1";"1";"1";"[6,8,9,33]";"1";"0";"1"
"104";"32";"13";"1";"2";"1";"1";"1";"1";"[1,3,4,5,19]";"1";"0";"1"
"105";"16";"14";"1";"20";"1";"1";"1";"2";"[16,17,18,19]";"2";"0";"1"
"106";"4";"14";"1";"22";"1";"1";"1";"1";"[1,21,23,24]";"1";"0";"1"
"107";"13";"15";"1";"31";"1";"1";"1";"1";"[32,33,34,35]";"1";"0";"1"
"108";"13";"16";"1";"31";"1";"1";"1";"1";"[32,33,34,35]";"1";"0";"1"
"109";"39";"17";"1";"27";"1";"1";"1";"2";"[26,28,29,30]";"2";"0";"1"
"110";"39";"18";"1";"27";"1";"1";"1";"2";"[26,28,29,30]";"2";"0";"1"
"111";"11";"19";"1";"37";"1";"1";"1";"1";"[36,39,40]";"1";"0";"1"
"112";"9";"19";"1";"40";"1";"1";"1";"2";"[36,37,38,39]";"2";"0";"1"
"113";"19";"20";"1";"21";"1";"1";"1";"1";"[22,23,24,25]";"1";"0";"1"
"114";"11";"20";"1";"37";"1";"1";"1";"1";"[36,39,40]";"1";"0";"1"
"115";"9";"20";"1";"40";"1";"1";"1";"2";"[36,37,38,39]";"2";"0";"1"
"116";"19";"21";"1";"21";"1";"1";"1";"1";"[22,23,24,25]";"1";"0";"1"
"117";"29";"24";"1";"32";"1";"1";"1";"1";"[17,31,33,34,35]";"1";"0";"1"
"118";"29";"25";"1";"32";"1";"1";"1";"1";"[17,31,33,34,35]";"1";"0";"1"
"119";"10";"25";"1";"11";"1";"1";"1";"1";"[12,13,14,15]";"2";"0";"1"
"120";"10";"26";"1";"11";"1";"1";"1";"1";"[12,13,14,15]";"2";"0";"1"
"121";"6";"2";"1";"33";"1";"1";"2";"2";"[7,31,32,35]";"2";"0";"1"
"122";"34";"3";"1";"6";"1";"1";"2";"1";"[7,8,9]";"1";"0";"1"
"123";"6";"3";"1";"33";"1";"1";"2";"2";"[7,31,32,35]";"2";"0";"1"
"124";"1";"4";"1";"3";"1";"1";"2";"1";"[1,2]";"1";"0";"1"
"125";"34";"4";"1";"6";"1";"1";"2";"1";"[7,8,9]";"1";"0";"1"
"126";"1";"5";"1";"3";"1";"1";"2";"1";"[1,2]";"1";"0";"1"
"127";"25";"5";"1";"8";"1";"1";"2";"1";"[4,6,7,9]";"1";"0";"1"
"128";"35";"5";"1";"28";"1";"1";"2";"1";"[26,27,29]";"2";"0";"1"
"129";"27";"6";"1";"15";"1";"1";"2";"2";"[11,12,13,14,23,30]";"2";"0";"1"
"130";"33";"6";"1";"4";"1";"1";"2";"1";"[1,2,5,8,26,38]";"1";"0";"1"
"131";"16";"6";"1";"20";"1";"1";"2";"2";"[16,17,18,19]";"2";"0";"1"
"132";"32";"6";"1";"2";"1";"1";"2";"1";"[1,3,4,5,19]";"1";"0";"1"
"133";"25";"6";"1";"8";"1";"1";"2";"1";"[4,6,7,9]";"1";"0";"1"
"134";"35";"6";"1";"28";"1";"1";"2";"1";"[26,27,29]";"2";"0";"1"
"135";"27";"7";"1";"15";"1";"1";"2";"2";"[11,12,13,14,23,30]";"2";"0";"1"
"136";"33";"7";"1";"4";"1";"1";"2";"1";"[1,2,5,8,26,38]";"1";"0";"1"
"137";"30";"7";"1";"18";"1";"1";"2";"1";"[5,16,17,19,20]";"1";"0";"1"
"138";"16";"7";"1";"20";"1";"1";"2";"2";"[16,17,18,19]";"2";"0";"1"
"139";"32";"7";"1";"2";"1";"1";"2";"1";"[1,3,4,5,19]";"1";"0";"1"
"140";"5";"7";"1";"13";"1";"1";"2";"1";"[11,12,14,15]";"2";"0";"1"
"141";"26";"8";"1";"12";"1";"1";"2";"1";"[11,13,14,15]";"2";"0";"1"
"142";"36";"8";"1";"5";"1";"1";"2";"1";"[1,2,4,18]";"1";"0";"1"
"143";"2";"8";"1";"38";"1";"1";"2";"2";"[4,36,39,40]";"2";"0";"1"
"144";"30";"8";"1";"18";"1";"1";"2";"1";"[5,16,17,19,20]";"1";"0";"1"
"145";"24";"8";"1";"39";"1";"1";"2";"2";"[37,38,40]";"2";"0";"1"
"146";"23";"8";"1";"24";"1";"1";"2";"1";"[21,22,23,25]";"1";"0";"1"
"147";"5";"8";"1";"13";"1";"1";"2";"1";"[11,12,14,15]";"2";"0";"1"
"148";"38";"8";"1";"7";"1";"1";"2";"1";"[6,8,9,33]";"1";"0";"1"
"149";"18";"9";"1";"17";"1";"1";"2";"1";"[16,18,19,20,32]";"1";"0";"1"
"150";"26";"9";"1";"12";"1";"1";"2";"1";"[11,13,14,15]";"2";"0";"1"
"151";"36";"9";"1";"5";"1";"1";"2";"1";"[1,2,4,18]";"1";"0";"1"
"152";"7";"9";"1";"35";"1";"1";"2";"1";"[31,32,33]";"2";"0";"1"
"153";"28";"9";"1";"34";"1";"1";"2";"2";"[31,32]";"1";"0";"1"
"154";"2";"9";"1";"38";"1";"1";"2";"2";"[4,36,39,40]";"2";"0";"1"
"155";"14";"9";"1";"19";"1";"1";"2";"1";"[2,9,16,17,18,20]";"1";"0";"1"
"156";"24";"9";"1";"39";"1";"1";"2";"2";"[37,38,40]";"2";"0";"1"
"157";"21";"9";"1";"25";"1";"1";"2";"1";"[21,23,24]";"1";"0";"1"
"158";"23";"9";"1";"24";"1";"1";"2";"1";"[21,22,23,25]";"1";"0";"1"
"159";"13";"9";"1";"31";"1";"1";"2";"1";"[32,33,34,35]";"1";"0";"1"
"160";"38";"9";"1";"7";"1";"1";"2";"1";"[6,8,9,33]";"1";"0";"1"
"161";"18";"10";"1";"17";"1";"1";"2";"1";"[16,18,19,20,32]";"1";"0";"1"
"162";"8";"10";"1";"36";"1";"1";"2";"1";"[9,37,38,40]";"1";"0";"1"
"163";"7";"10";"1";"35";"1";"1";"2";"1";"[31,32,33]";"2";"0";"1"
"164";"28";"10";"1";"34";"1";"1";"2";"2";"[31,32]";"1";"0";"1"
"165";"22";"10";"1";"23";"1";"1";"2";"1";"[15,21,22,24,25]";"1";"0";"1"
"166";"14";"10";"1";"19";"1";"1";"2";"1";"[2,9,16,17,18,20]";"1";"0";"1"
"167";"39";"10";"1";"27";"1";"1";"2";"2";"[26,28,29,30]";"1";"0";"1"
"168";"21";"10";"1";"25";"1";"1";"2";"1";"[21,23,24]";"1";"0";"1"
"169";"13";"10";"1";"31";"1";"1";"2";"1";"[32,33,34,35]";"1";"0";"1"
"170";"3";"11";"1";"9";"1";"1";"2";"1";"[6,7,8,10,19,36]";"1";"0";"1"
"171";"8";"11";"1";"36";"1";"1";"2";"1";"[9,37,38,40]";"1";"0";"1"
"172";"22";"11";"1";"23";"1";"1";"2";"1";"[15,21,22,24,25]";"1";"0";"1"
"173";"4";"11";"1";"22";"1";"1";"2";"1";"[1,21,23,24]";"1";"0";"1"
"174";"39";"11";"1";"27";"1";"1";"2";"2";"[26,28,29,30]";"1";"0";"1"
"175";"3";"12";"1";"9";"1";"1";"2";"1";"[6,7,8,10,19,36]";"1";"0";"1"
"176";"4";"12";"1";"22";"1";"1";"2";"1";"[1,21,23,24]";"1";"0";"1"
"177";"11";"13";"1";"37";"1";"1";"2";"1";"[36,39,40]";"1";"0";"1"
"178";"37";"14";"1";"1";"1";"1";"2";"1";"[2,3,4,5,22]";"1";"0";"1"
"179";"11";"14";"1";"37";"1";"1";"2";"1";"[36,39,40]";"1";"0";"1"
"180";"15";"14";"1";"16";"1";"1";"2";"1";"[17,18,19,20]";"2";"0";"1"
"181";"19";"14";"1";"21";"1";"1";"2";"1";"[22,23,24,25]";"1";"0";"1"
"182";"37";"15";"1";"1";"1";"1";"2";"1";"[2,3,4,5,22]";"1";"0";"1"
"183";"15";"15";"1";"16";"1";"1";"2";"1";"[17,18,19,20]";"2";"0";"1"
"184";"19";"15";"1";"21";"1";"1";"2";"1";"[22,23,24,25]";"1";"0";"1"
"185";"10";"16";"1";"11";"1";"1";"2";"1";"[12,13,14,15]";"2";"0";"1"
"186";"17";"16";"1";"30";"1";"1";"2";"1";"[15,26,27]";"1";"0";"1"
"187";"10";"17";"1";"11";"1";"1";"2";"1";"[12,13,14,15]";"2";"0";"1"
"188";"20";"17";"1";"29";"1";"1";"2";"1";"[26,27,28]";"2";"0";"1"
"189";"17";"17";"1";"30";"1";"1";"2";"1";"[15,26,27]";"1";"0";"1"
"190";"20";"18";"1";"29";"1";"1";"2";"1";"[26,27,28]";"2";"0";"1"
"191";"12";"19";"1";"26";"1";"1";"2";"2";"[4,27,28,29,30]";"1";"0";"1"
"192";"29";"20";"1";"32";"1";"1";"2";"1";"[17,31,33,34,35]";"2";"0";"1"
"193";"12";"20";"1";"26";"1";"1";"2";"2";"[4,27,28,29,30]";"1";"0";"1"
"194";"29";"21";"1";"32";"1";"1";"2";"1";"[17,31,33,34,35]";"2";"0";"1"
"195";"40";"22";"1";"10";"1";"1";"2";"2";"[9]";"2";"0";"1"
"196";"31";"22";"1";"14";"1";"1";"2";"1";"[11,12,13,15]";"1";"0";"1"
"197";"40";"23";"1";"10";"1";"1";"2";"2";"[9]";"2";"0";"1"
"198";"31";"23";"1";"14";"1";"1";"2";"1";"[11,12,13,15]";"1";"0";"1"
"199";"15";"25";"1";"16";"1";"1";"2";"1";"[17,18,19,20]";"2";"2";"1"
"200";"9";"27";"1";"40";"1";"1";"2";"2";"[36,37,38,39]";"2";"0";"1"
"201";"9";"28";"1";"40";"1";"1";"2";"2";"[36,37,38,39]";"2";"0";"1"
"202";"30";"2";"1";"18";"1";"1";"3";"1";"[5,16,17,19,20]";"2";"0";"1"
"203";"27";"2";"1";"15";"1";"1";"3";"2";"[11,12,13,14,23,30]";"2";"0";"1"
"204";"30";"3";"1";"18";"1";"1";"3";"1";"[5,16,17,19,20]";"2";"0";"1"
"205";"25";"3";"1";"8";"1";"1";"3";"1";"[4,6,7,9]";"1";"0";"1"
"206";"27";"3";"1";"15";"1";"1";"3";"2";"[11,12,13,14,23,30]";"2";"0";"1"
"207";"18";"4";"1";"17";"1";"1";"3";"1";"[16,18,19,20,32]";"1";"0";"1"
"208";"25";"4";"1";"8";"1";"1";"3";"1";"[4,6,7,9]";"1";"0";"1"
"209";"6";"4";"1";"33";"1";"1";"3";"2";"[7,31,32,35]";"2";"0";"1"
"210";"33";"5";"1";"4";"1";"1";"3";"1";"[1,2,5,8,26,38]";"1";"0";"1"
"211";"22";"5";"1";"23";"1";"1";"3";"1";"[15,21,22,24,25]";"0";"1";"1"
"212";"18";"5";"1";"17";"1";"1";"3";"1";"[16,18,19,20,32]";"1";"0";"1"
"213";"6";"5";"1";"33";"1";"1";"3";"2";"[7,31,32,35]";"2";"0";"1"
"214";"21";"5";"1";"25";"1";"1";"3";"1";"[21,23,24]";"1";"0";"1"
"215";"1";"6";"1";"3";"1";"1";"3";"1";"[1,2]";"1";"0";"1"
"216";"33";"6";"1";"4";"1";"1";"3";"1";"[1,2,5,8,26,38]";"1";"0";"1"
"217";"32";"6";"1";"2";"1";"1";"3";"1";"[1,3,4,5,19]";"1";"0";"1"
"218";"7";"6";"1";"35";"1";"1";"3";"1";"[31,32,33]";"2";"0";"1"
"219";"24";"6";"1";"39";"1";"1";"3";"2";"[37,38,40]";"2";"0";"1"
"220";"8";"6";"1";"36";"1";"1";"3";"1";"[9,37,38,40]";"1";"0";"1"
"221";"22";"6";"1";"23";"1";"1";"3";"1";"[15,21,22,24,25]";"0";"2";"1"
"222";"15";"6";"1";"16";"1";"1";"3";"1";"[17,18,19,20]";"0";"1";"1"
"223";"21";"6";"1";"25";"1";"1";"3";"1";"[21,23,24]";"1";"0";"1"
"224";"1";"7";"1";"3";"1";"1";"3";"1";"[1,2]";"1";"0";"1"
"225";"14";"7";"1";"19";"1";"1";"3";"1";"[2,9,16,17,18,20]";"2";"0";"1"
"226";"32";"7";"1";"2";"1";"1";"3";"1";"[1,3,4,5,19]";"1";"0";"1"
"227";"7";"7";"1";"35";"1";"1";"3";"1";"[31,32,33]";"2";"0";"1"
"228";"24";"7";"1";"39";"1";"1";"3";"2";"[37,38,40]";"2";"0";"1"
"229";"8";"7";"1";"36";"1";"1";"3";"1";"[9,37,38,40]";"1";"0";"1"
"230";"14";"8";"1";"19";"1";"1";"3";"1";"[2,9,16,17,18,20]";"2";"0";"1"
"231";"23";"8";"1";"24";"1";"1";"3";"1";"[21,22,23,25]";"1";"0";"1"
"232";"31";"8";"1";"14";"1";"1";"3";"1";"[11,12,13,15]";"2";"0";"1"
"233";"17";"8";"1";"30";"1";"1";"3";"1";"[15,26,27]";"1";"0";"1"
"234";"36";"8";"1";"5";"1";"1";"3";"1";"[1,2,4,18]";"1";"0";"1"
"235";"5";"8";"1";"13";"1";"1";"3";"1";"[11,12,14,15]";"2";"0";"1"
"236";"23";"9";"1";"24";"1";"1";"3";"1";"[21,22,23,25]";"1";"0";"1"
"237";"35";"9";"1";"28";"1";"1";"3";"1";"[26,27,29]";"2";"0";"1"
"238";"22";"9";"1";"23";"1";"1";"3";"1";"[15,21,22,24,25]";"1";"2";"1"
"239";"2";"9";"1";"38";"1";"1";"3";"2";"[4,36,39,40]";"2";"0";"1"
"240";"31";"9";"1";"14";"1";"1";"3";"1";"[11,12,13,15]";"2";"0";"1"
"241";"17";"9";"1";"30";"1";"1";"3";"1";"[15,26,27]";"1";"0";"1"
"242";"28";"9";"1";"34";"1";"1";"3";"2";"[31,32]";"1";"0";"1"
"243";"36";"9";"1";"5";"1";"1";"3";"1";"[1,2,4,18]";"1";"0";"1"
"244";"5";"9";"1";"13";"1";"1";"3";"1";"[11,12,14,15]";"2";"0";"1"
"245";"35";"10";"1";"28";"1";"1";"3";"1";"[26,27,29]";"2";"0";"1"
"246";"3";"10";"1";"9";"1";"1";"3";"1";"[6,7,8,10,19,36]";"1";"0";"1"
"247";"2";"10";"1";"38";"1";"1";"3";"2";"[4,36,39,40]";"2";"0";"1"
"248";"22";"10";"1";"23";"1";"1";"3";"1";"[15,21,22,24,25]";"1";"2";"1"
"249";"28";"10";"1";"34";"1";"1";"3";"2";"[31,32]";"1";"0";"1"
"250";"15";"10";"1";"16";"1";"1";"3";"1";"[17,18,19,20]";"0";"2";"1"
"251";"3";"11";"1";"9";"1";"1";"3";"1";"[6,7,8,10,19,36]";"1";"0";"1"
"252";"26";"11";"1";"12";"1";"1";"3";"1";"[11,13,14,15]";"2";"0";"1"
"253";"40";"11";"1";"10";"1";"1";"3";"2";"[9]";"1";"0";"1"
"254";"29";"11";"1";"32";"1";"1";"3";"1";"[17,31,33,34,35]";"1";"0";"1"
"255";"19";"11";"1";"21";"1";"1";"3";"1";"[22,23,24,25]";"1";"0";"1"
"256";"20";"11";"1";"29";"1";"1";"3";"1";"[26,27,28]";"2";"0";"1"
"257";"34";"12";"1";"6";"1";"1";"3";"1";"[7,8,9]";"1";"0";"1"
"258";"26";"12";"1";"12";"1";"1";"3";"1";"[11,13,14,15]";"2";"0";"1"
"259";"40";"12";"1";"10";"1";"1";"3";"2";"[9]";"1";"0";"1"
"260";"29";"12";"1";"32";"1";"1";"3";"1";"[17,31,33,34,35]";"1";"0";"1"
"261";"19";"12";"1";"21";"1";"1";"3";"1";"[22,23,24,25]";"1";"0";"1"
"262";"20";"12";"1";"29";"1";"1";"3";"1";"[26,27,28]";"2";"0";"1"
"263";"39";"12";"1";"27";"1";"1";"3";"2";"[26,28,29,30]";"0";"1";"1"
"264";"15";"12";"1";"16";"1";"1";"3";"1";"[17,18,19,20]";"0";"3";"1"
"265";"34";"13";"1";"6";"1";"1";"3";"1";"[7,8,9]";"1";"0";"1"
"266";"16";"13";"1";"20";"1";"1";"3";"2";"[16,17,18,19]";"1";"0";"1"
"267";"38";"14";"1";"7";"1";"1";"3";"1";"[6,8,9,33]";"1";"0";"1"
"268";"16";"14";"1";"20";"1";"1";"3";"2";"[16,17,18,19]";"1";"0";"1"
"269";"38";"15";"1";"7";"1";"1";"3";"1";"[6,8,9,33]";"1";"0";"1"
"270";"15";"16";"1";"16";"1";"1";"3";"1";"[17,18,19,20]";"0";"1";"1"
"271";"37";"16";"1";"1";"1";"1";"3";"1";"[2,3,4,5,22]";"1";"0";"1"
"272";"15";"17";"1";"16";"1";"1";"3";"1";"[17,18,19,20]";"0";"2";"1"
"273";"37";"17";"1";"1";"1";"1";"3";"1";"[2,3,4,5,22]";"1";"0";"1"
"274";"12";"18";"1";"26";"1";"1";"3";"2";"[4,27,28,29,30]";"2";"0";"1"
"275";"15";"18";"1";"16";"1";"1";"3";"1";"[17,18,19,20]";"1";"2";"1"
"276";"9";"19";"1";"40";"1";"1";"3";"2";"[36,37,38,39]";"2";"0";"1"
"277";"11";"19";"1";"37";"1";"1";"3";"1";"[36,39,40]";"1";"0";"1"
"278";"39";"19";"1";"27";"1";"1";"3";"2";"[26,28,29,30]";"0";"3";"1"
"279";"12";"19";"1";"26";"1";"1";"3";"2";"[4,27,28,29,30]";"2";"0";"1"
"280";"15";"19";"1";"16";"1";"1";"3";"1";"[17,18,19,20]";"1";"2";"1"
"281";"9";"20";"1";"40";"1";"1";"3";"2";"[36,37,38,39]";"2";"0";"1"
"282";"11";"20";"1";"37";"1";"1";"3";"1";"[36,39,40]";"1";"0";"1"
"283";"4";"20";"1";"22";"1";"1";"3";"1";"[1,21,23,24]";"1";"0";"1"
"284";"4";"21";"1";"22";"1";"1";"3";"1";"[1,21,23,24]";"1";"0";"1"
"285";"10";"23";"1";"11";"1";"1";"3";"1";"[12,13,14,15]";"2";"0";"1"
"286";"39";"24";"1";"27";"1";"1";"3";"2";"[26,28,29,30]";"1";"3";"1"
"287";"10";"24";"1";"11";"1";"1";"3";"1";"[12,13,14,15]";"2";"0";"1"
"288";"39";"25";"1";"27";"1";"1";"3";"2";"[26,28,29,30]";"1";"3";"1"
"289";"7";"27";"1";"35";"1";"1";"3";"1";"[31,32,33]";"2";"1";"1"
"290";"13";"29";"1";"31";"1";"1";"3";"1";"[32,33,34,35]";"1";"0";"1"
"291";"7";"29";"1";"35";"1";"1";"3";"1";"[31,32,33]";"2";"3";"1"
"292";"13";"30";"1";"31";"1";"1";"3";"1";"[32,33,34,35]";"1";"0";"1"
"293";"12";"0";"1";"26";"1";"1";"4";"2";"[4,27,28,29,30]";"0";"3";"1"
"294";"33";"1";"1";"4";"1";"1";"4";"1";"[1,2,5,8,26,38]";"0";"1";"1"
"295";"34";"1";"1";"6";"1";"1";"4";"1";"[7,8,9]";"1";"0";"1"
"296";"34";"2";"1";"6";"1";"1";"4";"1";"[7,8,9]";"1";"0";"1"
"297";"25";"3";"1";"8";"1";"1";"4";"1";"[4,6,7,9]";"1";"0";"1"
"298";"14";"3";"1";"19";"1";"1";"4";"1";"[2,9,16,17,18,20]";"1";"0";"1"
"299";"18";"3";"1";"17";"1";"1";"4";"1";"[16,18,19,20,32]";"1";"0";"1"
"300";"27";"3";"1";"15";"1";"1";"4";"2";"[11,12,13,14,23,30]";"2";"0";"1"
"301";"33";"3";"1";"4";"1";"1";"4";"1";"[1,2,5,8,26,38]";"0";"2";"1"
"302";"1";"3";"1";"3";"1";"1";"4";"1";"[1,2]";"1";"0";"1"
"303";"25";"4";"1";"8";"1";"1";"4";"1";"[4,6,7,9]";"1";"0";"1"
"304";"29";"4";"1";"32";"1";"1";"4";"1";"[17,31,33,34,35]";"0";"1";"1"
"305";"30";"4";"1";"18";"1";"1";"4";"1";"[5,16,17,19,20]";"1";"0";"1"
"306";"7";"4";"1";"35";"1";"1";"4";"1";"[31,32,33]";"1";"0";"1"
"307";"14";"4";"1";"19";"1";"1";"4";"1";"[2,9,16,17,18,20]";"1";"0";"1"
"308";"20";"4";"1";"29";"1";"1";"4";"1";"[26,27,28]";"2";"0";"1"
"309";"33";"4";"1";"4";"1";"1";"4";"1";"[1,2,5,8,26,38]";"0";"3";"1"
"310";"18";"4";"1";"17";"1";"1";"4";"1";"[16,18,19,20,32]";"1";"0";"1"
"311";"27";"4";"1";"15";"1";"1";"4";"2";"[11,12,13,14,23,30]";"2";"0";"1"
"312";"1";"4";"1";"3";"1";"1";"4";"1";"[1,2]";"1";"0";"1"
"313";"38";"5";"1";"7";"1";"1";"4";"1";"[6,8,9,33]";"1";"0";"1"
"314";"8";"5";"1";"36";"1";"1";"4";"1";"[9,37,38,40]";"1";"0";"1"
"315";"30";"5";"1";"18";"1";"1";"4";"1";"[5,16,17,19,20]";"1";"0";"1"
"316";"33";"5";"1";"4";"1";"1";"4";"1";"[1,2,5,8,26,38]";"0";"4";"1"
"317";"21";"5";"1";"25";"1";"1";"4";"1";"[21,23,24]";"1";"0";"1"
"318";"35";"5";"1";"28";"1";"1";"4";"1";"[26,27,29]";"2";"0";"1"
"319";"7";"5";"1";"35";"1";"1";"4";"1";"[31,32,33]";"1";"0";"1"
"320";"6";"5";"1";"33";"1";"1";"4";"2";"[7,31,32,35]";"2";"0";"1"
"321";"39";"5";"1";"27";"1";"1";"4";"2";"[26,28,29,30]";"0";"1";"1"
"322";"20";"5";"1";"29";"1";"1";"4";"1";"[26,27,28]";"2";"0";"1"
"323";"15";"5";"1";"16";"1";"1";"4";"1";"[17,18,19,20]";"1";"0";"1"
"324";"3";"5";"1";"9";"1";"1";"4";"1";"[6,7,8,10,19,36]";"1";"0";"1"
"325";"32";"5";"1";"2";"1";"1";"4";"1";"[1,3,4,5,19]";"1";"0";"1"
"326";"36";"5";"1";"5";"1";"1";"4";"1";"[1,2,4,18]";"0";"2";"1"
"327";"26";"5";"1";"12";"1";"1";"4";"1";"[11,13,14,15]";"2";"0";"1"
"328";"38";"6";"1";"7";"1";"1";"4";"1";"[6,8,9,33]";"1";"0";"1"
"329";"40";"6";"1";"10";"1";"1";"4";"2";"[9]";"1";"0";"1"
"330";"8";"6";"1";"36";"1";"1";"4";"1";"[9,37,38,40]";"1";"0";"1"
"331";"29";"6";"1";"32";"1";"1";"4";"1";"[17,31,33,34,35]";"0";"2";"1"
"332";"24";"6";"1";"39";"1";"1";"4";"2";"[37,38,40]";"2";"0";"1"
"333";"21";"6";"1";"25";"1";"1";"4";"1";"[21,23,24]";"1";"0";"1"
"334";"35";"6";"1";"28";"1";"1";"4";"1";"[26,27,29]";"2";"0";"1"
"335";"10";"6";"1";"11";"1";"1";"4";"1";"[12,13,14,15]";"2";"0";"1"
"336";"6";"6";"1";"33";"1";"1";"4";"2";"[7,31,32,35]";"2";"0";"1"
"337";"23";"6";"1";"24";"1";"1";"4";"1";"[21,22,23,25]";"1";"0";"1"
"338";"17";"6";"1";"30";"1";"1";"4";"1";"[15,26,27]";"2";"0";"1"
"339";"15";"6";"1";"16";"1";"1";"4";"1";"[17,18,19,20]";"1";"0";"1"
"340";"3";"6";"1";"9";"1";"1";"4";"1";"[6,7,8,10,19,36]";"1";"0";"1"
"341";"32";"6";"1";"2";"1";"1";"4";"1";"[1,3,4,5,19]";"1";"0";"1"
"342";"26";"6";"1";"12";"1";"1";"4";"1";"[11,13,14,15]";"2";"0";"1"
"343";"40";"7";"1";"10";"1";"1";"4";"2";"[9]";"1";"0";"1"
"344";"24";"7";"1";"39";"1";"1";"4";"2";"[37,38,40]";"2";"0";"1"
"345";"36";"7";"1";"5";"1";"1";"4";"1";"[1,2,4,18]";"0";"1";"1"
"346";"4";"7";"1";"22";"1";"1";"4";"1";"[1,21,23,24]";"2";"0";"1"
"347";"10";"7";"1";"11";"1";"1";"4";"1";"[12,13,14,15]";"2";"0";"1"
"348";"23";"7";"1";"24";"1";"1";"4";"1";"[21,22,23,25]";"1";"0";"1"
"349";"17";"7";"1";"30";"1";"1";"4";"1";"[15,26,27]";"2";"0";"1"
"350";"31";"7";"1";"14";"1";"1";"4";"1";"[11,12,13,15]";"2";"0";"1"
"351";"28";"8";"1";"34";"1";"1";"4";"2";"[31,32]";"1";"0";"1"
"352";"2";"8";"1";"38";"1";"1";"4";"2";"[4,36,39,40]";"1";"0";"1"
"353";"4";"8";"1";"22";"1";"1";"4";"1";"[1,21,23,24]";"2";"0";"1"
"354";"29";"8";"1";"32";"1";"1";"4";"1";"[17,31,33,34,35]";"0";"3";"1"
"355";"33";"8";"1";"4";"1";"1";"4";"1";"[1,2,5,8,26,38]";"0";"7";"1"
"356";"5";"8";"1";"13";"1";"1";"4";"1";"[11,12,14,15]";"2";"0";"1"
"357";"31";"8";"1";"14";"1";"1";"4";"1";"[11,12,13,15]";"2";"0";"1"
"358";"36";"8";"1";"5";"1";"1";"4";"1";"[1,2,4,18]";"0";"3";"1"
"359";"28";"9";"1";"34";"1";"1";"4";"2";"[31,32]";"1";"0";"1"
"360";"2";"9";"1";"38";"1";"1";"4";"2";"[4,36,39,40]";"1";"0";"1"
"361";"16";"9";"1";"20";"1";"1";"4";"2";"[16,17,18,19]";"1";"0";"1"
"362";"39";"9";"1";"27";"1";"1";"4";"2";"[26,28,29,30]";"0";"2";"1"
"363";"5";"9";"1";"13";"1";"1";"4";"1";"[11,12,14,15]";"2";"0";"1"
"364";"19";"10";"1";"21";"1";"1";"4";"1";"[22,23,24,25]";"1";"0";"1"
"365";"29";"10";"1";"32";"1";"1";"4";"1";"[17,31,33,34,35]";"0";"4";"1"
"366";"16";"10";"1";"20";"1";"1";"4";"2";"[16,17,18,19]";"1";"0";"1"
"367";"19";"11";"1";"21";"1";"1";"4";"1";"[22,23,24,25]";"1";"0";"1"
"368";"29";"11";"1";"32";"1";"1";"4";"1";"[17,31,33,34,35]";"0";"5";"1"
"369";"37";"11";"1";"1";"1";"1";"4";"1";"[2,3,4,5,22]";"2";"0";"1"
"370";"39";"12";"1";"27";"1";"1";"4";"2";"[26,28,29,30]";"0";"3";"1"
"371";"37";"12";"1";"1";"1";"1";"4";"1";"[2,3,4,5,22]";"2";"0";"1"
"372";"33";"13";"1";"4";"1";"1";"4";"1";"[1,2,5,8,26,38]";"1";"7";"1"
"373";"13";"14";"1";"31";"1";"1";"4";"1";"[32,33,34,35]";"1";"0";"1"
"374";"33";"14";"1";"4";"1";"1";"4";"1";"[1,2,5,8,26,38]";"1";"7";"1"
"375";"39";"15";"1";"27";"1";"1";"4";"2";"[26,28,29,30]";"0";"4";"1"
"376";"13";"15";"1";"31";"1";"1";"4";"1";"[32,33,34,35]";"1";"0";"1"
"377";"11";"15";"1";"37";"1";"1";"4";"1";"[36,39,40]";"1";"0";"1"
"378";"7";"15";"1";"35";"1";"1";"4";"1";"[31,32,33]";"1";"1";"1"
"379";"9";"16";"1";"40";"1";"1";"4";"2";"[36,37,38,39]";"2";"0";"1"
"380";"36";"16";"1";"5";"1";"1";"4";"1";"[1,2,4,18]";"1";"3";"1"
"381";"11";"16";"1";"37";"1";"1";"4";"1";"[36,39,40]";"1";"0";"1"
"382";"12";"16";"1";"26";"1";"1";"4";"2";"[4,27,28,29,30]";"0";"2";"1"
"383";"7";"17";"1";"35";"1";"1";"4";"1";"[31,32,33]";"1";"2";"1"
"384";"9";"17";"1";"40";"1";"1";"4";"2";"[36,37,38,39]";"2";"0";"1"
"385";"36";"17";"1";"5";"1";"1";"4";"1";"[1,2,4,18]";"1";"3";"1"
"386";"12";"18";"1";"26";"1";"1";"4";"2";"[4,27,28,29,30]";"0";"3";"1"
"387";"7";"18";"1";"35";"1";"1";"4";"1";"[31,32,33]";"1";"4";"1"
"388";"39";"19";"1";"27";"1";"1";"4";"2";"[26,28,29,30]";"2";"4";"1"
"389";"12";"20";"1";"26";"1";"1";"4";"2";"[4,27,28,29,30]";"2";"3";"1"
"390";"39";"20";"1";"27";"1";"1";"4";"2";"[26,28,29,30]";"2";"4";"1"
"391";"12";"21";"1";"26";"1";"1";"4";"2";"[4,27,28,29,30]";"2";"3";"1"
"392";"22";"21";"1";"23";"1";"1";"4";"1";"[15,21,22,24,25]";"1";"0";"1"
"393";"22";"22";"1";"23";"1";"1";"4";"1";"[15,21,22,24,25]";"1";"0";"1"
"394";"29";"22";"1";"32";"1";"1";"4";"1";"[17,31,33,34,35]";"1";"5";"1"
"395";"12";"22";"1";"26";"1";"1";"4";"2";"[4,27,28,29,30]";"2";"1";"1"
"396";"29";"23";"1";"32";"1";"1";"4";"1";"[17,31,33,34,35]";"1";"5";"1"
"397";"30";"1";"1";"18";"1";"1";"5";"1";"[5,16,17,19,20]";"1";"0";"1"
"398";"27";"1";"1";"15";"1";"1";"5";"2";"[11,12,13,14,23,30]";"2";"0";"1"
"399";"30";"2";"1";"18";"1";"1";"5";"1";"[5,16,17,19,20]";"1";"0";"1"
"400";"27";"2";"1";"15";"1";"1";"5";"2";"[11,12,13,14,23,30]";"2";"0";"1"
"401";"25";"2";"1";"8";"1";"1";"5";"1";"[4,6,7,9]";"1";"0";"1"
"402";"34";"3";"1";"6";"1";"1";"5";"1";"[7,8,9]";"1";"0";"1"
"403";"35";"3";"1";"28";"1";"1";"5";"1";"[26,27,29]";"2";"0";"1"
"404";"1";"3";"1";"3";"1";"1";"5";"1";"[1,2]";"1";"0";"1"
"405";"13";"3";"1";"31";"1";"1";"5";"1";"[32,33,34,35]";"0";"1";"1"
"406";"26";"3";"1";"12";"1";"1";"5";"1";"[11,13,14,15]";"2";"0";"1"
"407";"25";"3";"1";"8";"1";"1";"5";"1";"[4,6,7,9]";"1";"0";"1"
"408";"14";"3";"1";"19";"1";"1";"5";"1";"[2,9,16,17,18,20]";"1";"0";"1"
"409";"34";"4";"1";"6";"1";"1";"5";"1";"[7,8,9]";"1";"0";"1"
"410";"11";"4";"1";"37";"1";"1";"5";"1";"[36,39,40]";"2";"0";"1"
"411";"8";"4";"1";"36";"1";"1";"5";"1";"[9,37,38,40]";"1";"0";"1"
"412";"17";"4";"1";"30";"1";"1";"5";"1";"[15,26,27]";"2";"0";"1"
"413";"35";"4";"1";"28";"1";"1";"5";"1";"[26,27,29]";"2";"0";"1"
"414";"13";"4";"1";"31";"1";"1";"5";"1";"[32,33,34,35]";"0";"2";"1"
"415";"1";"4";"1";"3";"1";"1";"5";"1";"[1,2]";"1";"0";"1"
"416";"26";"4";"1";"12";"1";"1";"5";"1";"[11,13,14,15]";"2";"0";"1"
"417";"6";"4";"1";"33";"1";"1";"5";"2";"[7,31,32,35]";"1";"0";"1"
"418";"20";"4";"1";"29";"1";"1";"5";"1";"[26,27,28]";"2";"0";"1"
"419";"14";"4";"1";"19";"1";"1";"5";"1";"[2,9,16,17,18,20]";"1";"0";"1"
"420";"11";"5";"1";"37";"1";"1";"5";"1";"[36,39,40]";"2";"0";"1"
"421";"8";"5";"1";"36";"1";"1";"5";"1";"[9,37,38,40]";"1";"0";"1"
"422";"13";"5";"1";"31";"1";"1";"5";"1";"[32,33,34,35]";"0";"3";"1"
"423";"3";"5";"1";"9";"1";"1";"5";"1";"[6,7,8,10,19,36]";"1";"0";"1"
"424";"33";"5";"1";"4";"1";"1";"5";"1";"[1,2,5,8,26,38]";"1";"0";"1"
"425";"39";"5";"1";"27";"1";"1";"5";"2";"[26,28,29,30]";"2";"0";"1"
"426";"17";"5";"1";"30";"1";"1";"5";"1";"[15,26,27]";"2";"0";"1"
"427";"38";"5";"1";"7";"1";"1";"5";"1";"[6,8,9,33]";"1";"0";"1"
"428";"18";"5";"1";"17";"1";"1";"5";"1";"[16,18,19,20,32]";"1";"0";"1"
"429";"13";"5";"1";"31";"1";"1";"5";"1";"[32,33,34,35]";"0";"4";"1"
"430";"6";"5";"1";"33";"1";"1";"5";"2";"[7,31,32,35]";"1";"0";"1"
"431";"20";"5";"1";"29";"1";"1";"5";"1";"[26,27,28]";"2";"0";"1"
"432";"2";"6";"1";"38";"1";"1";"5";"2";"[4,36,39,40]";"1";"0";"1"
"433";"3";"6";"1";"9";"1";"1";"5";"1";"[6,7,8,10,19,36]";"1";"0";"1"
"434";"33";"6";"1";"4";"1";"1";"5";"1";"[1,2,5,8,26,38]";"1";"0";"1"
"435";"39";"6";"1";"27";"1";"1";"5";"2";"[26,28,29,30]";"2";"0";"1"
"436";"7";"6";"1";"35";"1";"1";"5";"1";"[31,32,33]";"2";"0";"1"
"437";"38";"6";"1";"7";"1";"1";"5";"1";"[6,8,9,33]";"1";"0";"1"
"438";"5";"6";"1";"13";"1";"1";"5";"1";"[11,12,14,15]";"2";"0";"1"
"439";"18";"6";"1";"17";"1";"1";"5";"1";"[16,18,19,20,32]";"1";"0";"1"
"440";"29";"7";"1";"32";"1";"1";"5";"1";"[17,31,33,34,35]";"2";"0";"1"
"441";"2";"7";"1";"38";"1";"1";"5";"2";"[4,36,39,40]";"1";"0";"1"
"442";"7";"7";"1";"35";"1";"1";"5";"1";"[31,32,33]";"2";"0";"1"
"443";"32";"7";"1";"2";"1";"1";"5";"1";"[1,3,4,5,19]";"1";"0";"1"
"444";"23";"7";"1";"24";"1";"1";"5";"1";"[21,22,23,25]";"1";"0";"1"
"445";"5";"7";"1";"13";"1";"1";"5";"1";"[11,12,14,15]";"2";"0";"1"
"446";"29";"8";"1";"32";"1";"1";"5";"1";"[17,31,33,34,35]";"2";"0";"1"
"447";"32";"8";"1";"2";"1";"1";"5";"1";"[1,3,4,5,19]";"1";"0";"1"
"448";"23";"8";"1";"24";"1";"1";"5";"1";"[21,22,23,25]";"1";"0";"1"
"449";"15";"8";"1";"16";"1";"1";"5";"1";"[17,18,19,20]";"2";"0";"1"
"450";"28";"9";"1";"34";"1";"1";"5";"2";"[31,32]";"1";"0";"1"
"451";"40";"9";"1";"10";"1";"1";"5";"2";"[9]";"1";"0";"1"
"452";"15";"9";"1";"16";"1";"1";"5";"1";"[17,18,19,20]";"2";"0";"1"
"453";"28";"10";"1";"34";"1";"1";"5";"2";"[31,32]";"1";"0";"1"
"454";"40";"10";"1";"10";"1";"1";"5";"2";"[9]";"1";"0";"1"
"455";"10";"10";"1";"11";"1";"1";"5";"1";"[12,13,14,15]";"1";"0";"1"
"456";"16";"10";"1";"20";"1";"1";"5";"2";"[16,17,18,19]";"2";"0";"1"
"457";"36";"10";"1";"5";"1";"1";"5";"1";"[1,2,4,18]";"1";"0";"1"
"458";"21";"10";"1";"25";"1";"1";"5";"1";"[21,23,24]";"1";"0";"1"
"459";"24";"11";"1";"39";"1";"1";"5";"2";"[37,38,40]";"1";"0";"1"
"460";"10";"11";"1";"11";"1";"1";"5";"1";"[12,13,14,15]";"1";"0";"1"
"461";"37";"11";"1";"1";"1";"1";"5";"1";"[2,3,4,5,22]";"1";"0";"1"
"462";"16";"11";"1";"20";"1";"1";"5";"2";"[16,17,18,19]";"2";"0";"1"
"463";"36";"11";"1";"5";"1";"1";"5";"1";"[1,2,4,18]";"1";"0";"1"
"464";"21";"11";"1";"25";"1";"1";"5";"1";"[21,23,24]";"1";"0";"1"
"465";"12";"12";"1";"26";"1";"1";"5";"2";"[4,27,28,29,30]";"2";"0";"1"
"466";"24";"12";"1";"39";"1";"1";"5";"2";"[37,38,40]";"1";"0";"1"
"467";"4";"12";"1";"22";"1";"1";"5";"1";"[1,21,23,24]";"1";"0";"1"
"468";"13";"12";"1";"31";"1";"1";"5";"1";"[32,33,34,35]";"0";"1";"1"
"469";"37";"12";"1";"1";"1";"1";"5";"1";"[2,3,4,5,22]";"1";"0";"1"
"470";"22";"13";"1";"23";"1";"1";"5";"1";"[15,21,22,24,25]";"2";"0";"1"
"471";"13";"13";"1";"31";"1";"1";"5";"1";"[32,33,34,35]";"0";"3";"1"
"472";"12";"13";"1";"26";"1";"1";"5";"2";"[4,27,28,29,30]";"2";"0";"1"
"473";"31";"13";"1";"14";"1";"1";"5";"1";"[11,12,13,15]";"2";"0";"1"
"474";"4";"13";"1";"22";"1";"1";"5";"1";"[1,21,23,24]";"1";"0";"1"
"475";"7";"13";"1";"35";"1";"1";"5";"1";"[31,32,33]";"2";"2";"1"
"476";"13";"13";"1";"31";"1";"1";"5";"1";"[32,33,34,35]";"0";"4";"1"
"477";"22";"14";"1";"23";"1";"1";"5";"1";"[15,21,22,24,25]";"2";"0";"1"
"478";"31";"14";"1";"14";"1";"1";"5";"1";"[11,12,13,15]";"2";"0";"1"
"479";"9";"14";"1";"40";"1";"1";"5";"2";"[36,37,38,39]";"2";"0";"1"
"480";"9";"15";"1";"40";"1";"1";"5";"2";"[36,37,38,39]";"2";"0";"1"
"481";"13";"15";"1";"31";"1";"1";"5";"1";"[32,33,34,35]";"0";"5";"1"
"482";"7";"16";"1";"35";"1";"1";"5";"1";"[31,32,33]";"2";"1";"1"
"483";"19";"16";"1";"21";"1";"1";"5";"1";"[22,23,24,25]";"1";"0";"1"
"484";"13";"16";"1";"31";"1";"1";"5";"1";"[32,33,34,35]";"1";"5";"1"
"485";"19";"17";"1";"21";"1";"1";"5";"1";"[22,23,24,25]";"1";"0";"1"
"486";"7";"17";"1";"35";"1";"1";"5";"1";"[31,32,33]";"2";"2";"1"
"487";"13";"17";"1";"31";"1";"1";"5";"1";"[32,33,34,35]";"1";"5";"1"
"488";"10";"1";"1";"11";"1";"1";"6";"1";"[12,13,14,15]";"2";"0";"1"
"489";"30";"1";"1";"18";"1";"1";"6";"1";"[5,16,17,19,20]";"2";"0";"1"
"490";"27";"1";"1";"15";"1";"1";"6";"2";"[11,12,13,14,23,30]";"2";"0";"1"
"491";"34";"2";"1";"6";"1";"1";"6";"1";"[7,8,9]";"1";"0";"1"
"492";"1";"2";"1";"3";"1";"1";"6";"1";"[1,2]";"1";"0";"1"
"493";"10";"2";"1";"11";"1";"1";"6";"1";"[12,13,14,15]";"2";"0";"1"
"494";"30";"2";"1";"18";"1";"1";"6";"1";"[5,16,17,19,20]";"2";"0";"1"
"495";"20";"2";"1";"29";"1";"1";"6";"1";"[26,27,28]";"2";"0";"1"
"496";"27";"2";"1";"15";"1";"1";"6";"2";"[11,12,13,14,23,30]";"2";"0";"1"
"497";"25";"2";"1";"8";"1";"1";"6";"1";"[4,6,7,9]";"1";"0";"1"
"498";"34";"3";"1";"6";"1";"1";"6";"1";"[7,8,9]";"1";"0";"1"
"499";"1";"3";"1";"3";"1";"1";"6";"1";"[1,2]";"1";"0";"1"
"500";"14";"3";"1";"19";"1";"1";"6";"1";"[2,9,16,17,18,20]";"1";"0";"1"
"501";"8";"3";"1";"36";"1";"1";"6";"1";"[9,37,38,40]";"1";"0";"1"
"502";"20";"3";"1";"29";"1";"1";"6";"1";"[26,27,28]";"2";"0";"1"
"503";"3";"3";"1";"9";"1";"1";"6";"1";"[6,7,8,10,19,36]";"0";"4";"1"
"504";"25";"3";"1";"8";"1";"1";"6";"1";"[4,6,7,9]";"1";"0";"1"
"505";"38";"4";"1";"7";"1";"1";"6";"1";"[6,8,9,33]";"1";"0";"1"
"506";"35";"4";"1";"28";"1";"1";"6";"1";"[26,27,29]";"1";"0";"1"
"507";"6";"4";"1";"33";"1";"1";"6";"2";"[7,31,32,35]";"1";"0";"1"
"508";"32";"4";"1";"2";"1";"1";"6";"1";"[1,3,4,5,19]";"1";"0";"1"
"509";"14";"4";"1";"19";"1";"1";"6";"1";"[2,9,16,17,18,20]";"1";"0";"1"
"510";"8";"4";"1";"36";"1";"1";"6";"1";"[9,37,38,40]";"1";"0";"1"
"511";"18";"4";"1";"17";"1";"1";"6";"1";"[16,18,19,20,32]";"1";"0";"1"
"512";"40";"5";"1";"10";"1";"1";"6";"2";"[9]";"1";"0";"1"
"513";"23";"5";"1";"24";"1";"1";"6";"1";"[21,22,23,25]";"1";"0";"1"
"514";"3";"5";"1";"9";"1";"1";"6";"1";"[6,7,8,10,19,36]";"0";"3";"1"
"515";"38";"5";"1";"7";"1";"1";"6";"1";"[6,8,9,33]";"1";"0";"1"
"516";"35";"5";"1";"28";"1";"1";"6";"1";"[26,27,29]";"1";"0";"1"
"517";"6";"5";"1";"33";"1";"1";"6";"2";"[7,31,32,35]";"1";"0";"1"
"518";"32";"5";"1";"2";"1";"1";"6";"1";"[1,3,4,5,19]";"1";"0";"1"
"519";"39";"5";"1";"27";"1";"1";"6";"2";"[26,28,29,30]";"2";"0";"1"
"520";"2";"5";"1";"38";"1";"1";"6";"2";"[4,36,39,40]";"1";"0";"1"
"521";"18";"5";"1";"17";"1";"1";"6";"1";"[16,18,19,20,32]";"1";"0";"1"
"522";"40";"6";"1";"10";"1";"1";"6";"2";"[9]";"1";"0";"1"
"523";"23";"6";"1";"24";"1";"1";"6";"1";"[21,22,23,25]";"1";"0";"1"
"524";"17";"6";"1";"30";"1";"1";"6";"1";"[15,26,27]";"2";"0";"1"
"525";"3";"6";"1";"9";"1";"1";"6";"1";"[6,7,8,10,19,36]";"0";"6";"1"
"526";"39";"6";"1";"27";"1";"1";"6";"2";"[26,28,29,30]";"2";"0";"1"
"527";"2";"6";"1";"38";"1";"1";"6";"2";"[4,36,39,40]";"1";"0";"1"
"528";"16";"7";"1";"20";"1";"1";"6";"2";"[16,17,18,19]";"2";"0";"1"
"529";"7";"7";"1";"35";"1";"1";"6";"1";"[31,32,33]";"1";"0";"1"
"530";"17";"7";"1";"30";"1";"1";"6";"1";"[15,26,27]";"2";"0";"1"
"531";"29";"7";"1";"32";"1";"1";"6";"1";"[17,31,33,34,35]";"1";"0";"1"
"532";"15";"7";"1";"16";"1";"1";"6";"1";"[17,18,19,20]";"1";"0";"1"
"533";"22";"8";"1";"23";"1";"1";"6";"1";"[15,21,22,24,25]";"1";"0";"1"
"534";"16";"8";"1";"20";"1";"1";"6";"2";"[16,17,18,19]";"2";"0";"1"
"535";"13";"8";"1";"31";"1";"1";"6";"1";"[32,33,34,35]";"0";"1";"1"
"536";"7";"8";"1";"35";"1";"1";"6";"1";"[31,32,33]";"1";"0";"1"
"537";"3";"8";"1";"9";"1";"1";"6";"1";"[6,7,8,10,19,36]";"0";"6";"1"
"538";"21";"8";"1";"25";"1";"1";"6";"1";"[21,23,24]";"1";"0";"1"
"539";"29";"8";"1";"32";"1";"1";"6";"1";"[17,31,33,34,35]";"1";"0";"1"
"540";"15";"8";"1";"16";"1";"1";"6";"1";"[17,18,19,20]";"1";"0";"1"
"541";"13";"9";"1";"31";"1";"1";"6";"1";"[32,33,34,35]";"0";"2";"1"
"542";"22";"9";"1";"23";"1";"1";"6";"1";"[15,21,22,24,25]";"1";"0";"1"
"543";"36";"9";"1";"5";"1";"1";"6";"1";"[1,2,4,18]";"1";"0";"1"
"544";"5";"9";"1";"13";"1";"1";"6";"1";"[11,12,14,15]";"2";"0";"1"
"545";"13";"9";"1";"31";"1";"1";"6";"1";"[32,33,34,35]";"0";"3";"1"
"546";"21";"9";"1";"25";"1";"1";"6";"1";"[21,23,24]";"1";"0";"1"
"547";"31";"10";"1";"14";"1";"1";"6";"1";"[11,12,13,15]";"2";"0";"1"
"548";"3";"10";"1";"9";"1";"1";"6";"1";"[6,7,8,10,19,36]";"1";"6";"1"
"549";"36";"10";"1";"5";"1";"1";"6";"1";"[1,2,4,18]";"1";"0";"1"
"550";"11";"10";"1";"37";"1";"1";"6";"1";"[36,39,40]";"2";"0";"1"
"551";"13";"10";"1";"31";"1";"1";"6";"1";"[32,33,34,35]";"0";"4";"1"
"552";"28";"10";"1";"34";"1";"1";"6";"2";"[31,32]";"1";"0";"1"
"553";"5";"10";"1";"13";"1";"1";"6";"1";"[11,12,14,15]";"2";"0";"1"
"554";"7";"10";"1";"35";"1";"1";"6";"1";"[31,32,33]";"1";"4";"1"
"555";"33";"11";"1";"4";"1";"1";"6";"1";"[1,2,5,8,26,38]";"1";"0";"1"
"556";"31";"11";"1";"14";"1";"1";"6";"1";"[11,12,13,15]";"2";"0";"1"
"557";"3";"11";"1";"9";"1";"1";"6";"1";"[6,7,8,10,19,36]";"1";"6";"1"
"558";"13";"11";"1";"31";"1";"1";"6";"1";"[32,33,34,35]";"0";"5";"1"
"559";"4";"11";"1";"22";"1";"1";"6";"1";"[1,21,23,24]";"1";"0";"1"
"560";"11";"11";"1";"37";"1";"1";"6";"1";"[36,39,40]";"2";"0";"1"
"561";"28";"11";"1";"34";"1";"1";"6";"2";"[31,32]";"1";"0";"1"
"562";"12";"11";"1";"26";"1";"1";"6";"2";"[4,27,28,29,30]";"0";"4";"1"
"563";"33";"12";"1";"4";"1";"1";"6";"1";"[1,2,5,8,26,38]";"1";"0";"1"
"564";"13";"12";"1";"31";"1";"1";"6";"1";"[32,33,34,35]";"0";"6";"1"
"565";"4";"12";"1";"22";"1";"1";"6";"1";"[1,21,23,24]";"1";"0";"1"
"566";"12";"12";"1";"26";"1";"1";"6";"2";"[4,27,28,29,30]";"0";"3";"1"
"567";"13";"13";"1";"31";"1";"1";"6";"1";"[32,33,34,35]";"1";"6";"1"
"568";"12";"13";"1";"26";"1";"1";"6";"2";"[4,27,28,29,30]";"0";"4";"1"
"569";"13";"14";"1";"31";"1";"1";"6";"1";"[32,33,34,35]";"1";"6";"1"
"570";"12";"15";"1";"26";"1";"1";"6";"2";"[4,27,28,29,30]";"1";"4";"1"
"571";"7";"16";"1";"35";"1";"1";"6";"1";"[31,32,33]";"1";"3";"1"
"572";"12";"16";"1";"26";"1";"1";"6";"2";"[4,27,28,29,30]";"1";"4";"1"
"573";"7";"17";"1";"35";"1";"1";"6";"1";"[31,32,33]";"1";"7";"1"
"574";"9";"18";"1";"40";"1";"1";"6";"2";"[36,37,38,39]";"2";"0";"1"
"575";"19";"19";"1";"21";"1";"1";"6";"1";"[22,23,24,25]";"1";"0";"1"
"576";"24";"19";"1";"39";"1";"1";"6";"2";"[37,38,40]";"1";"0";"1"
"577";"37";"19";"1";"1";"1";"1";"6";"1";"[2,3,4,5,22]";"1";"0";"1"
"578";"9";"19";"1";"40";"1";"1";"6";"2";"[36,37,38,39]";"2";"0";"1"
"579";"7";"19";"1";"35";"1";"1";"6";"1";"[31,32,33]";"1";"4";"1"
"580";"19";"20";"1";"21";"1";"1";"6";"1";"[22,23,24,25]";"1";"0";"1"
"581";"26";"20";"1";"12";"1";"1";"6";"1";"[11,13,14,15]";"2";"0";"1"
"582";"24";"20";"1";"39";"1";"1";"6";"2";"[37,38,40]";"1";"0";"1"
"583";"37";"20";"1";"1";"1";"1";"6";"1";"[2,3,4,5,22]";"1";"0";"1"
"584";"7";"21";"1";"35";"1";"1";"6";"1";"[31,32,33]";"1";"1";"1"
"585";"26";"21";"1";"12";"1";"1";"6";"1";"[11,13,14,15]";"2";"0";"1"
"586";"30";"1";"1";"18";"1";"1";"7";"1";"[5,16,17,19,20]";"2";"0";"1"
"587";"10";"1";"1";"11";"1";"1";"7";"1";"[12,13,14,15]";"2";"0";"1"
"588";"25";"1";"1";"8";"1";"1";"7";"1";"[4,6,7,9]";"1";"0";"1"
"589";"27";"1";"1";"15";"1";"1";"7";"2";"[11,12,13,14,23,30]";"2";"0";"1"
"590";"30";"2";"1";"18";"1";"1";"7";"1";"[5,16,17,19,20]";"2";"0";"1"
"591";"34";"2";"1";"6";"1";"1";"7";"1";"[7,8,9]";"1";"0";"1"
"592";"20";"2";"1";"29";"1";"1";"7";"1";"[26,27,28]";"2";"0";"1"
"593";"10";"2";"1";"11";"1";"1";"7";"1";"[12,13,14,15]";"2";"0";"1"
"594";"33";"2";"1";"4";"1";"1";"7";"1";"[1,2,5,8,26,38]";"1";"0";"1"
"595";"7";"2";"1";"35";"1";"1";"7";"1";"[31,32,33]";"0";"1";"1"
"596";"1";"2";"1";"3";"1";"1";"7";"1";"[1,2]";"1";"0";"1"
"597";"25";"2";"1";"8";"1";"1";"7";"1";"[4,6,7,9]";"1";"0";"1"
"598";"27";"2";"1";"15";"1";"1";"7";"2";"[11,12,13,14,23,30]";"2";"0";"1"
"599";"23";"3";"1";"24";"1";"1";"7";"1";"[21,22,23,25]";"1";"0";"1"
"600";"26";"3";"1";"12";"1";"1";"7";"1";"[11,13,14,15]";"2";"0";"1"
"601";"34";"3";"1";"6";"1";"1";"7";"1";"[7,8,9]";"1";"0";"1"
"602";"20";"3";"1";"29";"1";"1";"7";"1";"[26,27,28]";"2";"0";"1"
"603";"38";"3";"1";"7";"1";"1";"7";"1";"[6,8,9,33]";"1";"0";"1"
"604";"33";"3";"1";"4";"1";"1";"7";"1";"[1,2,5,8,26,38]";"1";"0";"1"
"605";"17";"3";"1";"30";"1";"1";"7";"1";"[15,26,27]";"1";"0";"1"
"606";"40";"3";"1";"10";"1";"1";"7";"2";"[9]";"1";"0";"1"
"607";"21";"3";"1";"25";"1";"1";"7";"1";"[21,23,24]";"1";"0";"1"
"608";"14";"3";"1";"19";"1";"1";"7";"1";"[2,9,16,17,18,20]";"1";"0";"1"
"609";"1";"3";"1";"3";"1";"1";"7";"1";"[1,2]";"1";"0";"1"
"610";"12";"4";"1";"26";"1";"1";"7";"2";"[4,27,28,29,30]";"0";"4";"1"
"611";"23";"4";"1";"24";"1";"1";"7";"1";"[21,22,23,25]";"1";"0";"1"
"612";"7";"4";"1";"35";"1";"1";"7";"1";"[31,32,33]";"0";"2";"1"
"613";"26";"4";"1";"12";"1";"1";"7";"1";"[11,13,14,15]";"2";"0";"1"
"614";"6";"4";"1";"33";"1";"1";"7";"2";"[7,31,32,35]";"2";"0";"1"
"615";"38";"4";"1";"7";"1";"1";"7";"1";"[6,8,9,33]";"1";"0";"1"
"616";"4";"4";"1";"22";"1";"1";"7";"1";"[1,21,23,24]";"2";"0";"1"
"617";"17";"4";"1";"30";"1";"1";"7";"1";"[15,26,27]";"1";"0";"1"
"618";"40";"4";"1";"10";"1";"1";"7";"2";"[9]";"1";"0";"1"
"619";"14";"4";"1";"19";"1";"1";"7";"1";"[2,9,16,17,18,20]";"1";"0";"1"
"620";"21";"4";"1";"25";"1";"1";"7";"1";"[21,23,24]";"1";"0";"1"
"621";"15";"4";"1";"16";"1";"1";"7";"1";"[17,18,19,20]";"0";"5";"1"
"622";"13";"4";"1";"31";"1";"1";"7";"1";"[32,33,34,35]";"1";"0";"1"
"623";"2";"5";"1";"38";"1";"1";"7";"2";"[4,36,39,40]";"1";"0";"1"
"624";"18";"5";"1";"17";"1";"1";"7";"1";"[16,18,19,20,32]";"1";"0";"1"
"625";"6";"5";"1";"33";"1";"1";"7";"2";"[7,31,32,35]";"2";"0";"1"
"626";"12";"5";"1";"26";"1";"1";"7";"2";"[4,27,28,29,30]";"0";"5";"1"
"627";"4";"5";"1";"22";"1";"1";"7";"1";"[1,21,23,24]";"2";"0";"1"
"628";"11";"5";"1";"37";"1";"1";"7";"1";"[36,39,40]";"2";"0";"1"
"629";"35";"5";"1";"28";"1";"1";"7";"1";"[26,27,29]";"1";"0";"1"
"630";"13";"5";"1";"31";"1";"1";"7";"1";"[32,33,34,35]";"1";"0";"1"
"631";"2";"6";"1";"38";"1";"1";"7";"2";"[4,36,39,40]";"1";"0";"1"
"632";"15";"6";"1";"16";"1";"1";"7";"1";"[17,18,19,20]";"0";"6";"1"
"633";"18";"6";"1";"17";"1";"1";"7";"1";"[16,18,19,20,32]";"1";"0";"1"
"634";"3";"6";"1";"9";"1";"1";"7";"1";"[6,7,8,10,19,36]";"1";"0";"1"
"635";"28";"6";"1";"34";"1";"1";"7";"2";"[31,32]";"1";"0";"1"
"636";"11";"6";"1";"37";"1";"1";"7";"1";"[36,39,40]";"2";"0";"1"
"637";"7";"6";"1";"35";"1";"1";"7";"1";"[31,32,33]";"0";"3";"1"
"638";"35";"6";"1";"28";"1";"1";"7";"1";"[26,27,29]";"1";"0";"1"
"639";"12";"7";"1";"26";"1";"1";"7";"2";"[4,27,28,29,30]";"0";"6";"1"
"640";"3";"7";"1";"9";"1";"1";"7";"1";"[6,7,8,10,19,36]";"1";"0";"1"
"641";"32";"7";"1";"2";"1";"1";"7";"1";"[1,3,4,5,19]";"1";"0";"1"
"642";"28";"7";"1";"34";"1";"1";"7";"2";"[31,32]";"1";"0";"1"
"643";"5";"7";"1";"13";"1";"1";"7";"1";"[11,12,14,15]";"2";"0";"1"
"644";"22";"7";"1";"23";"1";"1";"7";"1";"[15,21,22,24,25]";"0";"2";"1"
"645";"32";"8";"1";"2";"1";"1";"7";"1";"[1,3,4,5,19]";"1";"0";"1"
"646";"5";"8";"1";"13";"1";"1";"7";"1";"[11,12,14,15]";"2";"0";"1"
"647";"16";"8";"1";"20";"1";"1";"7";"2";"[16,17,18,19]";"1";"0";"1"
"648";"22";"8";"1";"23";"1";"1";"7";"1";"[15,21,22,24,25]";"0";"3";"1"
"649";"7";"8";"1";"35";"1";"1";"7";"1";"[31,32,33]";"0";"4";"1"
"650";"19";"8";"1";"21";"1";"1";"7";"1";"[22,23,24,25]";"1";"0";"1"
"651";"29";"8";"1";"32";"1";"1";"7";"1";"[17,31,33,34,35]";"0";"5";"1"
"652";"22";"9";"1";"23";"1";"1";"7";"1";"[15,21,22,24,25]";"0";"4";"1"
"653";"16";"9";"1";"20";"1";"1";"7";"2";"[16,17,18,19]";"1";"0";"1"
"654";"9";"9";"1";"40";"1";"1";"7";"2";"[36,37,38,39]";"2";"0";"1"
"655";"19";"9";"1";"21";"1";"1";"7";"1";"[22,23,24,25]";"1";"0";"1"
"656";"7";"10";"1";"35";"1";"1";"7";"1";"[31,32,33]";"0";"5";"1"
"657";"29";"10";"1";"32";"1";"1";"7";"1";"[17,31,33,34,35]";"0";"4";"1"
"658";"22";"10";"1";"23";"1";"1";"7";"1";"[15,21,22,24,25]";"0";"5";"1"
"659";"9";"10";"1";"40";"1";"1";"7";"2";"[36,37,38,39]";"2";"0";"1"
"660";"24";"11";"1";"39";"1";"1";"7";"2";"[37,38,40]";"2";"0";"1"
"661";"8";"11";"1";"36";"1";"1";"7";"1";"[9,37,38,40]";"1";"0";"1"
"662";"22";"11";"1";"23";"1";"1";"7";"1";"[15,21,22,24,25]";"0";"6";"1"
"663";"29";"12";"1";"32";"1";"1";"7";"1";"[17,31,33,34,35]";"0";"3";"1"
"664";"7";"12";"1";"35";"1";"1";"7";"1";"[31,32,33]";"0";"6";"1"
"665";"24";"12";"1";"39";"1";"1";"7";"2";"[37,38,40]";"2";"0";"1"
"666";"8";"12";"1";"36";"1";"1";"7";"1";"[9,37,38,40]";"1";"0";"1"
"667";"39";"14";"1";"27";"1";"1";"7";"2";"[26,28,29,30]";"2";"0";"1"
"668";"29";"14";"1";"32";"1";"1";"7";"1";"[17,31,33,34,35]";"0";"2";"1"
"669";"37";"14";"1";"1";"1";"1";"7";"1";"[2,3,4,5,22]";"2";"0";"1"
"670";"36";"14";"1";"5";"1";"1";"7";"1";"[1,2,4,18]";"1";"0";"1"
"671";"39";"15";"1";"27";"1";"1";"7";"2";"[26,28,29,30]";"2";"0";"1"
"672";"15";"15";"1";"16";"1";"1";"7";"1";"[17,18,19,20]";"1";"6";"1"
"673";"37";"15";"1";"1";"1";"1";"7";"1";"[2,3,4,5,22]";"2";"0";"1"
"674";"36";"15";"1";"5";"1";"1";"7";"1";"[1,2,4,18]";"1";"0";"1"
"675";"29";"15";"1";"32";"1";"1";"7";"1";"[17,31,33,34,35]";"0";"1";"1"
"676";"15";"16";"1";"16";"1";"1";"7";"1";"[17,18,19,20]";"1";"6";"1"
"677";"29";"17";"1";"32";"1";"1";"7";"1";"[17,31,33,34,35]";"0";"8";"1"
"678";"31";"18";"1";"14";"1";"1";"7";"1";"[11,12,13,15]";"2";"0";"1"
"679";"31";"19";"1";"14";"1";"1";"7";"1";"[11,12,13,15]";"2";"0";"1"
"680";"27";"21";"1";"15";"1";"1";"7";"2";"[11,12,13,14,23,30]";"2";"1";"1"
"681";"22";"21";"1";"23";"1";"1";"7";"1";"[15,21,22,24,25]";"1";"6";"1"
"682";"29";"21";"1";"32";"1";"1";"7";"1";"[17,31,33,34,35]";"1";"8";"1"
"683";"12";"22";"1";"26";"1";"1";"7";"2";"[4,27,28,29,30]";"2";"6";"1"
"684";"22";"22";"1";"23";"1";"1";"7";"1";"[15,21,22,24,25]";"1";"6";"1"
"685";"29";"22";"1";"32";"1";"1";"7";"1";"[17,31,33,34,35]";"1";"8";"1"
"686";"7";"22";"1";"35";"1";"1";"7";"1";"[31,32,33]";"2";"6";"1"
"687";"12";"23";"1";"26";"1";"1";"7";"2";"[4,27,28,29,30]";"2";"6";"1"
"688";"7";"23";"1";"35";"1";"1";"7";"1";"[31,32,33]";"2";"6";"1"
"689";"30";"1";"1";"18";"1";"1";"8";"1";"[5,16,17,19,20]";"1";"0";"1"
"690";"34";"1";"1";"6";"1";"1";"8";"1";"[7,8,9]";"1";"0";"1"
"691";"25";"2";"1";"8";"1";"1";"8";"1";"[4,6,7,9]";"1";"0";"1"
"692";"35";"2";"1";"28";"1";"1";"8";"1";"[26,27,29]";"2";"0";"1"
"693";"14";"2";"1";"19";"1";"1";"8";"1";"[2,9,16,17,18,20]";"2";"0";"1"
"694";"30";"2";"1";"18";"1";"1";"8";"1";"[5,16,17,19,20]";"1";"0";"1"
"695";"6";"2";"1";"33";"1";"1";"8";"2";"[7,31,32,35]";"2";"0";"1"
"696";"34";"2";"1";"6";"1";"1";"8";"1";"[7,8,9]";"1";"0";"1"
"697";"40";"3";"1";"10";"1";"1";"8";"2";"[9]";"1";"0";"1"
"698";"25";"3";"1";"8";"1";"1";"8";"1";"[4,6,7,9]";"1";"0";"1"
"699";"20";"3";"1";"29";"1";"1";"8";"1";"[26,27,28]";"2";"0";"1"
"700";"35";"3";"1";"28";"1";"1";"8";"1";"[26,27,29]";"2";"0";"1"
"701";"21";"3";"1";"25";"1";"1";"8";"1";"[21,23,24]";"1";"0";"1"
"702";"17";"3";"1";"30";"1";"1";"8";"1";"[15,26,27]";"2";"0";"1"
"703";"14";"3";"1";"19";"1";"1";"8";"1";"[2,9,16,17,18,20]";"2";"0";"1"
"704";"1";"3";"1";"3";"1";"1";"8";"1";"[1,2]";"2";"0";"1"
"705";"6";"3";"1";"33";"1";"1";"8";"2";"[7,31,32,35]";"2";"0";"1"
"706";"8";"3";"1";"36";"1";"1";"8";"1";"[9,37,38,40]";"1";"0";"1"
"707";"27";"4";"1";"15";"1";"1";"8";"2";"[11,12,13,14,23,30]";"2";"0";"1"
"708";"2";"4";"1";"38";"1";"1";"8";"2";"[4,36,39,40]";"2";"0";"1"
"709";"26";"4";"1";"12";"1";"1";"8";"1";"[11,13,14,15]";"2";"0";"1"
"710";"40";"4";"1";"10";"1";"1";"8";"2";"[9]";"1";"0";"1"
"711";"20";"4";"1";"29";"1";"1";"8";"1";"[26,27,28]";"2";"0";"1"
"712";"12";"4";"1";"26";"1";"1";"8";"2";"[4,27,28,29,30]";"0";"5";"1"
"713";"21";"4";"1";"25";"1";"1";"8";"1";"[21,23,24]";"1";"0";"1"
"714";"33";"4";"1";"4";"1";"1";"8";"1";"[1,2,5,8,26,38]";"1";"0";"1"
"715";"17";"4";"1";"30";"1";"1";"8";"1";"[15,26,27]";"2";"0";"1"
"716";"23";"4";"1";"24";"1";"1";"8";"1";"[21,22,23,25]";"1";"0";"1"
"717";"32";"4";"1";"2";"1";"1";"8";"1";"[1,3,4,5,19]";"1";"0";"1"
"718";"1";"4";"1";"3";"1";"1";"8";"1";"[1,2]";"2";"0";"1"
"719";"8";"4";"1";"36";"1";"1";"8";"1";"[9,37,38,40]";"1";"0";"1"
"720";"27";"5";"1";"15";"1";"1";"8";"2";"[11,12,13,14,23,30]";"2";"0";"1"
"721";"2";"5";"1";"38";"1";"1";"8";"2";"[4,36,39,40]";"2";"0";"1"
"722";"26";"5";"1";"12";"1";"1";"8";"1";"[11,13,14,15]";"2";"0";"1"
"723";"12";"5";"1";"26";"1";"1";"8";"2";"[4,27,28,29,30]";"0";"7";"1"
"724";"33";"5";"1";"4";"1";"1";"8";"1";"[1,2,5,8,26,38]";"1";"0";"1"
"725";"23";"5";"1";"24";"1";"1";"8";"1";"[21,22,23,25]";"1";"0";"1"
"726";"32";"5";"1";"2";"1";"1";"8";"1";"[1,3,4,5,19]";"1";"0";"1"
"727";"27";"5";"1";"15";"1";"1";"8";"2";"[11,12,13,14,23,30]";"2";"6";"1"
"728";"38";"6";"1";"7";"1";"1";"8";"1";"[6,8,9,33]";"1";"0";"1"
"729";"18";"6";"1";"17";"1";"1";"8";"1";"[16,18,19,20,32]";"1";"0";"1"
"730";"5";"6";"1";"13";"1";"1";"8";"1";"[11,12,14,15]";"2";"0";"1"
"731";"38";"7";"1";"7";"1";"1";"8";"1";"[6,8,9,33]";"1";"0";"1"
"732";"28";"7";"1";"34";"1";"1";"8";"2";"[31,32]";"1";"0";"1"
"733";"27";"7";"1";"15";"1";"1";"8";"2";"[11,12,13,14,23,30]";"2";"5";"1"
"734";"18";"7";"1";"17";"1";"1";"8";"1";"[16,18,19,20,32]";"1";"0";"1"
"735";"12";"7";"1";"26";"1";"1";"8";"2";"[4,27,28,29,30]";"0";"6";"1"
"736";"4";"7";"1";"22";"1";"1";"8";"1";"[1,21,23,24]";"1";"0";"1"
"737";"5";"7";"1";"13";"1";"1";"8";"1";"[11,12,14,15]";"2";"0";"1"
"738";"7";"7";"1";"35";"1";"1";"8";"1";"[31,32,33]";"1";"0";"1"
"739";"28";"8";"1";"34";"1";"1";"8";"2";"[31,32]";"1";"0";"1"
"740";"27";"8";"1";"15";"1";"1";"8";"2";"[11,12,13,14,23,30]";"2";"3";"1"
"741";"12";"8";"1";"26";"1";"1";"8";"2";"[4,27,28,29,30]";"0";"7";"1"
"742";"4";"8";"1";"22";"1";"1";"8";"1";"[1,21,23,24]";"1";"0";"1"
"743";"7";"8";"1";"35";"1";"1";"8";"1";"[31,32,33]";"1";"0";"1"
"744";"3";"9";"1";"9";"1";"1";"8";"1";"[6,7,8,10,19,36]";"1";"0";"1"
"745";"37";"9";"1";"1";"1";"1";"8";"1";"[2,3,4,5,22]";"1";"0";"1"
"746";"27";"9";"1";"15";"1";"1";"8";"2";"[11,12,13,14,23,30]";"2";"1";"1"
"747";"3";"10";"1";"9";"1";"1";"8";"1";"[6,7,8,10,19,36]";"1";"0";"1"
"748";"37";"10";"1";"1";"1";"1";"8";"1";"[2,3,4,5,22]";"1";"0";"1"
"749";"24";"11";"1";"39";"1";"1";"8";"2";"[37,38,40]";"2";"0";"1"
"750";"24";"12";"1";"39";"1";"1";"8";"2";"[37,38,40]";"2";"0";"1"
"751";"31";"12";"1";"14";"1";"1";"8";"1";"[11,12,13,15]";"2";"0";"1"
"752";"12";"12";"1";"26";"1";"1";"8";"2";"[4,27,28,29,30]";"2";"7";"1"
"753";"31";"13";"1";"14";"1";"1";"8";"1";"[11,12,13,15]";"2";"0";"1"
"754";"27";"13";"1";"15";"1";"1";"8";"2";"[11,12,13,14,23,30]";"2";"7";"1"
"755";"15";"13";"1";"16";"1";"1";"8";"1";"[17,18,19,20]";"1";"0";"1"
"756";"12";"13";"1";"26";"1";"1";"8";"2";"[4,27,28,29,30]";"2";"7";"1"
"757";"36";"13";"1";"5";"1";"1";"8";"1";"[1,2,4,18]";"1";"0";"1"
"758";"9";"13";"1";"40";"1";"1";"8";"2";"[36,37,38,39]";"1";"0";"1"
"759";"10";"13";"1";"11";"1";"1";"8";"1";"[12,13,14,15]";"2";"0";"1"
"760";"15";"14";"1";"16";"1";"1";"8";"1";"[17,18,19,20]";"1";"0";"1"
"761";"16";"14";"1";"20";"1";"1";"8";"2";"[16,17,18,19]";"1";"0";"1"
"762";"36";"14";"1";"5";"1";"1";"8";"1";"[1,2,4,18]";"1";"0";"1"
"763";"9";"14";"1";"40";"1";"1";"8";"2";"[36,37,38,39]";"1";"0";"1"
"764";"10";"14";"1";"11";"1";"1";"8";"1";"[12,13,14,15]";"2";"0";"1"
"765";"16";"15";"1";"20";"1";"1";"8";"2";"[16,17,18,19]";"1";"0";"1"
"766";"11";"16";"1";"37";"1";"1";"8";"1";"[36,39,40]";"1";"0";"1"
"767";"11";"17";"1";"37";"1";"1";"8";"1";"[36,39,40]";"1";"0";"1"
"768";"22";"18";"1";"23";"1";"1";"8";"1";"[15,21,22,24,25]";"1";"0";"1"
"769";"22";"19";"1";"23";"1";"1";"8";"1";"[15,21,22,24,25]";"1";"0";"1"
"770";"29";"19";"1";"32";"1";"1";"8";"1";"[17,31,33,34,35]";"1";"0";"1"
"771";"19";"19";"1";"21";"1";"1";"8";"1";"[22,23,24,25]";"1";"0";"1"
"772";"30";"19";"1";"18";"1";"1";"8";"1";"[5,16,17,19,20]";"1";"1";"1"
"773";"29";"20";"1";"32";"1";"1";"8";"1";"[17,31,33,34,35]";"1";"0";"1"
"774";"19";"20";"1";"21";"1";"1";"8";"1";"[22,23,24,25]";"1";"0";"1"
"775";"30";"21";"1";"18";"1";"1";"8";"1";"[5,16,17,19,20]";"1";"12";"1"
"776";"13";"22";"1";"31";"1";"1";"8";"1";"[32,33,34,35]";"1";"0";"1"
"777";"13";"23";"1";"31";"1";"1";"8";"1";"[32,33,34,35]";"1";"0";"1"
"778";"39";"26";"1";"27";"1";"1";"8";"2";"[26,28,29,30]";"2";"0";"1"
"779";"39";"27";"1";"27";"1";"1";"8";"2";"[26,28,29,30]";"2";"0";"1"
"780";"30";"1";"1";"18";"1";"1";"9";"1";"[5,16,17,19,20]";"2";"0";"1"
"781";"25";"1";"1";"8";"1";"1";"9";"1";"[4,6,7,9]";"1";"0";"1"
"782";"10";"2";"1";"11";"1";"1";"9";"1";"[12,13,14,15]";"2";"0";"1"
"783";"30";"2";"1";"18";"1";"1";"9";"1";"[5,16,17,19,20]";"2";"0";"1"
"784";"34";"2";"1";"6";"1";"1";"9";"1";"[7,8,9]";"1";"0";"1"
"785";"1";"2";"1";"3";"1";"1";"9";"1";"[1,2]";"1";"0";"1"
"786";"20";"2";"1";"29";"1";"1";"9";"1";"[26,27,28]";"2";"0";"1"
"787";"23";"2";"1";"24";"1";"1";"9";"1";"[21,22,23,25]";"1";"0";"1"
"788";"6";"2";"1";"33";"1";"1";"9";"2";"[7,31,32,35]";"1";"0";"1"
"789";"35";"2";"1";"28";"1";"1";"9";"1";"[26,27,29]";"2";"0";"1"
"790";"25";"2";"1";"8";"1";"1";"9";"1";"[4,6,7,9]";"1";"0";"1"
"791";"10";"3";"1";"11";"1";"1";"9";"1";"[12,13,14,15]";"2";"0";"1"
"792";"34";"3";"1";"6";"1";"1";"9";"1";"[7,8,9]";"1";"0";"1"
"793";"9";"3";"1";"40";"1";"1";"9";"2";"[36,37,38,39]";"1";"0";"1"
"794";"1";"3";"1";"3";"1";"1";"9";"1";"[1,2]";"1";"0";"1"
"795";"20";"3";"1";"29";"1";"1";"9";"1";"[26,27,28]";"2";"0";"1"
"796";"21";"3";"1";"25";"1";"1";"9";"1";"[21,23,24]";"1";"0";"1"
"797";"23";"3";"1";"24";"1";"1";"9";"1";"[21,22,23,25]";"1";"0";"1"
"798";"17";"3";"1";"30";"1";"1";"9";"1";"[15,26,27]";"2";"0";"1"
"799";"6";"3";"1";"33";"1";"1";"9";"2";"[7,31,32,35]";"1";"0";"1"
"800";"8";"3";"1";"36";"1";"1";"9";"1";"[9,37,38,40]";"1";"0";"1"
"801";"18";"3";"1";"17";"1";"1";"9";"1";"[16,18,19,20,32]";"1";"0";"1"
"802";"35";"3";"1";"28";"1";"1";"9";"1";"[26,27,29]";"2";"0";"1"
"803";"9";"4";"1";"40";"1";"1";"9";"2";"[36,37,38,39]";"1";"0";"1"
"804";"4";"4";"1";"22";"1";"1";"9";"1";"[1,21,23,24]";"1";"0";"1"
"805";"39";"4";"1";"27";"1";"1";"9";"2";"[26,28,29,30]";"2";"0";"1"
"806";"27";"4";"1";"15";"1";"1";"9";"2";"[11,12,13,14,23,30]";"1";"0";"1"
"807";"11";"4";"1";"37";"1";"1";"9";"1";"[36,39,40]";"1";"0";"1"
"808";"2";"4";"1";"38";"1";"1";"9";"2";"[4,36,39,40]";"2";"0";"1"
"809";"13";"4";"1";"31";"1";"1";"9";"1";"[32,33,34,35]";"1";"0";"1"
"810";"21";"4";"1";"25";"1";"1";"9";"1";"[21,23,24]";"1";"0";"1"
"811";"17";"4";"1";"30";"1";"1";"9";"1";"[15,26,27]";"2";"0";"1"
"812";"29";"4";"1";"32";"1";"1";"9";"1";"[17,31,33,34,35]";"2";"0";"1"
"813";"8";"4";"1";"36";"1";"1";"9";"1";"[9,37,38,40]";"1";"0";"1"
"814";"18";"4";"1";"17";"1";"1";"9";"1";"[16,18,19,20,32]";"1";"0";"1"
"815";"12";"5";"1";"26";"1";"1";"9";"2";"[4,27,28,29,30]";"1";"0";"1"
"816";"7";"5";"1";"35";"1";"1";"9";"1";"[31,32,33]";"0";"7";"1"
"817";"4";"5";"1";"22";"1";"1";"9";"1";"[1,21,23,24]";"1";"0";"1"
"818";"39";"5";"1";"27";"1";"1";"9";"2";"[26,28,29,30]";"2";"0";"1"
"819";"27";"5";"1";"15";"1";"1";"9";"2";"[11,12,13,14,23,30]";"1";"0";"1"
"820";"11";"5";"1";"37";"1";"1";"9";"1";"[36,39,40]";"1";"0";"1"
"821";"2";"5";"1";"38";"1";"1";"9";"2";"[4,36,39,40]";"2";"0";"1"
"822";"13";"5";"1";"31";"1";"1";"9";"1";"[32,33,34,35]";"1";"0";"1"
"823";"29";"5";"1";"32";"1";"1";"9";"1";"[17,31,33,34,35]";"2";"0";"1"
"824";"38";"5";"1";"7";"1";"1";"9";"1";"[6,8,9,33]";"1";"0";"1"
"825";"14";"5";"1";"19";"1";"1";"9";"1";"[2,9,16,17,18,20]";"2";"0";"1"
"826";"12";"6";"1";"26";"1";"1";"9";"2";"[4,27,28,29,30]";"1";"0";"1"
"827";"7";"6";"1";"35";"1";"1";"9";"1";"[31,32,33]";"0";"8";"1"
"828";"5";"6";"1";"13";"1";"1";"9";"1";"[11,12,14,15]";"2";"0";"1"
"829";"32";"6";"1";"2";"1";"1";"9";"1";"[1,3,4,5,19]";"1";"0";"1"
"830";"38";"6";"1";"7";"1";"1";"9";"1";"[6,8,9,33]";"1";"0";"1"
"831";"40";"6";"1";"10";"1";"1";"9";"2";"[9]";"1";"0";"1"
"832";"14";"6";"1";"19";"1";"1";"9";"1";"[2,9,16,17,18,20]";"2";"0";"1"
"833";"22";"6";"1";"23";"1";"1";"9";"1";"[15,21,22,24,25]";"0";"7";"1"
"834";"5";"7";"1";"13";"1";"1";"9";"1";"[11,12,14,15]";"2";"0";"1"
"835";"36";"7";"1";"5";"1";"1";"9";"1";"[1,2,4,18]";"1";"0";"1"
"836";"32";"7";"1";"2";"1";"1";"9";"1";"[1,3,4,5,19]";"1";"0";"1"
"837";"40";"7";"1";"10";"1";"1";"9";"2";"[9]";"1";"0";"1"
"838";"26";"7";"1";"12";"1";"1";"9";"1";"[11,13,14,15]";"2";"0";"1"
"839";"15";"8";"1";"16";"1";"1";"9";"1";"[17,18,19,20]";"2";"0";"1"
"840";"7";"8";"1";"35";"1";"1";"9";"1";"[31,32,33]";"0";"1";"1"
"841";"36";"8";"1";"5";"1";"1";"9";"1";"[1,2,4,18]";"1";"0";"1"
"842";"22";"8";"1";"23";"1";"1";"9";"1";"[15,21,22,24,25]";"0";"8";"1"
"843";"16";"8";"1";"20";"1";"1";"9";"2";"[16,17,18,19]";"2";"0";"1"
"844";"26";"8";"1";"12";"1";"1";"9";"1";"[11,13,14,15]";"2";"0";"1"
"845";"33";"9";"1";"4";"1";"1";"9";"1";"[1,2,5,8,26,38]";"1";"0";"1"
"846";"15";"9";"1";"16";"1";"1";"9";"1";"[17,18,19,20]";"2";"0";"1"
"847";"16";"9";"1";"20";"1";"1";"9";"2";"[16,17,18,19]";"2";"0";"1"
"848";"28";"9";"1";"34";"1";"1";"9";"2";"[31,32]";"2";"0";"1"
"849";"22";"9";"1";"23";"1";"1";"9";"1";"[15,21,22,24,25]";"0";"9";"1"
"850";"24";"9";"1";"39";"1";"1";"9";"2";"[37,38,40]";"1";"0";"1"
"851";"33";"10";"1";"4";"1";"1";"9";"1";"[1,2,5,8,26,38]";"1";"0";"1"
"852";"7";"10";"1";"35";"1";"1";"9";"1";"[31,32,33]";"0";"3";"1"
"853";"28";"10";"1";"34";"1";"1";"9";"2";"[31,32]";"2";"0";"1"
"854";"24";"10";"1";"39";"1";"1";"9";"2";"[37,38,40]";"1";"0";"1"
"855";"37";"12";"1";"1";"1";"1";"9";"1";"[2,3,4,5,22]";"1";"0";"1"
"856";"7";"13";"1";"35";"1";"1";"9";"1";"[31,32,33]";"0";"4";"1"
"857";"12";"13";"1";"26";"1";"1";"9";"2";"[4,27,28,29,30]";"1";"7";"1"
"858";"37";"13";"1";"1";"1";"1";"9";"1";"[2,3,4,5,22]";"1";"0";"1"
"859";"19";"14";"1";"21";"1";"1";"9";"1";"[22,23,24,25]";"1";"0";"1"
"860";"12";"14";"1";"26";"1";"1";"9";"2";"[4,27,28,29,30]";"1";"8";"1"
"861";"19";"15";"1";"21";"1";"1";"9";"1";"[22,23,24,25]";"1";"0";"1"
"862";"12";"16";"1";"26";"1";"1";"9";"2";"[4,27,28,29,30]";"1";"7";"1"
"863";"7";"16";"1";"35";"1";"1";"9";"1";"[31,32,33]";"0";"5";"1"
"864";"31";"17";"1";"14";"1";"1";"9";"1";"[11,12,13,15]";"1";"0";"1"
"865";"22";"17";"1";"23";"1";"1";"9";"1";"[15,21,22,24,25]";"2";"9";"1"
"866";"31";"18";"1";"14";"1";"1";"9";"1";"[11,12,13,15]";"1";"0";"1"
"867";"22";"18";"1";"23";"1";"1";"9";"1";"[15,21,22,24,25]";"2";"9";"1"
"868";"7";"19";"1";"35";"1";"1";"9";"1";"[31,32,33]";"0";"6";"1"
"869";"12";"19";"1";"26";"1";"1";"9";"2";"[4,27,28,29,30]";"1";"8";"1"
"870";"3";"20";"1";"9";"1";"1";"9";"1";"[6,7,8,10,19,36]";"1";"0";"1"
"871";"3";"21";"1";"9";"1";"1";"9";"1";"[6,7,8,10,19,36]";"1";"0";"1"
"872";"7";"22";"1";"35";"1";"1";"9";"1";"[31,32,33]";"0";"7";"1"
"873";"7";"24";"1";"35";"1";"1";"9";"1";"[31,32,33]";"0";"8";"1"
"874";"7";"25";"1";"35";"1";"1";"9";"1";"[31,32,33]";"0";"9";"1"
"875";"2";"25";"1";"38";"1";"1";"9";"2";"[4,36,39,40]";"2";"9";"1"
"876";"13";"28";"1";"31";"1";"1";"9";"1";"[32,33,34,35]";"1";"6";"1"
"877";"7";"29";"1";"35";"1";"1";"9";"1";"[31,32,33]";"1";"9";"1"
"878";"13";"29";"1";"31";"1";"1";"9";"1";"[32,33,34,35]";"1";"4";"1"
"879";"7";"30";"1";"35";"1";"1";"9";"1";"[31,32,33]";"1";"9";"1"
"880";"30";"1";"1";"18";"1";"1";"10";"1";"[5,16,17,19,20]";"1";"0";"1"
"881";"27";"1";"1";"15";"1";"1";"10";"2";"[11,12,13,14,23,30]";"2";"0";"1"
"882";"20";"1";"1";"29";"1";"1";"10";"1";"[26,27,28]";"2";"0";"1"
"883";"30";"2";"1";"18";"1";"1";"10";"1";"[5,16,17,19,20]";"1";"0";"1"
"884";"34";"2";"1";"6";"1";"1";"10";"1";"[7,8,9]";"1";"0";"1"
"885";"27";"2";"1";"15";"1";"1";"10";"2";"[11,12,13,14,23,30]";"2";"0";"1"
"886";"25";"2";"1";"8";"1";"1";"10";"1";"[4,6,7,9]";"1";"0";"1"
"887";"23";"2";"1";"24";"1";"1";"10";"1";"[21,22,23,25]";"1";"0";"1"
"888";"20";"2";"1";"29";"1";"1";"10";"1";"[26,27,28]";"2";"0";"1"
"889";"1";"3";"1";"3";"1";"1";"10";"1";"[1,2]";"1";"0";"1"
"890";"34";"3";"1";"6";"1";"1";"10";"1";"[7,8,9]";"1";"0";"1"
"891";"8";"3";"1";"36";"1";"1";"10";"1";"[9,37,38,40]";"1";"0";"1"
"892";"40";"3";"1";"10";"1";"1";"10";"2";"[9]";"1";"0";"1"
"893";"25";"3";"1";"8";"1";"1";"10";"1";"[4,6,7,9]";"1";"0";"1"
"894";"24";"3";"1";"39";"1";"1";"10";"2";"[37,38,40]";"1";"0";"1"
"895";"38";"3";"1";"7";"1";"1";"10";"1";"[6,8,9,33]";"1";"0";"1"
"896";"17";"3";"1";"30";"1";"1";"10";"1";"[15,26,27]";"1";"0";"1"
"897";"23";"3";"1";"24";"1";"1";"10";"1";"[21,22,23,25]";"1";"0";"1"
"898";"1";"4";"1";"3";"1";"1";"10";"1";"[1,2]";"1";"0";"1"
"899";"12";"4";"1";"26";"1";"1";"10";"2";"[4,27,28,29,30]";"0";"8";"1"
"900";"6";"4";"1";"33";"1";"1";"10";"2";"[7,31,32,35]";"2";"0";"1"
"901";"35";"4";"1";"28";"1";"1";"10";"1";"[26,27,29]";"2";"0";"1"
"902";"15";"4";"1";"16";"1";"1";"10";"1";"[17,18,19,20]";"1";"0";"1"
"903";"39";"4";"1";"27";"1";"1";"10";"2";"[26,28,29,30]";"2";"0";"1"
"904";"8";"4";"1";"36";"1";"1";"10";"1";"[9,37,38,40]";"1";"0";"1"
"905";"40";"4";"1";"10";"1";"1";"10";"2";"[9]";"1";"0";"1"
"906";"32";"4";"1";"2";"1";"1";"10";"1";"[1,3,4,5,19]";"1";"0";"1"
"907";"18";"4";"1";"17";"1";"1";"10";"1";"[16,18,19,20,32]";"1";"0";"1"
"908";"24";"4";"1";"39";"1";"1";"10";"2";"[37,38,40]";"1";"0";"1"
"909";"38";"4";"1";"7";"1";"1";"10";"1";"[6,8,9,33]";"1";"0";"1"
"910";"2";"4";"1";"38";"1";"1";"10";"2";"[4,36,39,40]";"2";"0";"1"
"911";"17";"4";"1";"30";"1";"1";"10";"1";"[15,26,27]";"1";"0";"1"
"912";"11";"5";"1";"37";"1";"1";"10";"1";"[36,39,40]";"1";"0";"1"
"913";"31";"5";"1";"14";"1";"1";"10";"1";"[11,12,13,15]";"1";"0";"1"
"914";"6";"5";"1";"33";"1";"1";"10";"2";"[7,31,32,35]";"2";"0";"1"
"915";"35";"5";"1";"28";"1";"1";"10";"1";"[26,27,29]";"2";"0";"1"
"916";"15";"5";"1";"16";"1";"1";"10";"1";"[17,18,19,20]";"1";"0";"1"
"917";"16";"5";"1";"20";"1";"1";"10";"2";"[16,17,18,19]";"2";"0";"1"
"918";"39";"5";"1";"27";"1";"1";"10";"2";"[26,28,29,30]";"2";"0";"1"
"919";"12";"5";"1";"26";"1";"1";"10";"2";"[4,27,28,29,30]";"0";"9";"1"
"920";"37";"5";"1";"1";"1";"1";"10";"1";"[2,3,4,5,22]";"1";"0";"1"
"921";"32";"5";"1";"2";"1";"1";"10";"1";"[1,3,4,5,19]";"1";"0";"1"
"922";"4";"5";"1";"22";"1";"1";"10";"1";"[1,21,23,24]";"1";"0";"1"
"923";"18";"5";"1";"17";"1";"1";"10";"1";"[16,18,19,20,32]";"1";"0";"1"
"924";"10";"5";"1";"11";"1";"1";"10";"1";"[12,13,14,15]";"1";"0";"1"
"925";"2";"5";"1";"38";"1";"1";"10";"2";"[4,36,39,40]";"2";"0";"1"
"926";"21";"6";"1";"25";"1";"1";"10";"1";"[21,23,24]";"1";"0";"1"
"927";"11";"6";"1";"37";"1";"1";"10";"1";"[36,39,40]";"1";"0";"1"
"928";"31";"6";"1";"14";"1";"1";"10";"1";"[11,12,13,15]";"1";"0";"1"
"929";"13";"6";"1";"31";"1";"1";"10";"1";"[32,33,34,35]";"0";"8";"1"
"930";"16";"6";"1";"20";"1";"1";"10";"2";"[16,17,18,19]";"2";"0";"1"
"931";"37";"6";"1";"1";"1";"1";"10";"1";"[2,3,4,5,22]";"1";"0";"1"
"932";"4";"6";"1";"22";"1";"1";"10";"1";"[1,21,23,24]";"1";"0";"1"
"933";"10";"6";"1";"11";"1";"1";"10";"1";"[12,13,14,15]";"1";"0";"1"
"934";"28";"6";"1";"34";"1";"1";"10";"2";"[31,32]";"2";"0";"1"
"935";"19";"6";"1";"21";"1";"1";"10";"1";"[22,23,24,25]";"1";"0";"1"
"936";"21";"7";"1";"25";"1";"1";"10";"1";"[21,23,24]";"1";"0";"1"
"937";"14";"7";"1";"19";"1";"1";"10";"1";"[2,9,16,17,18,20]";"1";"0";"1"
"938";"5";"7";"1";"13";"1";"1";"10";"1";"[11,12,14,15]";"2";"0";"1"
"939";"7";"7";"1";"35";"1";"1";"10";"1";"[31,32,33]";"2";"0";"1"
"940";"13";"7";"1";"31";"1";"1";"10";"1";"[32,33,34,35]";"0";"9";"1"
"941";"29";"7";"1";"32";"1";"1";"10";"1";"[17,31,33,34,35]";"1";"0";"1"
"942";"28";"7";"1";"34";"1";"1";"10";"2";"[31,32]";"2";"0";"1"
"943";"19";"7";"1";"21";"1";"1";"10";"1";"[22,23,24,25]";"1";"0";"1"
"944";"14";"8";"1";"19";"1";"1";"10";"1";"[2,9,16,17,18,20]";"1";"0";"1"
"945";"12";"8";"1";"26";"1";"1";"10";"2";"[4,27,28,29,30]";"1";"9";"1"
"946";"5";"8";"1";"13";"1";"1";"10";"1";"[11,12,14,15]";"2";"0";"1"
"947";"7";"8";"1";"35";"1";"1";"10";"1";"[31,32,33]";"2";"0";"1"
"948";"29";"8";"1";"32";"1";"1";"10";"1";"[17,31,33,34,35]";"1";"0";"1"
"949";"36";"9";"1";"5";"1";"1";"10";"1";"[1,2,4,18]";"1";"0";"1"
"950";"12";"9";"1";"26";"1";"1";"10";"2";"[4,27,28,29,30]";"1";"9";"1"
"951";"22";"9";"1";"23";"1";"1";"10";"1";"[15,21,22,24,25]";"1";"0";"1"
"952";"36";"10";"1";"5";"1";"1";"10";"1";"[1,2,4,18]";"1";"0";"1"
"953";"13";"10";"1";"31";"1";"1";"10";"1";"[32,33,34,35]";"1";"9";"1"
"954";"22";"10";"1";"23";"1";"1";"10";"1";"[15,21,22,24,25]";"1";"0";"1"
"955";"13";"11";"1";"31";"1";"1";"10";"1";"[32,33,34,35]";"1";"9";"1"
"956";"7";"12";"1";"35";"1";"1";"10";"1";"[31,32,33]";"2";"8";"1"
"957";"33";"12";"1";"4";"1";"1";"10";"1";"[1,2,5,8,26,38]";"1";"0";"1"
"958";"13";"13";"1";"31";"1";"1";"10";"1";"[32,33,34,35]";"1";"7";"1"
"959";"33";"13";"1";"4";"1";"1";"10";"1";"[1,2,5,8,26,38]";"1";"0";"1"
"960";"13";"13";"1";"31";"1";"1";"10";"1";"[32,33,34,35]";"1";"5";"1"
"961";"7";"14";"1";"35";"1";"1";"10";"1";"[31,32,33]";"2";"9";"1"
"962";"13";"14";"1";"31";"1";"1";"10";"1";"[32,33,34,35]";"1";"1";"1"
"963";"7";"15";"1";"35";"1";"1";"10";"1";"[31,32,33]";"2";"8";"1"
"964";"9";"15";"1";"40";"1";"1";"10";"2";"[36,37,38,39]";"2";"0";"1"
"965";"13";"16";"1";"31";"1";"1";"10";"1";"[32,33,34,35]";"1";"2";"1"
"966";"13";"16";"1";"31";"1";"1";"10";"1";"[32,33,34,35]";"1";"3";"1"
"967";"9";"16";"1";"40";"1";"1";"10";"2";"[36,37,38,39]";"2";"0";"1"
"968";"7";"16";"1";"35";"1";"1";"10";"1";"[31,32,33]";"2";"7";"1"
"969";"13";"17";"1";"31";"1";"1";"10";"1";"[32,33,34,35]";"1";"4";"1"
"970";"3";"17";"1";"9";"1";"1";"10";"1";"[6,7,8,10,19,36]";"1";"0";"1"
"971";"3";"18";"1";"9";"1";"1";"10";"1";"[6,7,8,10,19,36]";"1";"0";"1"
"972";"7";"18";"1";"35";"1";"1";"10";"1";"[31,32,33]";"2";"6";"1"
"973";"13";"18";"1";"31";"1";"1";"10";"1";"[32,33,34,35]";"1";"5";"1"
"974";"13";"19";"1";"31";"1";"1";"10";"1";"[32,33,34,35]";"1";"6";"1"
"975";"13";"20";"1";"31";"1";"1";"10";"1";"[32,33,34,35]";"1";"7";"1"
"976";"7";"20";"1";"35";"1";"1";"10";"1";"[31,32,33]";"2";"5";"1"
"977";"13";"21";"1";"31";"1";"1";"10";"1";"[32,33,34,35]";"1";"8";"1"
"978";"13";"21";"1";"31";"1";"1";"10";"1";"[32,33,34,35]";"1";"9";"1"
"979";"7";"22";"1";"35";"1";"1";"10";"1";"[31,32,33]";"2";"4";"1"
"980";"4";"22";"1";"22";"1";"1";"10";"1";"[1,21,23,24]";"1";"4";"1"
"981";"7";"24";"1";"35";"1";"1";"10";"1";"[31,32,33]";"2";"8";"1"
"982";"4";"25";"1";"22";"1";"1";"10";"1";"[1,21,23,24]";"1";"12";"1"
"983";"13";"25";"1";"31";"1";"1";"10";"1";"[32,33,34,35]";"1";"1";"1"
"984";"7";"25";"1";"35";"1";"1";"10";"1";"[31,32,33]";"2";"9";"1"
"985";"13";"26";"1";"31";"1";"1";"10";"1";"[32,33,34,35]";"1";"4";"1"
"986";"26";"26";"1";"12";"1";"1";"10";"1";"[11,13,14,15]";"2";"0";"1"
"987";"7";"26";"1";"35";"1";"1";"10";"1";"[31,32,33]";"2";"10";"1"
"988";"26";"27";"1";"12";"1";"1";"10";"1";"[11,13,14,15]";"2";"0";"1"
"989";"13";"0";"1";"31";"1";"1";"11";"1";"[32,33,34,35]";"0";"2";"1"
"990";"30";"1";"1";"18";"1";"1";"11";"1";"[5,16,17,19,20]";"2";"0";"1"
"991";"27";"1";"1";"15";"1";"1";"11";"2";"[11,12,13,14,23,30]";"2";"0";"1"
"992";"4";"1";"1";"22";"1";"1";"11";"1";"[1,21,23,24]";"1";"0";"1"
"993";"34";"2";"1";"6";"1";"1";"11";"1";"[7,8,9]";"1";"0";"1"
"994";"14";"2";"1";"19";"1";"1";"11";"1";"[2,9,16,17,18,20]";"1";"0";"1"
"995";"30";"2";"1";"18";"1";"1";"11";"1";"[5,16,17,19,20]";"2";"0";"1"
"996";"9";"2";"1";"40";"1";"1";"11";"2";"[36,37,38,39]";"2";"0";"1"
"997";"23";"2";"1";"24";"1";"1";"11";"1";"[21,22,23,25]";"1";"0";"1"
"998";"13";"2";"1";"31";"1";"1";"11";"1";"[32,33,34,35]";"0";"9";"1"
"999";"1";"2";"1";"3";"1";"1";"11";"1";"[1,2]";"1";"0";"1"
"1000";"27";"2";"1";"15";"1";"1";"11";"2";"[11,12,13,14,23,30]";"2";"0";"1"
"1001";"25";"2";"1";"8";"1";"1";"11";"1";"[4,6,7,9]";"1";"0";"1"
"1002";"4";"2";"1";"22";"1";"1";"11";"1";"[1,21,23,24]";"1";"0";"1"
"1003";"34";"3";"1";"6";"1";"1";"11";"1";"[7,8,9]";"1";"0";"1"
"1004";"14";"3";"1";"19";"1";"1";"11";"1";"[2,9,16,17,18,20]";"1";"0";"1"
"1005";"20";"3";"1";"29";"1";"1";"11";"1";"[26,27,28]";"2";"0";"1"
"1006";"9";"3";"1";"40";"1";"1";"11";"2";"[36,37,38,39]";"2";"0";"1"
"1007";"23";"3";"1";"24";"1";"1";"11";"1";"[21,22,23,25]";"1";"0";"1"
"1008";"6";"3";"1";"33";"1";"1";"11";"2";"[7,31,32,35]";"2";"0";"1"
"1009";"1";"3";"1";"3";"1";"1";"11";"1";"[1,2]";"1";"0";"1"
"1010";"21";"3";"1";"25";"1";"1";"11";"1";"[21,23,24]";"1";"0";"1"
"1011";"25";"3";"1";"8";"1";"1";"11";"1";"[4,6,7,9]";"1";"0";"1"
"1012";"35";"3";"1";"28";"1";"1";"11";"1";"[26,27,29]";"1";"0";"1"
"1013";"38";"4";"1";"7";"1";"1";"11";"1";"[6,8,9,33]";"1";"0";"1"
"1014";"13";"4";"1";"31";"1";"1";"11";"1";"[32,33,34,35]";"0";"10";"1"
"1015";"20";"4";"1";"29";"1";"1";"11";"1";"[26,27,28]";"2";"0";"1"
"1016";"6";"4";"1";"33";"1";"1";"11";"2";"[7,31,32,35]";"2";"0";"1"
"1017";"32";"4";"1";"2";"1";"1";"11";"1";"[1,3,4,5,19]";"1";"0";"1"
"1018";"19";"4";"1";"21";"1";"1";"11";"1";"[22,23,24,25]";"1";"0";"1"
"1019";"21";"4";"1";"25";"1";"1";"11";"1";"[21,23,24]";"1";"0";"1"
"1020";"35";"4";"1";"28";"1";"1";"11";"1";"[26,27,29]";"1";"0";"1"
"1021";"7";"4";"1";"35";"1";"1";"11";"1";"[31,32,33]";"0";"9";"1"
"1022";"40";"4";"1";"10";"1";"1";"11";"2";"[9]";"1";"0";"1"
"1023";"26";"4";"1";"12";"1";"1";"11";"1";"[11,13,14,15]";"2";"0";"1"
"1024";"10";"5";"1";"11";"1";"1";"11";"1";"[12,13,14,15]";"2";"0";"1"
"1025";"38";"5";"1";"7";"1";"1";"11";"1";"[6,8,9,33]";"1";"0";"1"
"1026";"13";"5";"1";"31";"1";"1";"11";"1";"[32,33,34,35]";"0";"12";"1"
"1027";"8";"5";"1";"36";"1";"1";"11";"1";"[9,37,38,40]";"1";"0";"1"
"1028";"29";"5";"1";"32";"1";"1";"11";"1";"[17,31,33,34,35]";"1";"0";"1"
"1029";"3";"5";"1";"9";"1";"1";"11";"1";"[6,7,8,10,19,36]";"1";"0";"1"
"1030";"22";"5";"1";"23";"1";"1";"11";"1";"[15,21,22,24,25]";"1";"0";"1"
"1031";"32";"5";"1";"2";"1";"1";"11";"1";"[1,3,4,5,19]";"1";"0";"1"
"1032";"19";"5";"1";"21";"1";"1";"11";"1";"[22,23,24,25]";"1";"0";"1"
"1033";"11";"5";"1";"37";"1";"1";"11";"1";"[36,39,40]";"1";"0";"1"
"1034";"7";"5";"1";"35";"1";"1";"11";"1";"[31,32,33]";"0";"10";"1"
"1035";"40";"5";"1";"10";"1";"1";"11";"2";"[9]";"1";"0";"1"
"1036";"18";"5";"1";"17";"1";"1";"11";"1";"[16,18,19,20,32]";"1";"0";"1"
"1037";"26";"5";"1";"12";"1";"1";"11";"1";"[11,13,14,15]";"2";"0";"1"
"1038";"10";"6";"1";"11";"1";"1";"11";"1";"[12,13,14,15]";"2";"0";"1"
"1039";"16";"6";"1";"20";"1";"1";"11";"2";"[16,17,18,19]";"2";"0";"1"
"1040";"37";"6";"1";"1";"1";"1";"11";"1";"[2,3,4,5,22]";"2";"0";"1"
"1041";"8";"6";"1";"36";"1";"1";"11";"1";"[9,37,38,40]";"1";"0";"1"
"1042";"29";"6";"1";"32";"1";"1";"11";"1";"[17,31,33,34,35]";"1";"0";"1"
"1043";"3";"6";"1";"9";"1";"1";"11";"1";"[6,7,8,10,19,36]";"1";"0";"1"
"1044";"22";"6";"1";"23";"1";"1";"11";"1";"[15,21,22,24,25]";"1";"0";"1"
"1045";"24";"6";"1";"39";"1";"1";"11";"2";"[37,38,40]";"1";"0";"1"
"1046";"11";"6";"1";"37";"1";"1";"11";"1";"[36,39,40]";"1";"0";"1"
"1047";"28";"6";"1";"34";"1";"1";"11";"2";"[31,32]";"1";"0";"1"
"1048";"18";"6";"1";"17";"1";"1";"11";"1";"[16,18,19,20,32]";"1";"0";"1"
"1049";"16";"7";"1";"20";"1";"1";"11";"2";"[16,17,18,19]";"2";"0";"1"
"1050";"37";"7";"1";"1";"1";"1";"11";"1";"[2,3,4,5,22]";"2";"0";"1"
"1051";"15";"7";"1";"16";"1";"1";"11";"1";"[17,18,19,20]";"1";"0";"1"
"1052";"24";"7";"1";"39";"1";"1";"11";"2";"[37,38,40]";"1";"0";"1"
"1053";"33";"7";"1";"4";"1";"1";"11";"1";"[1,2,5,8,26,38]";"1";"0";"1"
"1054";"28";"7";"1";"34";"1";"1";"11";"2";"[31,32]";"1";"0";"1"
"1055";"15";"8";"1";"16";"1";"1";"11";"1";"[17,18,19,20]";"1";"0";"1"
"1056";"2";"8";"1";"38";"1";"1";"11";"2";"[4,36,39,40]";"1";"0";"1"
"1057";"33";"8";"1";"4";"1";"1";"11";"1";"[1,2,5,8,26,38]";"1";"0";"1"
"1058";"39";"9";"1";"27";"1";"1";"11";"2";"[26,28,29,30]";"2";"0";"1"
"1059";"31";"9";"1";"14";"1";"1";"11";"1";"[11,12,13,15]";"1";"0";"1"
"1060";"5";"9";"1";"13";"1";"1";"11";"1";"[11,12,14,15]";"2";"0";"1"
"1061";"2";"9";"1";"38";"1";"1";"11";"2";"[4,36,39,40]";"1";"0";"1"
"1062";"39";"10";"1";"27";"1";"1";"11";"2";"[26,28,29,30]";"2";"0";"1"
"1063";"31";"10";"1";"14";"1";"1";"11";"1";"[11,12,13,15]";"1";"0";"1"
"1064";"5";"10";"1";"13";"1";"1";"11";"1";"[11,12,14,15]";"2";"0";"1"
"1065";"7";"12";"1";"35";"1";"1";"11";"1";"[31,32,33]";"2";"10";"1"
"1066";"7";"13";"1";"35";"1";"1";"11";"1";"[31,32,33]";"2";"10";"1"
"1067";"36";"13";"1";"5";"1";"1";"11";"1";"[1,2,4,18]";"1";"0";"1"
"1068";"13";"13";"1";"31";"1";"1";"11";"1";"[32,33,34,35]";"2";"12";"1"
"1069";"16";"13";"1";"20";"1";"1";"11";"2";"[16,17,18,19]";"2";"8";"1"
"1070";"36";"14";"1";"5";"1";"1";"11";"1";"[1,2,4,18]";"1";"0";"1"
"1071";"13";"14";"1";"31";"1";"1";"11";"1";"[32,33,34,35]";"2";"12";"1"
"1072";"16";"15";"1";"20";"1";"1";"11";"2";"[16,17,18,19]";"2";"10";"1"
"1073";"16";"17";"1";"20";"1";"1";"11";"2";"[16,17,18,19]";"2";"11";"1"
"1074";"17";"19";"1";"30";"1";"1";"11";"1";"[15,26,27]";"1";"0";"1"
"1075";"17";"20";"1";"30";"1";"1";"11";"1";"[15,26,27]";"1";"0";"1"
"1076";"12";"22";"1";"26";"1";"1";"11";"2";"[4,27,28,29,30]";"1";"0";"1"
"1077";"12";"23";"1";"26";"1";"1";"11";"2";"[4,27,28,29,30]";"1";"0";"1"
"1078";"6";"1";"1";"33";"1";"1";"12";"2";"[7,31,32,35]";"1";"0";"1"
"1079";"30";"1";"1";"18";"1";"1";"12";"1";"[5,16,17,19,20]";"1";"0";"1"
"1080";"14";"1";"1";"19";"1";"1";"12";"1";"[2,9,16,17,18,20]";"1";"0";"1"
"1081";"27";"2";"1";"15";"1";"1";"12";"2";"[11,12,13,14,23,30]";"2";"0";"1"
"1082";"6";"2";"1";"33";"1";"1";"12";"2";"[7,31,32,35]";"1";"0";"1"
"1083";"30";"2";"1";"18";"1";"1";"12";"1";"[5,16,17,19,20]";"1";"0";"1"
"1084";"23";"2";"1";"24";"1";"1";"12";"1";"[21,22,23,25]";"1";"0";"1"
"1085";"8";"2";"1";"36";"1";"1";"12";"1";"[9,37,38,40]";"1";"0";"1"
"1086";"25";"2";"1";"8";"1";"1";"12";"1";"[4,6,7,9]";"1";"0";"1"
"1087";"21";"2";"1";"25";"1";"1";"12";"1";"[21,23,24]";"1";"0";"1"
"1088";"34";"2";"1";"6";"1";"1";"12";"1";"[7,8,9]";"1";"0";"1"
"1089";"14";"2";"1";"19";"1";"1";"12";"1";"[2,9,16,17,18,20]";"1";"0";"1"
"1090";"38";"2";"1";"7";"1";"1";"12";"1";"[6,8,9,33]";"1";"0";"1"
"1091";"31";"3";"1";"14";"1";"1";"12";"1";"[11,12,13,15]";"2";"0";"1"
"1092";"27";"3";"1";"15";"1";"1";"12";"2";"[11,12,13,14,23,30]";"2";"0";"1"
"1093";"35";"3";"1";"28";"1";"1";"12";"1";"[26,27,29]";"2";"0";"1"
"1094";"1";"3";"1";"3";"1";"1";"12";"1";"[1,2]";"1";"0";"1"
"1095";"23";"3";"1";"24";"1";"1";"12";"1";"[21,22,23,25]";"1";"0";"1"
"1096";"8";"3";"1";"36";"1";"1";"12";"1";"[9,37,38,40]";"1";"0";"1"
"1097";"32";"3";"1";"2";"1";"1";"12";"1";"[1,3,4,5,19]";"1";"0";"1"
"1098";"25";"3";"1";"8";"1";"1";"12";"1";"[4,6,7,9]";"1";"0";"1"
"1099";"21";"3";"1";"25";"1";"1";"12";"1";"[21,23,24]";"1";"0";"1"
"1100";"34";"3";"1";"6";"1";"1";"12";"1";"[7,8,9]";"1";"0";"1"
"1101";"38";"4";"1";"7";"1";"1";"12";"1";"[6,8,9,33]";"1";"0";"1"
"1102";"31";"4";"1";"14";"1";"1";"12";"1";"[11,12,13,15]";"2";"0";"1"
"1103";"40";"4";"1";"10";"1";"1";"12";"2";"[9]";"1";"0";"1"
"1104";"26";"4";"1";"12";"1";"1";"12";"1";"[11,13,14,15]";"2";"0";"1"
"1105";"35";"4";"1";"28";"1";"1";"12";"1";"[26,27,29]";"2";"0";"1"
"1106";"1";"4";"1";"3";"1";"1";"12";"1";"[1,2]";"1";"0";"1"
"1107";"36";"4";"1";"5";"1";"1";"12";"1";"[1,2,4,18]";"1";"0";"1"
"1108";"10";"4";"1";"11";"1";"1";"12";"1";"[12,13,14,15]";"2";"0";"1"
"1109";"7";"4";"1";"35";"1";"1";"12";"1";"[31,32,33]";"1";"0";"1"
"1110";"32";"4";"1";"2";"1";"1";"12";"1";"[1,3,4,5,19]";"1";"0";"1"
"1111";"3";"4";"1";"9";"1";"1";"12";"1";"[6,7,8,10,19,36]";"1";"0";"1"
"1112";"40";"5";"1";"10";"1";"1";"12";"2";"[9]";"1";"0";"1"
"1113";"26";"5";"1";"12";"1";"1";"12";"1";"[11,13,14,15]";"2";"0";"1"
"1114";"36";"5";"1";"5";"1";"1";"12";"1";"[1,2,4,18]";"1";"0";"1"
"1115";"10";"5";"1";"11";"1";"1";"12";"1";"[12,13,14,15]";"2";"0";"1"
"1116";"7";"5";"1";"35";"1";"1";"12";"1";"[31,32,33]";"1";"0";"1"
"1117";"24";"5";"1";"39";"1";"1";"12";"2";"[37,38,40]";"1";"0";"1"
"1118";"37";"5";"1";"1";"1";"1";"12";"1";"[2,3,4,5,22]";"1";"0";"1"
"1119";"18";"5";"1";"17";"1";"1";"12";"1";"[16,18,19,20,32]";"1";"0";"1"
"1120";"3";"5";"1";"9";"1";"1";"12";"1";"[6,7,8,10,19,36]";"1";"0";"1"
"1121";"2";"6";"1";"38";"1";"1";"12";"2";"[4,36,39,40]";"1";"0";"1"
"1122";"24";"6";"1";"39";"1";"1";"12";"2";"[37,38,40]";"1";"0";"1"
"1123";"15";"6";"1";"16";"1";"1";"12";"1";"[17,18,19,20]";"2";"0";"1"
"1124";"37";"6";"1";"1";"1";"1";"12";"1";"[2,3,4,5,22]";"1";"0";"1"
"1125";"18";"6";"1";"17";"1";"1";"12";"1";"[16,18,19,20,32]";"1";"0";"1"
"1126";"5";"6";"1";"13";"1";"1";"12";"1";"[11,12,14,15]";"2";"0";"1"
"1127";"2";"7";"1";"38";"1";"1";"12";"2";"[4,36,39,40]";"1";"0";"1"
"1128";"12";"7";"1";"26";"1";"1";"12";"2";"[4,27,28,29,30]";"1";"0";"1"
"1129";"33";"7";"1";"4";"1";"1";"12";"1";"[1,2,5,8,26,38]";"1";"0";"1"
"1130";"19";"7";"1";"21";"1";"1";"12";"1";"[22,23,24,25]";"1";"0";"1"
"1131";"15";"7";"1";"16";"1";"1";"12";"1";"[17,18,19,20]";"2";"0";"1"
"1132";"28";"7";"1";"34";"1";"1";"12";"2";"[31,32]";"1";"0";"1"
"1133";"5";"7";"1";"13";"1";"1";"12";"1";"[11,12,14,15]";"2";"0";"1"
"1134";"29";"8";"1";"32";"1";"1";"12";"1";"[17,31,33,34,35]";"2";"0";"1"
"1135";"4";"8";"1";"22";"1";"1";"12";"1";"[1,21,23,24]";"1";"0";"1"
"1136";"12";"8";"1";"26";"1";"1";"12";"2";"[4,27,28,29,30]";"1";"0";"1"
"1137";"33";"8";"1";"4";"1";"1";"12";"1";"[1,2,5,8,26,38]";"1";"0";"1"
"1138";"17";"8";"1";"30";"1";"1";"12";"1";"[15,26,27]";"1";"0";"1"
"1139";"19";"8";"1";"21";"1";"1";"12";"1";"[22,23,24,25]";"1";"0";"1"
"1140";"28";"8";"1";"34";"1";"1";"12";"2";"[31,32]";"1";"0";"1"
"1141";"29";"9";"1";"32";"1";"1";"12";"1";"[17,31,33,34,35]";"2";"0";"1"
"1142";"4";"9";"1";"22";"1";"1";"12";"1";"[1,21,23,24]";"1";"0";"1"
"1143";"17";"9";"1";"30";"1";"1";"12";"1";"[15,26,27]";"1";"0";"1"
"1144";"13";"12";"1";"31";"1";"1";"12";"1";"[32,33,34,35]";"1";"0";"1"
"1145";"22";"13";"1";"23";"1";"1";"12";"1";"[15,21,22,24,25]";"0";"3";"1"
"1146";"13";"13";"1";"31";"1";"1";"12";"1";"[32,33,34,35]";"1";"0";"1"
"1147";"22";"14";"1";"23";"1";"1";"12";"1";"[15,21,22,24,25]";"0";"4";"1"
"1148";"22";"15";"1";"23";"1";"1";"12";"1";"[15,21,22,24,25]";"0";"5";"1"
"1149";"22";"17";"1";"23";"1";"1";"12";"1";"[15,21,22,24,25]";"0";"11";"1"
"1150";"39";"17";"1";"27";"1";"1";"12";"2";"[26,28,29,30]";"2";"0";"1"
"1151";"9";"18";"1";"40";"1";"1";"12";"2";"[36,37,38,39]";"2";"0";"1"
"1152";"39";"18";"1";"27";"1";"1";"12";"2";"[26,28,29,30]";"2";"0";"1"
"1153";"9";"19";"1";"40";"1";"1";"12";"2";"[36,37,38,39]";"2";"0";"1"
"1154";"11";"21";"1";"37";"1";"1";"12";"1";"[36,39,40]";"1";"0";"1"
"1155";"11";"22";"1";"37";"1";"1";"12";"1";"[36,39,40]";"1";"0";"1"
"1156";"20";"24";"1";"29";"1";"1";"12";"1";"[26,27,28]";"1";"0";"1"
"1157";"16";"24";"1";"20";"1";"1";"12";"2";"[16,17,18,19]";"2";"0";"1"
"1158";"20";"25";"1";"29";"1";"1";"12";"1";"[26,27,28]";"1";"0";"1"
"1159";"22";"25";"1";"23";"1";"1";"12";"1";"[15,21,22,24,25]";"2";"11";"1"
"1160";"16";"25";"1";"20";"1";"1";"12";"2";"[16,17,18,19]";"2";"0";"1"
"1161";"22";"26";"1";"23";"1";"1";"12";"1";"[15,21,22,24,25]";"2";"11";"1"
"1162";"30";"0";"1";"23";"1";"2";"12";"2";"[15,21,22,24,25]";"2";"11";"1"
"1163";"25";"0";"1";"14";"1";"2";"12";"2";"[11,12,13,15]";"2";"0";"1"
"1164";"18";"0";"1";"32";"1";"2";"12";"2";"[17,31,33,34,35]";"2";"0";"1"
"1165";"2";"0";"1";"17";"1";"2";"12";"2";"[16,18,19,20,32]";"1";"0";"1"
"1166";"27";"0";"1";"21";"1";"2";"12";"2";"[22,23,24,25]";"1";"0";"1"
"1167";"1";"0";"1";"8";"1";"2";"12";"2";"[4,6,7,9]";"1";"0";"1"
"1168";"23";"0";"1";"12";"1";"2";"12";"1";"[11,13,14,15]";"2";"0";"1"
"1169";"39";"0";"1";"19";"1";"2";"12";"1";"[2,9,16,17,18,20]";"1";"0";"1"
"1170";"31";"0";"1";"2";"1";"2";"12";"2";"[1,3,4,5,19]";"1";"0";"1"
"1171";"12";"0";"1";"11";"1";"2";"12";"2";"[12,13,14,15]";"2";"0";"1"
"1172";"4";"0";"1";"18";"1";"2";"12";"2";"[5,16,17,19,20]";"1";"0";"1"
"1173";"32";"0";"1";"10";"1";"2";"12";"2";"[9]";"1";"0";"1"
"1174";"7";"0";"1";"40";"1";"2";"12";"2";"[36,37,38,39]";"2";"0";"1"
"1175";"35";"0";"1";"39";"1";"2";"12";"1";"[37,38,40]";"1";"0";"1"
"1176";"6";"0";"1";"13";"1";"2";"12";"2";"[11,12,14,15]";"2";"0";"1"
"1177";"28";"0";"1";"5";"1";"2";"12";"2";"[1,2,4,18]";"1";"0";"1"
"1178";"20";"0";"1";"16";"1";"2";"12";"2";"[17,18,19,20]";"2";"0";"1"
"1179";"34";"0";"1";"20";"1";"2";"12";"1";"[16,17,18,19]";"2";"0";"1"
"1180";"3";"0";"1";"3";"1";"2";"12";"2";"[1,2]";"1";"0";"1"
"1181";"8";"0";"1";"4";"1";"2";"12";"2";"[1,2,5,8,26,38]";"1";"0";"1"
"1182";"17";"0";"1";"7";"1";"2";"12";"1";"[6,8,9,33]";"1";"0";"1"
"1183";"19";"0";"1";"15";"1";"2";"12";"1";"[11,12,13,14,23,30]";"2";"0";"1"
"1184";"36";"0";"1";"30";"1";"2";"12";"2";"[15,26,27]";"1";"0";"1"
"1185";"26";"0";"1";"27";"1";"2";"12";"1";"[26,28,29,30]";"2";"0";"1"
"1186";"14";"0";"1";"38";"1";"2";"12";"2";"[4,36,39,40]";"1";"0";"1"
"1187";"33";"0";"1";"28";"1";"2";"12";"2";"[26,27,29]";"2";"0";"1"
"1188";"16";"0";"1";"35";"1";"2";"12";"2";"[31,32,33]";"1";"0";"1"
"1189";"38";"0";"1";"29";"1";"2";"12";"2";"[26,27,28]";"1";"0";"1"
"1190";"22";"0";"1";"34";"1";"2";"12";"2";"[31,32]";"1";"0";"1"
"1191";"37";"0";"1";"25";"1";"2";"12";"1";"[21,23,24]";"1";"0";"1"
"1192";"24";"0";"1";"33";"1";"2";"12";"2";"[7,31,32,35]";"1";"0";"1"
"1193";"10";"0";"1";"26";"1";"2";"12";"1";"[4,27,28,29,30]";"1";"0";"1"
"1194";"13";"0";"1";"31";"1";"2";"12";"2";"[32,33,34,35]";"1";"0";"1"
"1195";"9";"0";"1";"1";"1";"2";"12";"2";"[2,3,4,5,22]";"1";"0";"1"
"1196";"5";"0";"1";"9";"1";"2";"12";"2";"[6,7,8,10,19,36]";"1";"0";"1"
"1197";"15";"0";"1";"37";"1";"2";"12";"1";"[36,39,40]";"1";"0";"1"
"1198";"40";"0";"1";"6";"1";"2";"12";"1";"[7,8,9]";"1";"0";"1"
"1199";"21";"0";"1";"24";"1";"2";"12";"1";"[21,22,23,25]";"1";"0";"1"
"1200";"29";"0";"1";"36";"1";"2";"12";"1";"[9,37,38,40]";"1";"0";"1"
"1201";"11";"0";"1";"22";"1";"2";"12";"2";"[1,21,23,24]";"1";"0";"1"
"1202";"30";"2";"1";"23";"1";"2";"1";"2";"[15,21,22,24,25]";"2";"0";"1"
"1203";"20";"2";"1";"16";"1";"2";"1";"2";"[17,18,19,20]";"2";"0";"1"
"1204";"34";"3";"1";"20";"1";"2";"1";"1";"[16,17,18,19]";"1";"0";"1"
"1205";"1";"3";"1";"8";"1";"2";"1";"2";"[4,6,7,9]";"2";"0";"1"
"1206";"30";"3";"1";"23";"1";"2";"1";"2";"[15,21,22,24,25]";"2";"0";"1"
"1207";"35";"3";"1";"39";"1";"2";"1";"1";"[37,38,40]";"1";"0";"1"
"1208";"10";"3";"1";"26";"1";"2";"1";"1";"[4,27,28,29,30]";"1";"0";"1"
"1209";"28";"3";"1";"5";"1";"2";"1";"2";"[1,2,4,18]";"2";"0";"1"
"1210";"20";"3";"1";"16";"1";"2";"1";"2";"[17,18,19,20]";"2";"0";"1"
"1211";"26";"3";"1";"27";"1";"2";"1";"1";"[26,28,29,30]";"1";"0";"1"
"1212";"6";"3";"1";"13";"1";"2";"1";"2";"[11,12,14,15]";"2";"0";"1"
"1213";"14";"3";"1";"38";"1";"2";"1";"2";"[4,36,39,40]";"1";"0";"1"
"1214";"4";"4";"1";"18";"1";"2";"1";"2";"[5,16,17,19,20]";"2";"0";"1"
"1215";"25";"4";"1";"14";"1";"2";"1";"2";"[11,12,13,15]";"2";"0";"1"
"1216";"18";"4";"1";"32";"1";"2";"1";"2";"[17,31,33,34,35]";"2";"0";"1"
"1217";"34";"4";"1";"20";"1";"2";"1";"1";"[16,17,18,19]";"1";"0";"1"
"1218";"1";"4";"1";"8";"1";"2";"1";"2";"[4,6,7,9]";"2";"0";"1"
"1219";"35";"4";"1";"39";"1";"2";"1";"1";"[37,38,40]";"1";"0";"1"
"1220";"10";"4";"1";"26";"1";"2";"1";"1";"[4,27,28,29,30]";"1";"0";"1"
"1221";"38";"4";"1";"29";"1";"2";"1";"2";"[26,27,28]";"2";"0";"1"
"1222";"28";"4";"1";"5";"1";"2";"1";"2";"[1,2,4,18]";"2";"0";"1"
"1223";"26";"4";"1";"27";"1";"2";"1";"1";"[26,28,29,30]";"1";"0";"1"
"1224";"6";"4";"1";"13";"1";"2";"1";"2";"[11,12,14,15]";"2";"0";"1"
"1225";"14";"5";"1";"38";"1";"2";"1";"2";"[4,36,39,40]";"1";"0";"1"
"1226";"4";"5";"1";"18";"1";"2";"1";"2";"[5,16,17,19,20]";"2";"0";"1"
"1227";"2";"5";"1";"17";"1";"2";"1";"2";"[16,18,19,20,32]";"2";"0";"1"
"1228";"27";"5";"1";"21";"1";"2";"1";"2";"[22,23,24,25]";"2";"0";"1"
"1229";"40";"5";"1";"6";"1";"2";"1";"1";"[7,8,9]";"1";"0";"1"
"1230";"3";"5";"1";"3";"1";"2";"1";"2";"[1,2]";"2";"0";"1"
"1231";"25";"5";"1";"14";"1";"2";"1";"2";"[11,12,13,15]";"2";"0";"1"
"1232";"18";"5";"1";"32";"1";"2";"1";"2";"[17,31,33,34,35]";"2";"0";"1"
"1233";"23";"5";"1";"12";"1";"2";"1";"1";"[11,13,14,15]";"2";"0";"1"
"1234";"16";"5";"1";"35";"1";"2";"1";"2";"[31,32,33]";"2";"0";"1"
"1235";"38";"5";"1";"29";"1";"2";"1";"2";"[26,27,28]";"2";"0";"1"
"1236";"5";"6";"1";"9";"1";"2";"1";"2";"[6,7,8,10,19,36]";"2";"0";"1"
"1237";"2";"6";"1";"17";"1";"2";"1";"2";"[16,18,19,20,32]";"2";"0";"1"
"1238";"27";"6";"1";"21";"1";"2";"1";"2";"[22,23,24,25]";"2";"0";"1"
"1239";"40";"6";"1";"6";"1";"2";"1";"1";"[7,8,9]";"1";"0";"1"
"1240";"3";"6";"1";"3";"1";"2";"1";"2";"[1,2]";"2";"0";"1"
"1241";"23";"6";"1";"12";"1";"2";"1";"1";"[11,13,14,15]";"2";"0";"1"
"1242";"22";"6";"1";"34";"1";"2";"1";"2";"[31,32]";"2";"0";"1"
"1243";"16";"6";"1";"35";"1";"2";"1";"2";"[31,32,33]";"2";"0";"1"
"1244";"21";"6";"1";"24";"1";"2";"1";"1";"[21,22,23,25]";"1";"0";"1"
"1245";"39";"6";"1";"19";"1";"2";"1";"1";"[2,9,16,17,18,20]";"1";"0";"1"
"1246";"5";"7";"1";"9";"1";"2";"1";"2";"[6,7,8,10,19,36]";"2";"0";"1"
"1247";"33";"7";"1";"28";"1";"2";"1";"2";"[26,27,29]";"2";"0";"1"
"1248";"7";"7";"1";"40";"1";"2";"1";"2";"[36,37,38,39]";"1";"0";"1"
"1249";"22";"7";"1";"34";"1";"2";"1";"2";"[31,32]";"2";"0";"1"
"1250";"15";"7";"1";"37";"1";"2";"1";"1";"[36,39,40]";"1";"0";"1"
"1251";"21";"7";"1";"24";"1";"2";"1";"1";"[21,22,23,25]";"1";"0";"1"
"1252";"39";"7";"1";"19";"1";"2";"1";"1";"[2,9,16,17,18,20]";"1";"0";"1"
"1253";"24";"7";"1";"33";"1";"2";"1";"2";"[7,31,32,35]";"2";"0";"1"
"1254";"36";"8";"1";"30";"1";"2";"1";"2";"[15,26,27]";"2";"0";"1"
"1255";"33";"8";"1";"28";"1";"2";"1";"2";"[26,27,29]";"2";"0";"1"
"1256";"7";"8";"1";"40";"1";"2";"1";"2";"[36,37,38,39]";"1";"0";"1"
"1257";"9";"8";"1";"1";"1";"2";"1";"2";"[2,3,4,5,22]";"2";"0";"1"
"1258";"15";"8";"1";"37";"1";"2";"1";"1";"[36,39,40]";"1";"0";"1"
"1259";"24";"9";"1";"33";"1";"2";"1";"2";"[7,31,32,35]";"2";"0";"1"
"1260";"36";"9";"1";"30";"1";"2";"1";"2";"[15,26,27]";"2";"0";"1"
"1261";"17";"9";"1";"7";"1";"2";"1";"1";"[6,8,9,33]";"1";"0";"1"
"1262";"8";"9";"1";"4";"1";"2";"1";"2";"[1,2,5,8,26,38]";"2";"0";"1"
"1263";"9";"9";"1";"1";"1";"2";"1";"2";"[2,3,4,5,22]";"2";"0";"1"
"1264";"17";"10";"1";"7";"1";"2";"1";"1";"[6,8,9,33]";"1";"0";"1"
"1265";"12";"10";"1";"11";"1";"2";"1";"2";"[12,13,14,15]";"2";"0";"1"
"1266";"8";"10";"1";"4";"1";"2";"1";"2";"[1,2,5,8,26,38]";"2";"0";"1"
"1267";"37";"11";"1";"25";"1";"2";"1";"1";"[21,23,24]";"1";"0";"1"
"1268";"12";"11";"1";"11";"1";"2";"1";"2";"[12,13,14,15]";"2";"0";"1"
"1269";"11";"12";"1";"22";"1";"2";"1";"2";"[1,21,23,24]";"2";"0";"1"
"1270";"37";"12";"1";"25";"1";"2";"1";"1";"[21,23,24]";"1";"0";"1"
"1271";"32";"12";"1";"10";"1";"2";"1";"2";"[9]";"2";"0";"1"
"1272";"13";"13";"1";"31";"1";"2";"1";"2";"[32,33,34,35]";"2";"0";"1"
"1273";"11";"13";"1";"22";"1";"2";"1";"2";"[1,21,23,24]";"2";"0";"1"
"1274";"19";"13";"1";"15";"1";"2";"1";"1";"[11,12,13,14,23,30]";"1";"0";"1"
"1275";"32";"13";"1";"10";"1";"2";"1";"2";"[9]";"2";"0";"1"
"1276";"13";"14";"1";"31";"1";"2";"1";"2";"[32,33,34,35]";"2";"0";"1"
"1277";"19";"14";"1";"15";"1";"2";"1";"1";"[11,12,13,14,23,30]";"1";"0";"1"
"1278";"31";"16";"1";"2";"1";"2";"1";"2";"[1,3,4,5,19]";"2";"0";"1"
"1279";"31";"17";"1";"2";"1";"2";"1";"2";"[1,3,4,5,19]";"2";"0";"1"
"1280";"29";"25";"1";"36";"1";"2";"1";"1";"[9,37,38,40]";"1";"0";"1"
"1281";"29";"26";"1";"36";"1";"2";"1";"1";"[9,37,38,40]";"1";"0";"1"
"1282";"1";"1";"1";"8";"1";"2";"2";"2";"[4,6,7,9]";"2";"0";"1"
"1283";"30";"2";"1";"23";"1";"2";"2";"2";"[15,21,22,24,25]";"2";"0";"1"
"1284";"14";"2";"1";"38";"1";"2";"2";"2";"[4,36,39,40]";"2";"0";"1"
"1285";"16";"2";"1";"35";"1";"2";"2";"2";"[31,32,33]";"2";"0";"1"
"1286";"20";"2";"1";"16";"1";"2";"2";"2";"[17,18,19,20]";"2";"0";"1"
"1287";"1";"2";"1";"8";"1";"2";"2";"2";"[4,6,7,9]";"2";"0";"1"
"1288";"30";"3";"1";"23";"1";"2";"2";"2";"[15,21,22,24,25]";"2";"0";"1"
"1289";"27";"3";"1";"21";"1";"2";"2";"2";"[22,23,24,25]";"2";"0";"1"
"1290";"6";"3";"1";"13";"1";"2";"2";"2";"[11,12,14,15]";"2";"0";"1"
"1291";"14";"3";"1";"38";"1";"2";"2";"2";"[4,36,39,40]";"2";"0";"1"
"1292";"4";"3";"1";"18";"1";"2";"2";"2";"[5,16,17,19,20]";"2";"0";"1"
"1293";"16";"3";"1";"35";"1";"2";"2";"2";"[31,32,33]";"2";"0";"1"
"1294";"13";"3";"1";"31";"1";"2";"2";"2";"[32,33,34,35]";"2";"0";"1"
"1295";"20";"3";"1";"16";"1";"2";"2";"2";"[17,18,19,20]";"2";"0";"1"
"1296";"18";"4";"1";"32";"1";"2";"2";"2";"[17,31,33,34,35]";"2";"0";"1"
"1297";"27";"4";"1";"21";"1";"2";"2";"2";"[22,23,24,25]";"2";"0";"1"
"1298";"24";"4";"1";"33";"1";"2";"2";"2";"[7,31,32,35]";"2";"0";"1"
"1299";"6";"4";"1";"13";"1";"2";"2";"2";"[11,12,14,15]";"2";"0";"1"
"1300";"23";"4";"1";"12";"1";"2";"2";"1";"[11,13,14,15]";"1";"0";"1"
"1301";"4";"4";"1";"18";"1";"2";"2";"2";"[5,16,17,19,20]";"2";"0";"1"
"1302";"13";"4";"1";"31";"1";"2";"2";"2";"[32,33,34,35]";"2";"0";"1"
"1303";"7";"4";"1";"40";"1";"2";"2";"2";"[36,37,38,39]";"1";"0";"1"
"1304";"25";"4";"1";"14";"1";"2";"2";"2";"[11,12,13,15]";"2";"0";"1"
"1305";"18";"5";"1";"32";"1";"2";"2";"2";"[17,31,33,34,35]";"2";"0";"1"
"1306";"2";"5";"1";"17";"1";"2";"2";"2";"[16,18,19,20,32]";"2";"0";"1"
"1307";"24";"5";"1";"33";"1";"2";"2";"2";"[7,31,32,35]";"2";"0";"1"
"1308";"29";"5";"1";"36";"1";"2";"2";"1";"[9,37,38,40]";"1";"0";"1"
"1309";"23";"5";"1";"12";"1";"2";"2";"1";"[11,13,14,15]";"1";"0";"1"
"1310";"3";"5";"1";"3";"1";"2";"2";"2";"[1,2]";"2";"0";"1"
"1311";"10";"5";"1";"26";"1";"2";"2";"1";"[4,27,28,29,30]";"2";"0";"1"
"1312";"7";"5";"1";"40";"1";"2";"2";"2";"[36,37,38,39]";"1";"0";"1"
"1313";"25";"5";"1";"14";"1";"2";"2";"2";"[11,12,13,15]";"2";"0";"1"
"1314";"34";"5";"1";"20";"1";"2";"2";"1";"[16,17,18,19]";"2";"0";"1"
"1315";"2";"6";"1";"17";"1";"2";"2";"2";"[16,18,19,20,32]";"2";"0";"1"
"1316";"29";"6";"1";"36";"1";"2";"2";"1";"[9,37,38,40]";"1";"0";"1"
"1317";"3";"6";"1";"3";"1";"2";"2";"2";"[1,2]";"2";"0";"1"
"1318";"10";"6";"1";"26";"1";"2";"2";"1";"[4,27,28,29,30]";"2";"0";"1"
"1319";"34";"6";"1";"20";"1";"2";"2";"1";"[16,17,18,19]";"2";"0";"1"
"1320";"38";"7";"1";"29";"1";"2";"2";"2";"[26,27,28]";"1";"0";"1"
"1321";"22";"7";"1";"34";"1";"2";"2";"2";"[31,32]";"2";"0";"1"
"1322";"15";"7";"1";"37";"1";"2";"2";"1";"[36,39,40]";"2";"0";"1"
"1323";"35";"7";"1";"39";"1";"2";"2";"1";"[37,38,40]";"1";"0";"1"
"1324";"8";"7";"1";"4";"1";"2";"2";"2";"[1,2,5,8,26,38]";"2";"0";"1"
"1325";"9";"8";"1";"1";"1";"2";"2";"2";"[2,3,4,5,22]";"2";"0";"1"
"1326";"38";"8";"1";"29";"1";"2";"2";"2";"[26,27,28]";"1";"0";"1"
"1327";"22";"8";"1";"34";"1";"2";"2";"2";"[31,32]";"2";"0";"1"
"1328";"28";"8";"1";"5";"1";"2";"2";"2";"[1,2,4,18]";"2";"0";"1"
"1329";"31";"8";"1";"2";"1";"2";"2";"2";"[1,3,4,5,19]";"2";"0";"1"
"1330";"15";"8";"1";"37";"1";"2";"2";"1";"[36,39,40]";"2";"0";"1"
"1331";"35";"8";"1";"39";"1";"2";"2";"1";"[37,38,40]";"1";"0";"1"
"1332";"8";"8";"1";"4";"1";"2";"2";"2";"[1,2,5,8,26,38]";"2";"0";"1"
"1333";"9";"9";"1";"1";"1";"2";"2";"2";"[2,3,4,5,22]";"2";"0";"1"
"1334";"36";"9";"1";"30";"1";"2";"2";"2";"[15,26,27]";"1";"0";"1"
"1335";"28";"9";"1";"5";"1";"2";"2";"2";"[1,2,4,18]";"2";"0";"1"
"1336";"31";"9";"1";"2";"1";"2";"2";"2";"[1,3,4,5,19]";"2";"0";"1"
"1337";"32";"9";"1";"10";"1";"2";"2";"2";"[9]";"2";"0";"1"
"1338";"5";"10";"1";"9";"1";"2";"2";"2";"[6,7,8,10,19,36]";"1";"0";"1"
"1339";"36";"10";"1";"30";"1";"2";"2";"2";"[15,26,27]";"1";"0";"1"
"1340";"17";"10";"1";"7";"1";"2";"2";"1";"[6,8,9,33]";"1";"0";"1"
"1341";"32";"10";"1";"10";"1";"2";"2";"2";"[9]";"2";"0";"1"
"1342";"5";"11";"1";"9";"1";"2";"2";"2";"[6,7,8,10,19,36]";"1";"0";"1"
"1343";"17";"11";"1";"7";"1";"2";"2";"1";"[6,8,9,33]";"1";"0";"1"
"1344";"26";"12";"1";"27";"1";"2";"2";"1";"[26,28,29,30]";"1";"0";"1"
"1345";"12";"13";"1";"11";"1";"2";"2";"2";"[12,13,14,15]";"1";"0";"1"
"1346";"26";"13";"1";"27";"1";"2";"2";"1";"[26,28,29,30]";"1";"0";"1"
"1347";"37";"13";"1";"25";"1";"2";"2";"1";"[21,23,24]";"1";"0";"1"
"1348";"12";"14";"1";"11";"1";"2";"2";"2";"[12,13,14,15]";"1";"0";"1"
"1349";"37";"14";"1";"25";"1";"2";"2";"1";"[21,23,24]";"1";"0";"1"
"1350";"33";"14";"1";"28";"1";"2";"2";"2";"[26,27,29]";"2";"0";"1"
"1351";"33";"15";"1";"28";"1";"2";"2";"2";"[26,27,29]";"2";"0";"1"
"1352";"39";"15";"1";"19";"1";"2";"2";"1";"[2,9,16,17,18,20]";"2";"0";"1"
"1353";"40";"16";"1";"6";"1";"2";"2";"1";"[7,8,9]";"2";"0";"1"
"1354";"39";"16";"1";"19";"1";"2";"2";"1";"[2,9,16,17,18,20]";"2";"0";"1"
"1355";"19";"17";"1";"15";"1";"2";"2";"1";"[11,12,13,14,23,30]";"1";"0";"1"
"1356";"40";"17";"1";"6";"1";"2";"2";"1";"[7,8,9]";"2";"0";"1"
"1357";"19";"18";"1";"15";"1";"2";"2";"1";"[11,12,13,14,23,30]";"1";"0";"1"
"1358";"21";"20";"1";"24";"1";"2";"2";"1";"[21,22,23,25]";"1";"0";"1"
"1359";"21";"21";"1";"24";"1";"2";"2";"1";"[21,22,23,25]";"1";"0";"1"
"1360";"11";"21";"1";"22";"1";"2";"2";"2";"[1,21,23,24]";"2";"0";"1"
"1361";"11";"22";"1";"22";"1";"2";"2";"2";"[1,21,23,24]";"2";"0";"1"
"1362";"14";"2";"1";"38";"1";"2";"3";"2";"[4,36,39,40]";"2";"0";"1"
"1363";"25";"2";"1";"14";"1";"2";"3";"2";"[11,12,13,15]";"2";"0";"1"
"1364";"30";"2";"1";"23";"1";"2";"3";"2";"[15,21,22,24,25]";"2";"0";"1"
"1365";"8";"2";"1";"4";"1";"2";"3";"2";"[1,2,5,8,26,38]";"2";"0";"1"
"1366";"1";"2";"1";"8";"1";"2";"3";"2";"[4,6,7,9]";"2";"0";"1"
"1367";"27";"2";"1";"21";"1";"2";"3";"2";"[22,23,24,25]";"2";"0";"1"
"1368";"35";"2";"1";"39";"1";"2";"3";"1";"[37,38,40]";"1";"0";"1"
"1369";"14";"3";"1";"38";"1";"2";"3";"2";"[4,36,39,40]";"2";"0";"1"
"1370";"4";"3";"1";"18";"1";"2";"3";"2";"[5,16,17,19,20]";"2";"0";"1"
"1371";"7";"3";"1";"40";"1";"2";"3";"2";"[36,37,38,39]";"2";"0";"1"
"1372";"20";"3";"1";"16";"1";"2";"3";"2";"[17,18,19,20]";"2";"0";"1"
"1373";"25";"3";"1";"14";"1";"2";"3";"2";"[11,12,13,15]";"2";"0";"1"
"1374";"30";"3";"1";"23";"1";"2";"3";"2";"[15,21,22,24,25]";"2";"0";"1"
"1375";"8";"3";"1";"4";"1";"2";"3";"2";"[1,2,5,8,26,38]";"2";"0";"1"
"1376";"9";"3";"1";"1";"1";"2";"3";"2";"[2,3,4,5,22]";"2";"0";"1"
"1377";"1";"3";"1";"8";"1";"2";"3";"2";"[4,6,7,9]";"2";"0";"1"
"1378";"22";"3";"1";"34";"1";"2";"3";"2";"[31,32]";"2";"0";"1"
"1379";"16";"3";"1";"35";"1";"2";"3";"2";"[31,32,33]";"2";"0";"1"
"1380";"27";"3";"1";"21";"1";"2";"3";"2";"[22,23,24,25]";"2";"0";"1"
"1381";"35";"3";"1";"39";"1";"2";"3";"1";"[37,38,40]";"1";"0";"1"
"1382";"10";"3";"1";"26";"1";"2";"3";"1";"[4,27,28,29,30]";"1";"0";"1"
"1383";"6";"4";"1";"13";"1";"2";"3";"2";"[11,12,14,15]";"1";"0";"1"
"1384";"4";"4";"1";"18";"1";"2";"3";"2";"[5,16,17,19,20]";"2";"0";"1"
"1385";"3";"4";"1";"3";"1";"2";"3";"2";"[1,2]";"2";"0";"1"
"1386";"7";"4";"1";"40";"1";"2";"3";"2";"[36,37,38,39]";"2";"0";"1"
"1387";"18";"4";"1";"32";"1";"2";"3";"2";"[17,31,33,34,35]";"2";"0";"1"
"1388";"20";"4";"1";"16";"1";"2";"3";"2";"[17,18,19,20]";"2";"0";"1"
"1389";"2";"4";"1";"17";"1";"2";"3";"2";"[16,18,19,20,32]";"1";"0";"1"
"1390";"15";"4";"1";"37";"1";"2";"3";"1";"[36,39,40]";"1";"0";"1"
"1391";"9";"4";"1";"1";"1";"2";"3";"2";"[2,3,4,5,22]";"2";"0";"1"
"1392";"24";"4";"1";"33";"1";"2";"3";"2";"[7,31,32,35]";"2";"0";"1"
"1393";"22";"4";"1";"34";"1";"2";"3";"2";"[31,32]";"2";"0";"1"
"1394";"16";"4";"1";"35";"1";"2";"3";"2";"[31,32,33]";"2";"0";"1"
"1395";"10";"4";"1";"26";"1";"2";"3";"1";"[4,27,28,29,30]";"1";"0";"1"
"1396";"6";"5";"1";"13";"1";"2";"3";"2";"[11,12,14,15]";"1";"0";"1"
"1397";"13";"5";"1";"31";"1";"2";"3";"2";"[32,33,34,35]";"2";"0";"1"
"1398";"26";"5";"1";"27";"1";"2";"3";"1";"[26,28,29,30]";"1";"0";"1"
"1399";"3";"5";"1";"3";"1";"2";"3";"2";"[1,2]";"2";"0";"1"
"1400";"18";"5";"1";"32";"1";"2";"3";"2";"[17,31,33,34,35]";"2";"0";"1"
"1401";"2";"5";"1";"17";"1";"2";"3";"2";"[16,18,19,20,32]";"1";"0";"1"
"1402";"15";"5";"1";"37";"1";"2";"3";"1";"[36,39,40]";"1";"0";"1"
"1403";"28";"5";"1";"5";"1";"2";"3";"2";"[1,2,4,18]";"2";"0";"1"
"1404";"24";"5";"1";"33";"1";"2";"3";"2";"[7,31,32,35]";"2";"0";"1"
"1405";"33";"5";"1";"28";"1";"2";"3";"2";"[26,27,29]";"2";"0";"1"
"1406";"13";"6";"1";"31";"1";"2";"3";"2";"[32,33,34,35]";"2";"0";"1"
"1407";"26";"6";"1";"27";"1";"2";"3";"1";"[26,28,29,30]";"1";"0";"1"
"1408";"28";"6";"1";"5";"1";"2";"3";"2";"[1,2,4,18]";"2";"0";"1"
"1409";"33";"6";"1";"28";"1";"2";"3";"2";"[26,27,29]";"2";"0";"1"
"1410";"36";"7";"1";"30";"1";"2";"3";"2";"[15,26,27]";"1";"0";"1"
"1411";"29";"8";"1";"36";"1";"2";"3";"1";"[9,37,38,40]";"1";"0";"1"
"1412";"36";"8";"1";"30";"1";"2";"3";"2";"[15,26,27]";"1";"0";"1"
"1413";"31";"8";"1";"2";"1";"2";"3";"2";"[1,3,4,5,19]";"2";"0";"1"
"1414";"38";"8";"1";"29";"1";"2";"3";"2";"[26,27,28]";"0";"1";"1"
"1415";"32";"8";"1";"10";"1";"2";"3";"2";"[9]";"2";"0";"1"
"1416";"11";"8";"1";"22";"1";"2";"3";"2";"[1,21,23,24]";"2";"0";"1"
"1417";"19";"9";"1";"15";"1";"2";"3";"1";"[11,12,13,14,23,30]";"2";"0";"1"
"1418";"29";"9";"1";"36";"1";"2";"3";"1";"[9,37,38,40]";"1";"0";"1"
"1419";"31";"9";"1";"2";"1";"2";"3";"2";"[1,3,4,5,19]";"2";"0";"1"
"1420";"5";"9";"1";"9";"1";"2";"3";"2";"[6,7,8,10,19,36]";"2";"0";"1"
"1421";"32";"9";"1";"10";"1";"2";"3";"2";"[9]";"2";"0";"1"
"1422";"34";"9";"1";"20";"1";"2";"3";"1";"[16,17,18,19]";"2";"0";"1"
"1423";"11";"9";"1";"22";"1";"2";"3";"2";"[1,21,23,24]";"2";"0";"1"
"1424";"19";"10";"1";"15";"1";"2";"3";"1";"[11,12,13,14,23,30]";"2";"0";"1"
"1425";"17";"10";"1";"7";"1";"2";"3";"1";"[6,8,9,33]";"1";"0";"1"
"1426";"5";"10";"1";"9";"1";"2";"3";"2";"[6,7,8,10,19,36]";"2";"0";"1"
"1427";"37";"10";"1";"25";"1";"2";"3";"1";"[21,23,24]";"2";"0";"1"
"1428";"34";"10";"1";"20";"1";"2";"3";"1";"[16,17,18,19]";"2";"0";"1"
"1429";"38";"10";"1";"29";"1";"2";"3";"2";"[26,27,28]";"0";"2";"1"
"1430";"23";"11";"1";"12";"1";"2";"3";"1";"[11,13,14,15]";"1";"0";"1"
"1431";"17";"11";"1";"7";"1";"2";"3";"1";"[6,8,9,33]";"1";"0";"1"
"1432";"39";"11";"1";"19";"1";"2";"3";"1";"[2,9,16,17,18,20]";"2";"0";"1"
"1433";"37";"11";"1";"25";"1";"2";"3";"1";"[21,23,24]";"2";"0";"1"
"1434";"23";"12";"1";"12";"1";"2";"3";"1";"[11,13,14,15]";"1";"0";"1"
"1435";"39";"12";"1";"19";"1";"2";"3";"1";"[2,9,16,17,18,20]";"2";"0";"1"
"1436";"40";"12";"1";"6";"1";"2";"3";"1";"[7,8,9]";"1";"0";"1"
"1437";"12";"12";"1";"11";"1";"2";"3";"2";"[12,13,14,15]";"2";"0";"1"
"1438";"40";"13";"1";"6";"1";"2";"3";"1";"[7,8,9]";"1";"0";"1"
"1439";"38";"13";"1";"29";"1";"2";"3";"2";"[26,27,28]";"0";"1";"1"
"1440";"12";"13";"1";"11";"1";"2";"3";"2";"[12,13,14,15]";"2";"0";"1"
"1441";"38";"14";"1";"29";"1";"2";"3";"2";"[26,27,28]";"0";"3";"1"
"1442";"38";"16";"1";"29";"1";"2";"3";"2";"[26,27,28]";"0";"3";"1"
"1443";"38";"20";"1";"29";"1";"2";"3";"2";"[26,27,28]";"2";"3";"1"
"1444";"21";"20";"1";"24";"1";"2";"3";"1";"[21,22,23,25]";"2";"0";"1"
"1445";"38";"21";"1";"29";"1";"2";"3";"2";"[26,27,28]";"2";"3";"1"
"1446";"21";"21";"1";"24";"1";"2";"3";"1";"[21,22,23,25]";"2";"0";"1"
"1447";"30";"1";"1";"23";"1";"2";"4";"2";"[15,21,22,24,25]";"2";"0";"1"
"1448";"14";"2";"1";"38";"1";"2";"4";"2";"[4,36,39,40]";"2";"0";"1"
"1449";"8";"2";"1";"4";"1";"2";"4";"2";"[1,2,5,8,26,38]";"2";"0";"1"
"1450";"35";"2";"1";"39";"1";"2";"4";"1";"[37,38,40]";"1";"0";"1"
"1451";"16";"2";"1";"35";"1";"2";"4";"2";"[31,32,33]";"2";"0";"1"
"1452";"1";"2";"1";"8";"1";"2";"4";"2";"[4,6,7,9]";"2";"0";"1"
"1453";"6";"2";"1";"13";"1";"2";"4";"2";"[11,12,14,15]";"1";"0";"1"
"1454";"30";"2";"1";"23";"1";"2";"4";"2";"[15,21,22,24,25]";"2";"0";"1"
"1455";"3";"2";"1";"3";"1";"2";"4";"2";"[1,2]";"2";"0";"1"
"1456";"22";"3";"1";"34";"1";"2";"4";"2";"[31,32]";"2";"0";"1"
"1457";"14";"3";"1";"38";"1";"2";"4";"2";"[4,36,39,40]";"2";"0";"1"
"1458";"25";"3";"1";"14";"1";"2";"4";"2";"[11,12,13,15]";"2";"0";"1"
