"id";"id_subj";"time";"session";"id_grp";"grp";"round";"period";"sig";"links";"choice";"hist";"active"
"1";"3";"0";"1";"22";"1";"1";"1";"2";"[1,21,23,24]";"0";"0";"1"
"2";"15";"0";"1";"10";"1";"1";"1";"1";"[9]";"0";"0";"1"
"3";"13";"0";"1";"3";"1";"1";"1";"2";"[1,2]";"0";"0";"1"
"4";"22";"0";"1";"8";"1";"1";"1";"2";"[4,6,7,9]";"0";"0";"1"
"5";"18";"0";"1";"1";"1";"1";"1";"1";"[2,3,4,5,22]";"0";"0";"1"
"6";"29";"0";"1";"17";"1";"1";"1";"1";"[16,18,19,20,32]";"0";"0";"1"
"7";"23";"0";"1";"34";"1";"1";"1";"1";"[31,32]";"0";"0";"1"
"8";"34";"0";"1";"23";"1";"1";"1";"1";"[15,21,22,24,25]";"0";"0";"1"
"9";"40";"0";"1";"15";"1";"1";"1";"2";"[11,12,13,14,23,30]";"0";"0";"1"
"10";"20";"0";"1";"27";"1";"1";"1";"1";"[26,28,29,30]";"0";"0";"1"
"11";"1";"0";"1";"37";"1";"1";"1";"1";"[36,39,40]";"0";"0";"1"
"12";"16";"0";"1";"16";"1";"1";"1";"1";"[17,18,19,20]";"0";"0";"1"
"13";"38";"0";"1";"2";"1";"1";"1";"1";"[1,3,4,5,19]";"0";"0";"1"
"14";"19";"0";"1";"21";"1";"1";"1";"1";"[22,23,24,25]";"0";"0";"1"
"15";"17";"0";"1";"12";"1";"1";"1";"1";"[11,13,14,15]";"0";"0";"1"
"16";"5";"0";"1";"39";"1";"1";"1";"2";"[37,38,40]";"0";"0";"1"
"17";"33";"0";"1";"38";"1";"1";"1";"1";"[4,36,39,40]";"0";"0";"1"
"18";"4";"0";"1";"11";"1";"1";"1";"1";"[12,13,14,15]";"0";"0";"1"
"19";"39";"0";"1";"4";"1";"1";"1";"2";"[1,2,5,8,26,38]";"0";"0";"1"
"20";"12";"0";"1";"30";"1";"1";"1";"2";"[15,26,27]";"0";"0";"1"
"21";"6";"0";"1";"33";"1";"1";"1";"1";"[7,31,32,35]";"0";"0";"1"
"22";"2";"0";"1";"20";"1";"1";"1";"2";"[16,17,18,19]";"0";"0";"1"
"23";"7";"0";"1";"28";"1";"1";"1";"1";"[26,27,29]";"0";"0";"1"
"24";"32";"0";"1";"32";"1";"1";"1";"1";"[17,31,33,34,35]";"0";"0";"1"
"25";"8";"0";"1";"19";"1";"1";"1";"2";"[2,9,16,17,18,20]";"0";"0";"1"
"26";"24";"0";"1";"25";"1";"1";"1";"1";"[21,23,24]";"0";"0";"1"
"27";"21";"0";"1";"5";"1";"1";"1";"1";"[1,2,4,18]";"0";"0";"1"
"28";"10";"0";"1";"18";"1";"1";"1";"1";"[5,16,17,19,20]";"0";"0";"1"
"29";"27";"0";"1";"9";"1";"1";"1";"1";"[6,7,8,10,19,36]";"0";"0";"1"
"30";"11";"0";"1";"31";"1";"1";"1";"2";"[32,33,34,35]";"0";"0";"1"
"31";"37";"0";"1";"26";"1";"1";"1";"1";"[4,27,28,29,30]";"0";"0";"1"
"32";"36";"0";"1";"36";"1";"1";"1";"1";"[9,37,38,40]";"0";"0";"1"
"33";"31";"0";"1";"29";"1";"1";"1";"1";"[26,27,28]";"0";"0";"1"
"34";"25";"0";"1";"24";"1";"1";"1";"1";"[21,22,23,25]";"0";"0";"1"
"35";"14";"0";"1";"40";"1";"1";"1";"2";"[36,37,38,39]";"0";"0";"1"
"36";"35";"0";"1";"13";"1";"1";"1";"2";"[11,12,14,15]";"0";"0";"1"
"37";"28";"0";"1";"14";"1";"1";"1";"1";"[11,12,13,15]";"0";"0";"1"
"38";"9";"0";"1";"7";"1";"1";"1";"1";"[6,8,9,33]";"0";"0";"1"
"39";"26";"0";"1";"35";"1";"1";"1";"1";"[31,32,33]";"0";"0";"1"
"40";"30";"0";"1";"6";"1";"1";"1";"1";"[7,8,9]";"0";"0";"1"
"41";"23";"2";"1";"34";"1";"1";"1";"1";"[31,32]";"1";"0";"1"
"42";"23";"3";"1";"34";"1";"1";"1";"1";"[31,32]";"1";"0";"1"
"43";"13";"3";"1";"3";"1";"1";"1";"2";"[1,2]";"2";"0";"1"
"44";"17";"4";"1";"12";"1";"1";"1";"1";"[11,13,14,15]";"1";"0";"1"
"45";"13";"4";"1";"3";"1";"1";"1";"2";"[1,2]";"2";"0";"1"
"46";"17";"5";"1";"12";"1";"1";"1";"1";"[11,13,14,15]";"1";"0";"1"
"47";"19";"6";"1";"21";"1";"1";"1";"1";"[22,23,24,25]";"1";"0";"1"
"48";"2";"6";"1";"20";"1";"1";"1";"2";"[16,17,18,19]";"2";"0";"1"
"49";"40";"6";"1";"15";"1";"1";"1";"2";"[11,12,13,14,23,30]";"2";"0";"1"
"50";"28";"7";"1";"14";"1";"1";"1";"1";"[11,12,13,15]";"1";"0";"1"
"51";"18";"7";"1";"1";"1";"1";"1";"1";"[2,3,4,5,22]";"1";"0";"1"
"52";"38";"7";"1";"2";"1";"1";"1";"1";"[1,3,4,5,19]";"1";"0";"1"
"53";"19";"7";"1";"21";"1";"1";"1";"1";"[22,23,24,25]";"1";"0";"1"
"54";"2";"7";"1";"20";"1";"1";"1";"2";"[16,17,18,19]";"2";"0";"1"
"55";"34";"7";"1";"23";"1";"1";"1";"1";"[15,21,22,24,25]";"1";"0";"1"
"56";"40";"7";"1";"15";"1";"1";"1";"2";"[11,12,13,14,23,30]";"2";"0";"1"
"57";"3";"7";"1";"22";"1";"1";"1";"2";"[1,21,23,24]";"2";"0";"1"
"58";"28";"8";"1";"14";"1";"1";"1";"1";"[11,12,13,15]";"1";"0";"1"
"59";"22";"8";"1";"8";"1";"1";"1";"2";"[4,6,7,9]";"1";"0";"1"
"60";"18";"8";"1";"1";"1";"1";"1";"1";"[2,3,4,5,22]";"1";"0";"1"
"61";"29";"8";"1";"17";"1";"1";"1";"1";"[16,18,19,20,32]";"2";"0";"1"
"62";"35";"8";"1";"13";"1";"1";"1";"2";"[11,12,14,15]";"1";"0";"1"
"63";"38";"8";"1";"2";"1";"1";"1";"1";"[1,3,4,5,19]";"1";"0";"1"
"64";"37";"8";"1";"26";"1";"1";"1";"1";"[4,27,28,29,30]";"1";"0";"1"
"65";"11";"8";"1";"31";"1";"1";"1";"2";"[32,33,34,35]";"2";"0";"1"
"66";"1";"8";"1";"37";"1";"1";"1";"1";"[36,39,40]";"1";"0";"1"
"67";"34";"8";"1";"23";"1";"1";"1";"1";"[15,21,22,24,25]";"1";"0";"1"
"68";"6";"8";"1";"33";"1";"1";"1";"1";"[7,31,32,35]";"1";"0";"1"
"69";"3";"8";"1";"22";"1";"1";"1";"2";"[1,21,23,24]";"2";"0";"1"
"70";"7";"9";"1";"28";"1";"1";"1";"1";"[26,27,29]";"1";"0";"1"
"71";"22";"9";"1";"8";"1";"1";"1";"2";"[4,6,7,9]";"1";"0";"1"
"72";"15";"9";"1";"10";"1";"1";"1";"1";"[9]";"1";"0";"1"
"73";"29";"9";"1";"17";"1";"1";"1";"1";"[16,18,19,20,32]";"2";"0";"1"
"74";"35";"9";"1";"13";"1";"1";"1";"2";"[11,12,14,15]";"1";"0";"1"
"75";"10";"9";"1";"18";"1";"1";"1";"1";"[5,16,17,19,20]";"1";"0";"1"
"76";"21";"9";"1";"5";"1";"1";"1";"1";"[1,2,4,18]";"1";"0";"1"
"77";"37";"9";"1";"26";"1";"1";"1";"1";"[4,27,28,29,30]";"1";"0";"1"
"78";"11";"9";"1";"31";"1";"1";"1";"2";"[32,33,34,35]";"2";"0";"1"
"79";"1";"9";"1";"37";"1";"1";"1";"1";"[36,39,40]";"1";"0";"1"
"80";"6";"9";"1";"33";"1";"1";"1";"1";"[7,31,32,35]";"1";"0";"1"
"81";"7";"10";"1";"28";"1";"1";"1";"1";"[26,27,29]";"1";"0";"1"
"82";"30";"10";"1";"6";"1";"1";"1";"1";"[7,8,9]";"2";"0";"1"
"83";"15";"10";"1";"10";"1";"1";"1";"1";"[9]";"1";"0";"1"
"84";"10";"10";"1";"18";"1";"1";"1";"1";"[5,16,17,19,20]";"1";"0";"1"
"85";"21";"10";"1";"5";"1";"1";"1";"1";"[1,2,4,18]";"1";"0";"1"
"86";"27";"10";"1";"9";"1";"1";"1";"1";"[6,7,8,10,19,36]";"1";"0";"1"
"87";"9";"10";"1";"7";"1";"1";"1";"1";"[6,8,9,33]";"1";"0";"1"
"88";"30";"11";"1";"6";"1";"1";"1";"1";"[7,8,9]";"2";"0";"1"
"89";"5";"11";"1";"39";"1";"1";"1";"2";"[37,38,40]";"2";"0";"1"
"90";"39";"11";"1";"4";"1";"1";"1";"2";"[1,2,5,8,26,38]";"2";"0";"1"
"91";"27";"11";"1";"9";"1";"1";"1";"1";"[6,7,8,10,19,36]";"1";"0";"1"
"92";"12";"11";"1";"30";"1";"1";"1";"2";"[15,26,27]";"2";"0";"1"
"93";"20";"11";"1";"27";"1";"1";"1";"1";"[26,28,29,30]";"1";"0";"1"
"94";"9";"11";"1";"7";"1";"1";"1";"1";"[6,8,9,33]";"1";"0";"1"
"95";"5";"12";"1";"39";"1";"1";"1";"2";"[37,38,40]";"2";"0";"1"
"96";"39";"12";"1";"4";"1";"1";"1";"2";"[1,2,5,8,26,38]";"2";"0";"1"
"97";"36";"12";"1";"36";"1";"1";"1";"1";"[9,37,38,40]";"2";"0";"1"
"98";"12";"12";"1";"30";"1";"1";"1";"2";"[15,26,27]";"2";"0";"1"
"99";"20";"12";"1";"27";"1";"1";"1";"1";"[26,28,29,30]";"1";"0";"1"
"100";"31";"13";"1";"29";"1";"1";"1";"1";"[26,27,28]";"1";"0";"1"
"101";"33";"13";"1";"38";"1";"1";"1";"1";"[4,36,39,40]";"1";"0";"1"
"102";"32";"13";"1";"32";"1";"1";"1";"1";"[17,31,33,34,35]";"1";"0";"1"
"103";"36";"13";"1";"36";"1";"1";"1";"1";"[9,37,38,40]";"2";"0";"1"
"104";"26";"13";"1";"35";"1";"1";"1";"1";"[31,32,33]";"1";"0";"1"
"105";"24";"14";"1";"25";"1";"1";"1";"1";"[21,23,24]";"1";"0";"1"
"106";"31";"14";"1";"29";"1";"1";"1";"1";"[26,27,28]";"1";"0";"1"
"107";"33";"14";"1";"38";"1";"1";"1";"1";"[4,36,39,40]";"1";"0";"1"
"108";"32";"14";"1";"32";"1";"1";"1";"1";"[17,31,33,34,35]";"1";"0";"1"
"109";"26";"14";"1";"35";"1";"1";"1";"1";"[31,32,33]";"1";"0";"1"
"110";"24";"15";"1";"25";"1";"1";"1";"1";"[21,23,24]";"1";"0";"1"
"111";"4";"17";"1";"11";"1";"1";"1";"1";"[12,13,14,15]";"1";"0";"1"
"112";"16";"18";"1";"16";"1";"1";"1";"1";"[17,18,19,20]";"1";"0";"1"
"113";"4";"18";"1";"11";"1";"1";"1";"1";"[12,13,14,15]";"1";"0";"1"
"114";"16";"19";"1";"16";"1";"1";"1";"1";"[17,18,19,20]";"1";"0";"1"
"115";"14";"19";"1";"40";"1";"1";"1";"2";"[36,37,38,39]";"2";"0";"1"
"116";"14";"20";"1";"40";"1";"1";"1";"2";"[36,37,38,39]";"2";"0";"1"
"117";"8";"20";"1";"19";"1";"1";"1";"2";"[2,9,16,17,18,20]";"2";"0";"1"
"118";"8";"21";"1";"19";"1";"1";"1";"2";"[2,9,16,17,18,20]";"2";"0";"1"
"119";"25";"22";"1";"24";"1";"1";"1";"1";"[21,22,23,25]";"2";"0";"1"
"120";"25";"23";"1";"24";"1";"1";"1";"1";"[21,22,23,25]";"2";"0";"1"
"121";"6";"2";"1";"33";"1";"1";"2";"1";"[7,31,32,35]";"1";"0";"1"
"122";"23";"2";"1";"34";"1";"1";"2";"1";"[31,32]";"1";"0";"1"
"123";"6";"3";"1";"33";"1";"1";"2";"1";"[7,31,32,35]";"1";"0";"1"
"124";"23";"3";"1";"34";"1";"1";"2";"1";"[31,32]";"1";"0";"1"
"125";"22";"4";"1";"8";"1";"1";"2";"2";"[4,6,7,9]";"1";"0";"1"
"126";"20";"4";"1";"27";"1";"1";"2";"1";"[26,28,29,30]";"1";"0";"1"
"127";"8";"4";"1";"19";"1";"1";"2";"2";"[2,9,16,17,18,20]";"1";"0";"1"
"128";"7";"4";"1";"28";"1";"1";"2";"1";"[26,27,29]";"1";"0";"1"
"129";"30";"4";"1";"6";"1";"1";"2";"1";"[7,8,9]";"1";"0";"1"
"130";"3";"4";"1";"22";"1";"1";"2";"2";"[1,21,23,24]";"1";"0";"1"
"131";"22";"5";"1";"8";"1";"1";"2";"2";"[4,6,7,9]";"1";"0";"1"
"132";"20";"5";"1";"27";"1";"1";"2";"1";"[26,28,29,30]";"1";"0";"1"
"133";"8";"5";"1";"19";"1";"1";"2";"2";"[2,9,16,17,18,20]";"1";"0";"1"
"134";"7";"5";"1";"28";"1";"1";"2";"1";"[26,27,29]";"1";"0";"1"
"135";"17";"5";"1";"12";"1";"1";"2";"1";"[11,13,14,15]";"1";"0";"1"
"136";"30";"5";"1";"6";"1";"1";"2";"1";"[7,8,9]";"1";"0";"1"
"137";"11";"5";"1";"31";"1";"1";"2";"2";"[32,33,34,35]";"1";"0";"1"
"138";"3";"5";"1";"22";"1";"1";"2";"2";"[1,21,23,24]";"1";"0";"1"
"139";"16";"6";"1";"16";"1";"1";"2";"1";"[17,18,19,20]";"1";"0";"1"
"140";"32";"6";"1";"32";"1";"1";"2";"1";"[17,31,33,34,35]";"1";"0";"1"
"141";"29";"6";"1";"17";"1";"1";"2";"1";"[16,18,19,20,32]";"2";"0";"1"
"142";"25";"6";"1";"24";"1";"1";"2";"1";"[21,22,23,25]";"2";"0";"1"
"143";"17";"6";"1";"12";"1";"1";"2";"1";"[11,13,14,15]";"1";"0";"1"
"144";"11";"6";"1";"31";"1";"1";"2";"2";"[32,33,34,35]";"1";"0";"1"
"145";"16";"7";"1";"16";"1";"1";"2";"1";"[17,18,19,20]";"1";"0";"1"
"146";"12";"7";"1";"30";"1";"1";"2";"2";"[15,26,27]";"2";"0";"1"
"147";"21";"7";"1";"5";"1";"1";"2";"1";"[1,2,4,18]";"1";"0";"1"
"148";"32";"7";"1";"32";"1";"1";"2";"1";"[17,31,33,34,35]";"1";"0";"1"
"149";"29";"7";"1";"17";"1";"1";"2";"1";"[16,18,19,20,32]";"2";"0";"1"
"150";"25";"7";"1";"24";"1";"1";"2";"1";"[21,22,23,25]";"2";"0";"1"
"151";"37";"8";"1";"26";"1";"1";"2";"1";"[4,27,28,29,30]";"1";"0";"1"
"152";"12";"8";"1";"30";"1";"1";"2";"2";"[15,26,27]";"2";"0";"1"
"153";"21";"8";"1";"5";"1";"1";"2";"1";"[1,2,4,18]";"1";"0";"1"
"154";"33";"8";"1";"38";"1";"1";"2";"1";"[4,36,39,40]";"2";"0";"1"
"155";"10";"8";"1";"18";"1";"1";"2";"1";"[5,16,17,19,20]";"1";"0";"1"
"156";"15";"8";"1";"10";"1";"1";"2";"1";"[9]";"1";"0";"1"
"157";"4";"9";"1";"11";"1";"1";"2";"1";"[12,13,14,15]";"1";"0";"1"
"158";"31";"9";"1";"29";"1";"1";"2";"1";"[26,27,28]";"1";"0";"1"
"159";"37";"9";"1";"26";"1";"1";"2";"1";"[4,27,28,29,30]";"1";"0";"1"
"160";"9";"9";"1";"7";"1";"1";"2";"1";"[6,8,9,33]";"1";"0";"1"
"161";"33";"9";"1";"38";"1";"1";"2";"1";"[4,36,39,40]";"2";"0";"1"
"162";"19";"9";"1";"21";"1";"1";"2";"1";"[22,23,24,25]";"1";"0";"1"
"163";"10";"9";"1";"18";"1";"1";"2";"1";"[5,16,17,19,20]";"1";"0";"1"
"164";"15";"9";"1";"10";"1";"1";"2";"1";"[9]";"1";"0";"1"
"165";"39";"10";"1";"4";"1";"1";"2";"2";"[1,2,5,8,26,38]";"2";"0";"1"
"166";"4";"10";"1";"11";"1";"1";"2";"1";"[12,13,14,15]";"1";"0";"1"
"167";"31";"10";"1";"29";"1";"1";"2";"1";"[26,27,28]";"1";"0";"1"
"168";"9";"10";"1";"7";"1";"1";"2";"1";"[6,8,9,33]";"1";"0";"1"
"169";"36";"10";"1";"36";"1";"1";"2";"1";"[9,37,38,40]";"1";"0";"1"
"170";"18";"10";"1";"1";"1";"1";"2";"1";"[2,3,4,5,22]";"2";"0";"1"
"171";"19";"10";"1";"21";"1";"1";"2";"1";"[22,23,24,25]";"1";"0";"1"
"172";"13";"10";"1";"3";"1";"1";"2";"2";"[1,2]";"2";"0";"1"
"173";"35";"10";"1";"13";"1";"1";"2";"2";"[11,12,14,15]";"1";"0";"1"
"174";"26";"10";"1";"35";"1";"1";"2";"1";"[31,32,33]";"1";"0";"1"
"175";"39";"11";"1";"4";"1";"1";"2";"2";"[1,2,5,8,26,38]";"2";"0";"1"
"176";"34";"11";"1";"23";"1";"1";"2";"1";"[15,21,22,24,25]";"1";"0";"1"
"177";"36";"11";"1";"36";"1";"1";"2";"1";"[9,37,38,40]";"1";"0";"1"
"178";"2";"11";"1";"20";"1";"1";"2";"2";"[16,17,18,19]";"2";"0";"1"
"179";"18";"11";"1";"1";"1";"1";"2";"1";"[2,3,4,5,22]";"2";"0";"1"
"180";"13";"11";"1";"3";"1";"1";"2";"2";"[1,2]";"2";"0";"1"
"181";"35";"11";"1";"13";"1";"1";"2";"2";"[11,12,14,15]";"1";"0";"1"
"182";"26";"11";"1";"35";"1";"1";"2";"1";"[31,32,33]";"1";"0";"1"
"183";"40";"12";"1";"15";"1";"1";"2";"2";"[11,12,13,14,23,30]";"2";"0";"1"
"184";"34";"12";"1";"23";"1";"1";"2";"1";"[15,21,22,24,25]";"1";"0";"1"
"185";"2";"12";"1";"20";"1";"1";"2";"2";"[16,17,18,19]";"2";"0";"1"
"186";"38";"12";"1";"2";"1";"1";"2";"1";"[1,3,4,5,19]";"1";"0";"1"
"187";"28";"13";"1";"14";"1";"1";"2";"1";"[11,12,13,15]";"1";"0";"1"
"188";"40";"13";"1";"15";"1";"1";"2";"2";"[11,12,13,14,23,30]";"2";"0";"1"
"189";"38";"13";"1";"2";"1";"1";"2";"1";"[1,3,4,5,19]";"1";"0";"1"
"190";"28";"14";"1";"14";"1";"1";"2";"1";"[11,12,13,15]";"1";"0";"1"
"191";"37";"14";"1";"26";"1";"1";"2";"1";"[4,27,28,29,30]";"1";"2";"1"
"192";"5";"15";"1";"39";"1";"1";"2";"2";"[37,38,40]";"2";"0";"1"
"193";"24";"15";"1";"25";"1";"1";"2";"1";"[21,23,24]";"1";"0";"1"
"194";"5";"16";"1";"39";"1";"1";"2";"2";"[37,38,40]";"2";"0";"1"
"195";"24";"16";"1";"25";"1";"1";"2";"1";"[21,23,24]";"1";"0";"1"
"196";"1";"24";"1";"37";"1";"1";"2";"1";"[36,39,40]";"1";"0";"1"
"197";"1";"25";"1";"37";"1";"1";"2";"1";"[36,39,40]";"1";"0";"1"
"198";"27";"27";"1";"9";"1";"1";"2";"1";"[6,7,8,10,19,36]";"1";"0";"1"
"199";"27";"28";"1";"9";"1";"1";"2";"1";"[6,7,8,10,19,36]";"1";"0";"1"
"200";"14";"29";"1";"40";"1";"1";"2";"2";"[36,37,38,39]";"2";"0";"1"
"201";"14";"30";"1";"40";"1";"1";"2";"2";"[36,37,38,39]";"2";"0";"1"
"202";"29";"1";"1";"17";"1";"1";"3";"1";"[16,18,19,20,32]";"1";"0";"1"
"203";"7";"2";"1";"28";"1";"1";"3";"1";"[26,27,29]";"1";"0";"1"
"204";"23";"2";"1";"34";"1";"1";"3";"1";"[31,32]";"1";"0";"1"
"205";"15";"2";"1";"10";"1";"1";"3";"1";"[9]";"1";"0";"1"
"206";"29";"2";"1";"17";"1";"1";"3";"1";"[16,18,19,20,32]";"1";"0";"1"
"207";"6";"3";"1";"33";"1";"1";"3";"1";"[7,31,32,35]";"1";"0";"1"
"208";"7";"3";"1";"28";"1";"1";"3";"1";"[26,27,29]";"1";"0";"1"
"209";"23";"3";"1";"34";"1";"1";"3";"1";"[31,32]";"1";"0";"1"
"210";"22";"3";"1";"8";"1";"1";"3";"2";"[4,6,7,9]";"1";"0";"1"
"211";"37";"3";"1";"26";"1";"1";"3";"1";"[4,27,28,29,30]";"0";"1";"1"
"212";"15";"3";"1";"10";"1";"1";"3";"1";"[9]";"1";"0";"1"
"213";"13";"3";"1";"3";"1";"1";"3";"2";"[1,2]";"2";"0";"1"
"214";"6";"4";"1";"33";"1";"1";"3";"1";"[7,31,32,35]";"1";"0";"1"
"215";"11";"4";"1";"31";"1";"1";"3";"2";"[32,33,34,35]";"1";"0";"1"
"216";"16";"4";"1";"16";"1";"1";"3";"1";"[17,18,19,20]";"1";"0";"1"
"217";"22";"4";"1";"8";"1";"1";"3";"2";"[4,6,7,9]";"1";"0";"1"
"218";"33";"4";"1";"38";"1";"1";"3";"1";"[4,36,39,40]";"2";"0";"1"
"219";"3";"4";"1";"22";"1";"1";"3";"2";"[1,21,23,24]";"1";"0";"1"
"220";"13";"4";"1";"3";"1";"1";"3";"2";"[1,2]";"2";"0";"1"
"221";"37";"5";"1";"26";"1";"1";"3";"1";"[4,27,28,29,30]";"0";"2";"1"
"222";"11";"5";"1";"31";"1";"1";"3";"2";"[32,33,34,35]";"1";"0";"1"
"223";"16";"5";"1";"16";"1";"1";"3";"1";"[17,18,19,20]";"1";"0";"1"
"224";"21";"5";"1";"5";"1";"1";"3";"1";"[1,2,4,18]";"2";"0";"1"
"225";"27";"5";"1";"9";"1";"1";"3";"1";"[6,7,8,10,19,36]";"1";"0";"1"
"226";"20";"5";"1";"27";"1";"1";"3";"1";"[26,28,29,30]";"0";"1";"1"
"227";"10";"5";"1";"18";"1";"1";"3";"1";"[5,16,17,19,20]";"1";"0";"1"
"228";"33";"5";"1";"38";"1";"1";"3";"1";"[4,36,39,40]";"2";"0";"1"
"229";"8";"5";"1";"19";"1";"1";"3";"2";"[2,9,16,17,18,20]";"1";"0";"1"
"230";"3";"5";"1";"22";"1";"1";"3";"2";"[1,21,23,24]";"1";"0";"1"
"231";"31";"5";"1";"29";"1";"1";"3";"1";"[26,27,28]";"1";"0";"1"
"232";"21";"6";"1";"5";"1";"1";"3";"1";"[1,2,4,18]";"2";"0";"1"
"233";"40";"6";"1";"15";"1";"1";"3";"2";"[11,12,13,14,23,30]";"1";"0";"1"
"234";"37";"6";"1";"26";"1";"1";"3";"1";"[4,27,28,29,30]";"1";"2";"1"
"235";"27";"6";"1";"9";"1";"1";"3";"1";"[6,7,8,10,19,36]";"1";"0";"1"
"236";"18";"6";"1";"1";"1";"1";"3";"1";"[2,3,4,5,22]";"1";"0";"1"
"237";"10";"6";"1";"18";"1";"1";"3";"1";"[5,16,17,19,20]";"1";"0";"1"
"238";"8";"6";"1";"19";"1";"1";"3";"2";"[2,9,16,17,18,20]";"1";"0";"1"
"239";"26";"6";"1";"35";"1";"1";"3";"1";"[31,32,33]";"1";"0";"1"
"240";"31";"6";"1";"29";"1";"1";"3";"1";"[26,27,28]";"1";"0";"1"
"241";"19";"6";"1";"21";"1";"1";"3";"1";"[22,23,24,25]";"1";"0";"1"
"242";"32";"6";"1";"32";"1";"1";"3";"1";"[17,31,33,34,35]";"1";"0";"1"
"243";"9";"7";"1";"7";"1";"1";"3";"1";"[6,8,9,33]";"2";"0";"1"
"244";"40";"7";"1";"15";"1";"1";"3";"2";"[11,12,13,14,23,30]";"1";"0";"1"
"245";"28";"7";"1";"14";"1";"1";"3";"1";"[11,12,13,15]";"1";"0";"1"
"246";"37";"7";"1";"26";"1";"1";"3";"1";"[4,27,28,29,30]";"1";"2";"1"
"247";"18";"7";"1";"1";"1";"1";"3";"1";"[2,3,4,5,22]";"1";"0";"1"
"248";"20";"7";"1";"27";"1";"1";"3";"1";"[26,28,29,30]";"0";"2";"1"
"249";"26";"7";"1";"35";"1";"1";"3";"1";"[31,32,33]";"1";"0";"1"
"250";"19";"7";"1";"21";"1";"1";"3";"1";"[22,23,24,25]";"1";"0";"1"
"251";"32";"7";"1";"32";"1";"1";"3";"1";"[17,31,33,34,35]";"1";"0";"1"
"252";"9";"8";"1";"7";"1";"1";"3";"1";"[6,8,9,33]";"2";"0";"1"
"253";"5";"8";"1";"39";"1";"1";"3";"2";"[37,38,40]";"2";"0";"1"
"254";"28";"8";"1";"14";"1";"1";"3";"1";"[11,12,13,15]";"1";"0";"1"
"255";"20";"8";"1";"27";"1";"1";"3";"1";"[26,28,29,30]";"1";"2";"1"
"256";"5";"9";"1";"39";"1";"1";"3";"2";"[37,38,40]";"2";"0";"1"
"257";"8";"9";"1";"19";"1";"1";"3";"2";"[2,9,16,17,18,20]";"1";"1";"1"
"258";"17";"9";"1";"12";"1";"1";"3";"1";"[11,13,14,15]";"1";"0";"1"
"259";"20";"9";"1";"27";"1";"1";"3";"1";"[26,28,29,30]";"1";"2";"1"
"260";"14";"10";"1";"40";"1";"1";"3";"2";"[36,37,38,39]";"2";"0";"1"
"261";"39";"10";"1";"4";"1";"1";"3";"2";"[1,2,5,8,26,38]";"2";"0";"1"
"262";"4";"10";"1";"11";"1";"1";"3";"1";"[12,13,14,15]";"1";"0";"1"
"263";"2";"10";"1";"20";"1";"1";"3";"2";"[16,17,18,19]";"2";"0";"1"
"264";"34";"10";"1";"23";"1";"1";"3";"1";"[15,21,22,24,25]";"1";"0";"1"
"265";"8";"10";"1";"19";"1";"1";"3";"2";"[2,9,16,17,18,20]";"1";"2";"1"
"266";"17";"10";"1";"12";"1";"1";"3";"1";"[11,13,14,15]";"1";"0";"1"
"267";"14";"11";"1";"40";"1";"1";"3";"2";"[36,37,38,39]";"2";"0";"1"
"268";"39";"11";"1";"4";"1";"1";"3";"2";"[1,2,5,8,26,38]";"2";"0";"1"
"269";"4";"11";"1";"11";"1";"1";"3";"1";"[12,13,14,15]";"1";"0";"1"
"270";"2";"11";"1";"20";"1";"1";"3";"2";"[16,17,18,19]";"2";"0";"1"
"271";"34";"11";"1";"23";"1";"1";"3";"1";"[15,21,22,24,25]";"1";"0";"1"
"272";"12";"11";"1";"30";"1";"1";"3";"2";"[15,26,27]";"2";"0";"1"
"273";"24";"12";"1";"25";"1";"1";"3";"1";"[21,23,24]";"1";"0";"1"
"274";"30";"12";"1";"6";"1";"1";"3";"1";"[7,8,9]";"1";"0";"1"
"275";"12";"12";"1";"30";"1";"1";"3";"2";"[15,26,27]";"2";"0";"1"
"276";"24";"13";"1";"25";"1";"1";"3";"1";"[21,23,24]";"1";"0";"1"
"277";"30";"13";"1";"6";"1";"1";"3";"1";"[7,8,9]";"1";"0";"1"
"278";"38";"13";"1";"2";"1";"1";"3";"1";"[1,3,4,5,19]";"1";"0";"1"
"279";"38";"14";"1";"2";"1";"1";"3";"1";"[1,3,4,5,19]";"1";"0";"1"
"280";"35";"16";"1";"13";"1";"1";"3";"2";"[11,12,14,15]";"2";"0";"1"
"281";"35";"17";"1";"13";"1";"1";"3";"2";"[11,12,14,15]";"2";"0";"1"
"282";"36";"19";"1";"36";"1";"1";"3";"1";"[9,37,38,40]";"1";"0";"1"
"283";"36";"20";"1";"36";"1";"1";"3";"1";"[9,37,38,40]";"1";"0";"1"
"284";"25";"21";"1";"24";"1";"1";"3";"1";"[21,22,23,25]";"2";"0";"1"
"285";"25";"22";"1";"24";"1";"1";"3";"1";"[21,22,23,25]";"2";"0";"1"
"286";"36";"24";"1";"36";"1";"1";"3";"1";"[9,37,38,40]";"1";"1";"1"
"287";"36";"25";"1";"36";"1";"1";"3";"1";"[9,37,38,40]";"1";"2";"1"
"288";"1";"26";"1";"37";"1";"1";"3";"1";"[36,39,40]";"2";"0";"1"
"289";"1";"27";"1";"37";"1";"1";"3";"1";"[36,39,40]";"2";"0";"1"
"290";"23";"1";"1";"34";"1";"1";"4";"1";"[31,32]";"1";"0";"1"
"291";"7";"1";"1";"28";"1";"1";"4";"1";"[26,27,29]";"1";"0";"1"
"292";"22";"2";"1";"8";"1";"1";"4";"2";"[4,6,7,9]";"1";"0";"1"
"293";"15";"2";"1";"10";"1";"1";"4";"1";"[9]";"1";"0";"1"
"294";"11";"2";"1";"31";"1";"1";"4";"2";"[32,33,34,35]";"1";"0";"1"
"295";"23";"2";"1";"34";"1";"1";"4";"1";"[31,32]";"1";"0";"1"
"296";"3";"2";"1";"22";"1";"1";"4";"2";"[1,21,23,24]";"1";"0";"1"
"297";"7";"2";"1";"28";"1";"1";"4";"1";"[26,27,29]";"1";"0";"1"
"298";"22";"3";"1";"8";"1";"1";"4";"2";"[4,6,7,9]";"1";"0";"1"
"299";"15";"3";"1";"10";"1";"1";"4";"1";"[9]";"1";"0";"1"
"300";"11";"3";"1";"31";"1";"1";"4";"2";"[32,33,34,35]";"1";"0";"1"
"301";"19";"3";"1";"21";"1";"1";"4";"1";"[22,23,24,25]";"2";"0";"1"
"302";"14";"3";"1";"40";"1";"1";"4";"2";"[36,37,38,39]";"2";"0";"1"
"303";"32";"3";"1";"32";"1";"1";"4";"1";"[17,31,33,34,35]";"1";"0";"1"
"304";"3";"3";"1";"22";"1";"1";"4";"2";"[1,21,23,24]";"1";"0";"1"
"305";"8";"4";"1";"19";"1";"1";"4";"2";"[2,9,16,17,18,20]";"1";"0";"1"
"306";"34";"4";"1";"23";"1";"1";"4";"1";"[15,21,22,24,25]";"1";"0";"1"
"307";"16";"4";"1";"16";"1";"1";"4";"1";"[17,18,19,20]";"1";"0";"1"
"308";"19";"4";"1";"21";"1";"1";"4";"1";"[22,23,24,25]";"2";"0";"1"
"309";"14";"4";"1";"40";"1";"1";"4";"2";"[36,37,38,39]";"2";"0";"1"
"310";"32";"4";"1";"32";"1";"1";"4";"1";"[17,31,33,34,35]";"1";"0";"1"
"311";"8";"5";"1";"19";"1";"1";"4";"2";"[2,9,16,17,18,20]";"1";"0";"1"
"312";"38";"5";"1";"2";"1";"1";"4";"1";"[1,3,4,5,19]";"2";"0";"1"
"313";"34";"5";"1";"23";"1";"1";"4";"1";"[15,21,22,24,25]";"1";"0";"1"
"314";"16";"5";"1";"16";"1";"1";"4";"1";"[17,18,19,20]";"1";"0";"1"
"315";"6";"5";"1";"33";"1";"1";"4";"1";"[7,31,32,35]";"1";"0";"1"
"316";"5";"5";"1";"39";"1";"1";"4";"2";"[37,38,40]";"2";"0";"1"
"317";"31";"5";"1";"29";"1";"1";"4";"1";"[26,27,28]";"0";"2";"1"
"318";"25";"6";"1";"24";"1";"1";"4";"1";"[21,22,23,25]";"1";"0";"1"
"319";"33";"6";"1";"38";"1";"1";"4";"1";"[4,36,39,40]";"0";"1";"1"
"320";"38";"6";"1";"2";"1";"1";"4";"1";"[1,3,4,5,19]";"2";"0";"1"
"321";"6";"6";"1";"33";"1";"1";"4";"1";"[7,31,32,35]";"1";"0";"1"
"322";"13";"6";"1";"3";"1";"1";"4";"2";"[1,2]";"2";"0";"1"
"323";"5";"6";"1";"39";"1";"1";"4";"2";"[37,38,40]";"2";"0";"1"
"324";"28";"6";"1";"14";"1";"1";"4";"1";"[11,12,13,15]";"1";"0";"1"
"325";"25";"7";"1";"24";"1";"1";"4";"1";"[21,22,23,25]";"1";"0";"1"
"326";"27";"7";"1";"9";"1";"1";"4";"1";"[6,7,8,10,19,36]";"0";"1";"1"
"327";"10";"7";"1";"18";"1";"1";"4";"1";"[5,16,17,19,20]";"1";"0";"1"
"328";"13";"7";"1";"3";"1";"1";"4";"2";"[1,2]";"2";"0";"1"
"329";"28";"7";"1";"14";"1";"1";"4";"1";"[11,12,13,15]";"1";"0";"1"
"330";"21";"7";"1";"5";"1";"1";"4";"1";"[1,2,4,18]";"1";"0";"1"
"331";"31";"7";"1";"29";"1";"1";"4";"1";"[26,27,28]";"0";"4";"1"
"332";"12";"7";"1";"30";"1";"1";"4";"2";"[15,26,27]";"1";"0";"1"
"333";"29";"8";"1";"17";"1";"1";"4";"1";"[16,18,19,20,32]";"2";"0";"1"
"334";"2";"8";"1";"20";"1";"1";"4";"2";"[16,17,18,19]";"2";"0";"1"
"335";"4";"8";"1";"11";"1";"1";"4";"1";"[12,13,14,15]";"1";"0";"1"
"336";"1";"8";"1";"37";"1";"1";"4";"1";"[36,39,40]";"1";"0";"1"
"337";"10";"8";"1";"18";"1";"1";"4";"1";"[5,16,17,19,20]";"1";"0";"1"
"338";"21";"8";"1";"5";"1";"1";"4";"1";"[1,2,4,18]";"1";"0";"1"
"339";"20";"8";"1";"27";"1";"1";"4";"1";"[26,28,29,30]";"0";"1";"1"
"340";"12";"8";"1";"30";"1";"1";"4";"2";"[15,26,27]";"1";"0";"1"
"341";"17";"9";"1";"12";"1";"1";"4";"1";"[11,13,14,15]";"1";"0";"1"
"342";"18";"9";"1";"1";"1";"1";"4";"1";"[2,3,4,5,22]";"2";"0";"1"
"343";"29";"9";"1";"17";"1";"1";"4";"1";"[16,18,19,20,32]";"2";"0";"1"
"344";"24";"9";"1";"25";"1";"1";"4";"1";"[21,23,24]";"2";"0";"1"
"345";"2";"9";"1";"20";"1";"1";"4";"2";"[16,17,18,19]";"2";"0";"1"
"346";"4";"9";"1";"11";"1";"1";"4";"1";"[12,13,14,15]";"1";"0";"1"
"347";"1";"9";"1";"37";"1";"1";"4";"1";"[36,39,40]";"1";"0";"1"
"348";"31";"9";"1";"29";"1";"1";"4";"1";"[26,27,28]";"1";"4";"1"
"349";"20";"9";"1";"27";"1";"1";"4";"1";"[26,28,29,30]";"0";"2";"1"
"350";"17";"10";"1";"12";"1";"1";"4";"1";"[11,13,14,15]";"1";"0";"1"
"351";"18";"10";"1";"1";"1";"1";"4";"1";"[2,3,4,5,22]";"2";"0";"1"
"352";"24";"10";"1";"25";"1";"1";"4";"1";"[21,23,24]";"2";"0";"1"
"353";"9";"10";"1";"7";"1";"1";"4";"1";"[6,8,9,33]";"1";"0";"1"
"354";"20";"10";"1";"27";"1";"1";"4";"1";"[26,28,29,30]";"0";"1";"1"
"355";"33";"10";"1";"38";"1";"1";"4";"1";"[4,36,39,40]";"0";"4";"1"
"356";"27";"10";"1";"9";"1";"1";"4";"1";"[6,7,8,10,19,36]";"0";"2";"1"
"357";"20";"10";"1";"27";"1";"1";"4";"1";"[26,28,29,30]";"0";"2";"1"
"358";"31";"10";"1";"29";"1";"1";"4";"1";"[26,27,28]";"1";"4";"1"
"359";"9";"11";"1";"7";"1";"1";"4";"1";"[6,8,9,33]";"1";"0";"1"
"360";"26";"11";"1";"35";"1";"1";"4";"1";"[31,32,33]";"1";"0";"1"
"361";"20";"12";"1";"27";"1";"1";"4";"1";"[26,28,29,30]";"0";"3";"1"
"362";"39";"12";"1";"4";"1";"1";"4";"2";"[1,2,5,8,26,38]";"2";"0";"1"
"363";"37";"12";"1";"26";"1";"1";"4";"1";"[4,27,28,29,30]";"2";"0";"1"
"364";"26";"12";"1";"35";"1";"1";"4";"1";"[31,32,33]";"1";"0";"1"
"365";"39";"13";"1";"4";"1";"1";"4";"2";"[1,2,5,8,26,38]";"2";"0";"1"
"366";"37";"13";"1";"26";"1";"1";"4";"1";"[4,27,28,29,30]";"2";"0";"1"
"367";"30";"14";"1";"6";"1";"1";"4";"1";"[7,8,9]";"1";"0";"1"
"368";"33";"14";"1";"38";"1";"1";"4";"1";"[4,36,39,40]";"2";"4";"1"
"369";"20";"14";"1";"27";"1";"1";"4";"1";"[26,28,29,30]";"1";"3";"1"
"370";"27";"15";"1";"9";"1";"1";"4";"1";"[6,7,8,10,19,36]";"0";"3";"1"
"371";"30";"15";"1";"6";"1";"1";"4";"1";"[7,8,9]";"1";"0";"1"
"372";"36";"15";"1";"36";"1";"1";"4";"1";"[9,37,38,40]";"1";"0";"1"
"373";"33";"15";"1";"38";"1";"1";"4";"1";"[4,36,39,40]";"2";"4";"1"
"374";"20";"15";"1";"27";"1";"1";"4";"1";"[26,28,29,30]";"1";"3";"1"
"375";"36";"16";"1";"36";"1";"1";"4";"1";"[9,37,38,40]";"1";"0";"1"
"376";"27";"19";"1";"9";"1";"1";"4";"1";"[6,7,8,10,19,36]";"1";"3";"1"
"377";"27";"20";"1";"9";"1";"1";"4";"1";"[6,7,8,10,19,36]";"1";"3";"1"
"378";"14";"21";"1";"40";"1";"1";"4";"2";"[36,37,38,39]";"2";"2";"1"
"379";"35";"21";"1";"13";"1";"1";"4";"2";"[11,12,14,15]";"1";"0";"1"
"380";"35";"22";"1";"13";"1";"1";"4";"2";"[11,12,14,15]";"1";"0";"1"
"381";"14";"22";"1";"40";"1";"1";"4";"2";"[36,37,38,39]";"2";"1";"1"
"382";"40";"23";"1";"15";"1";"1";"4";"2";"[11,12,13,14,23,30]";"2";"0";"1"
"383";"40";"24";"1";"15";"1";"1";"4";"2";"[11,12,13,14,23,30]";"2";"0";"1"
"384";"13";"2";"1";"3";"1";"1";"5";"2";"[1,2]";"2";"0";"1"
"385";"23";"2";"1";"34";"1";"1";"5";"1";"[31,32]";"1";"0";"1"
"386";"7";"2";"1";"28";"1";"1";"5";"1";"[26,27,29]";"1";"0";"1"
"387";"6";"2";"1";"33";"1";"1";"5";"1";"[7,31,32,35]";"1";"0";"1"
"388";"13";"3";"1";"3";"1";"1";"5";"2";"[1,2]";"2";"0";"1"
"389";"23";"3";"1";"34";"1";"1";"5";"1";"[31,32]";"1";"0";"1"
"390";"7";"3";"1";"28";"1";"1";"5";"1";"[26,27,29]";"1";"0";"1"
"391";"11";"3";"1";"31";"1";"1";"5";"2";"[32,33,34,35]";"1";"0";"1"
"392";"38";"3";"1";"2";"1";"1";"5";"1";"[1,3,4,5,19]";"0";"3";"1"
"393";"6";"3";"1";"33";"1";"1";"5";"1";"[7,31,32,35]";"1";"0";"1"
"394";"37";"4";"1";"26";"1";"1";"5";"1";"[4,27,28,29,30]";"1";"0";"1"
"395";"10";"4";"1";"18";"1";"1";"5";"1";"[5,16,17,19,20]";"1";"0";"1"
"396";"33";"4";"1";"38";"1";"1";"5";"1";"[4,36,39,40]";"2";"0";"1"
"397";"31";"4";"1";"29";"1";"1";"5";"1";"[26,27,28]";"1";"0";"1"
"398";"38";"4";"1";"2";"1";"1";"5";"1";"[1,3,4,5,19]";"0";"4";"1"
"399";"3";"4";"1";"22";"1";"1";"5";"2";"[1,21,23,24]";"1";"0";"1"
"400";"11";"4";"1";"31";"1";"1";"5";"2";"[32,33,34,35]";"1";"0";"1"
"401";"22";"4";"1";"8";"1";"1";"5";"2";"[4,6,7,9]";"1";"0";"1"
"402";"34";"4";"1";"23";"1";"1";"5";"1";"[15,21,22,24,25]";"2";"0";"1"
"403";"28";"4";"1";"14";"1";"1";"5";"1";"[11,12,13,15]";"1";"0";"1"
"404";"37";"5";"1";"26";"1";"1";"5";"1";"[4,27,28,29,30]";"1";"0";"1"
"405";"10";"5";"1";"18";"1";"1";"5";"1";"[5,16,17,19,20]";"1";"0";"1"
"406";"17";"5";"1";"12";"1";"1";"5";"1";"[11,13,14,15]";"1";"0";"1"
"407";"33";"5";"1";"38";"1";"1";"5";"1";"[4,36,39,40]";"2";"0";"1"
"408";"31";"5";"1";"29";"1";"1";"5";"1";"[26,27,28]";"1";"0";"1"
"409";"29";"5";"1";"17";"1";"1";"5";"1";"[16,18,19,20,32]";"1";"0";"1"
"410";"5";"5";"1";"39";"1";"1";"5";"2";"[37,38,40]";"2";"0";"1"
"411";"3";"5";"1";"22";"1";"1";"5";"2";"[1,21,23,24]";"1";"0";"1"
"412";"22";"5";"1";"8";"1";"1";"5";"2";"[4,6,7,9]";"1";"0";"1"
"413";"4";"5";"1";"11";"1";"1";"5";"1";"[12,13,14,15]";"1";"0";"1"
"414";"34";"5";"1";"23";"1";"1";"5";"1";"[15,21,22,24,25]";"2";"0";"1"
"415";"28";"6";"1";"14";"1";"1";"5";"1";"[11,12,13,15]";"1";"0";"1"
"416";"20";"6";"1";"27";"1";"1";"5";"1";"[26,28,29,30]";"1";"0";"1"
"417";"17";"6";"1";"12";"1";"1";"5";"1";"[11,13,14,15]";"1";"0";"1"
"418";"29";"6";"1";"17";"1";"1";"5";"1";"[16,18,19,20,32]";"1";"0";"1"
"419";"5";"6";"1";"39";"1";"1";"5";"2";"[37,38,40]";"2";"0";"1"
"420";"18";"6";"1";"1";"1";"1";"5";"1";"[2,3,4,5,22]";"1";"0";"1"
"421";"4";"6";"1";"11";"1";"1";"5";"1";"[12,13,14,15]";"1";"0";"1"
"422";"8";"6";"1";"19";"1";"1";"5";"2";"[2,9,16,17,18,20]";"1";"0";"1"
"423";"20";"7";"1";"27";"1";"1";"5";"1";"[26,28,29,30]";"1";"0";"1"
"424";"16";"7";"1";"16";"1";"1";"5";"1";"[17,18,19,20]";"2";"0";"1"
"425";"2";"7";"1";"20";"1";"1";"5";"2";"[16,17,18,19]";"2";"0";"1"
"426";"26";"7";"1";"35";"1";"1";"5";"1";"[31,32,33]";"1";"0";"1"
"427";"18";"7";"1";"1";"1";"1";"5";"1";"[2,3,4,5,22]";"1";"0";"1"
"428";"8";"7";"1";"19";"1";"1";"5";"2";"[2,9,16,17,18,20]";"1";"0";"1"
"429";"16";"8";"1";"16";"1";"1";"5";"1";"[17,18,19,20]";"2";"0";"1"
"430";"2";"8";"1";"20";"1";"1";"5";"2";"[16,17,18,19]";"2";"0";"1"
"431";"26";"8";"1";"35";"1";"1";"5";"1";"[31,32,33]";"1";"0";"1"
"432";"38";"8";"1";"2";"1";"1";"5";"1";"[1,3,4,5,19]";"0";"3";"1"
"433";"25";"9";"1";"24";"1";"1";"5";"1";"[21,22,23,25]";"2";"0";"1"
"434";"36";"10";"1";"36";"1";"1";"5";"1";"[9,37,38,40]";"2";"0";"1"
"435";"32";"10";"1";"32";"1";"1";"5";"1";"[17,31,33,34,35]";"1";"0";"1"
"436";"40";"10";"1";"15";"1";"1";"5";"2";"[11,12,13,14,23,30]";"2";"0";"1"
"437";"38";"10";"1";"2";"1";"1";"5";"1";"[1,3,4,5,19]";"0";"4";"1"
"438";"30";"10";"1";"6";"1";"1";"5";"1";"[7,8,9]";"1";"0";"1"
"439";"35";"10";"1";"13";"1";"1";"5";"2";"[11,12,14,15]";"1";"0";"1"
"440";"14";"10";"1";"40";"1";"1";"5";"2";"[36,37,38,39]";"2";"0";"1"
"441";"25";"10";"1";"24";"1";"1";"5";"1";"[21,22,23,25]";"2";"0";"1"
"442";"12";"11";"1";"30";"1";"1";"5";"2";"[15,26,27]";"2";"0";"1"
"443";"36";"11";"1";"36";"1";"1";"5";"1";"[9,37,38,40]";"2";"0";"1"
"444";"32";"11";"1";"32";"1";"1";"5";"1";"[17,31,33,34,35]";"1";"0";"1"
"445";"19";"11";"1";"21";"1";"1";"5";"1";"[22,23,24,25]";"1";"0";"1"
"446";"40";"11";"1";"15";"1";"1";"5";"2";"[11,12,13,14,23,30]";"2";"0";"1"
"447";"30";"11";"1";"6";"1";"1";"5";"1";"[7,8,9]";"1";"0";"1"
"448";"35";"11";"1";"13";"1";"1";"5";"2";"[11,12,14,15]";"1";"0";"1"
"449";"14";"11";"1";"40";"1";"1";"5";"2";"[36,37,38,39]";"2";"0";"1"
"450";"12";"12";"1";"30";"1";"1";"5";"2";"[15,26,27]";"2";"0";"1"
"451";"39";"12";"1";"4";"1";"1";"5";"2";"[1,2,5,8,26,38]";"2";"0";"1"
"452";"19";"12";"1";"21";"1";"1";"5";"1";"[22,23,24,25]";"1";"0";"1"
"453";"38";"12";"1";"2";"1";"1";"5";"1";"[1,3,4,5,19]";"2";"4";"1"
"454";"14";"12";"1";"40";"1";"1";"5";"2";"[36,37,38,39]";"2";"3";"1"
"455";"39";"13";"1";"4";"1";"1";"5";"2";"[1,2,5,8,26,38]";"2";"0";"1"
"456";"38";"13";"1";"2";"1";"1";"5";"1";"[1,3,4,5,19]";"2";"4";"1"
"457";"24";"13";"1";"25";"1";"1";"5";"1";"[21,23,24]";"1";"0";"1"
"458";"24";"14";"1";"25";"1";"1";"5";"1";"[21,23,24]";"1";"0";"1"
"459";"15";"14";"1";"10";"1";"1";"5";"1";"[9]";"1";"0";"1"
"460";"14";"15";"1";"40";"1";"1";"5";"2";"[36,37,38,39]";"2";"2";"1"
"461";"15";"15";"1";"10";"1";"1";"5";"1";"[9]";"1";"0";"1"
"462";"27";"15";"1";"9";"1";"1";"5";"1";"[6,7,8,10,19,36]";"1";"0";"1"
"463";"14";"16";"1";"40";"1";"1";"5";"2";"[36,37,38,39]";"2";"1";"1"
"464";"27";"16";"1";"9";"1";"1";"5";"1";"[6,7,8,10,19,36]";"1";"0";"1"
"465";"21";"17";"1";"5";"1";"1";"5";"1";"[1,2,4,18]";"2";"0";"1"
"466";"21";"18";"1";"5";"1";"1";"5";"1";"[1,2,4,18]";"2";"0";"1"
"467";"34";"18";"1";"23";"1";"1";"5";"1";"[15,21,22,24,25]";"2";"2";"1"
"468";"1";"18";"1";"37";"1";"1";"5";"1";"[36,39,40]";"1";"0";"1"
"469";"14";"19";"1";"40";"1";"1";"5";"2";"[36,37,38,39]";"2";"2";"1"
"470";"1";"19";"1";"37";"1";"1";"5";"1";"[36,39,40]";"1";"0";"1"
"471";"34";"20";"1";"23";"1";"1";"5";"1";"[15,21,22,24,25]";"2";"1";"1"
"472";"9";"20";"1";"7";"1";"1";"5";"1";"[6,8,9,33]";"2";"0";"1"
"473";"14";"20";"1";"40";"1";"1";"5";"2";"[36,37,38,39]";"2";"3";"1"
"474";"9";"21";"1";"7";"1";"1";"5";"1";"[6,8,9,33]";"2";"0";"1"
"475";"25";"0";"1";"24";"1";"1";"6";"1";"[21,22,23,25]";"0";"1";"1"
"476";"18";"1";"1";"1";"1";"1";"6";"1";"[2,3,4,5,22]";"1";"0";"1"
"477";"6";"1";"1";"33";"1";"1";"6";"1";"[7,31,32,35]";"1";"0";"1"
"478";"7";"1";"1";"28";"1";"1";"6";"1";"[26,27,29]";"1";"0";"1"
"479";"29";"1";"1";"17";"1";"1";"6";"1";"[16,18,19,20,32]";"1";"0";"1"
"480";"22";"2";"1";"8";"1";"1";"6";"2";"[4,6,7,9]";"1";"0";"1"
"481";"13";"2";"1";"3";"1";"1";"6";"2";"[1,2]";"2";"0";"1"
"482";"23";"2";"1";"34";"1";"1";"6";"1";"[31,32]";"1";"0";"1"
"483";"17";"2";"1";"12";"1";"1";"6";"1";"[11,13,14,15]";"1";"0";"1"
"484";"18";"2";"1";"1";"1";"1";"6";"1";"[2,3,4,5,22]";"1";"0";"1"
"485";"32";"2";"1";"32";"1";"1";"6";"1";"[17,31,33,34,35]";"1";"0";"1"
"486";"21";"2";"1";"5";"1";"1";"6";"1";"[1,2,4,18]";"2";"0";"1"
"487";"6";"2";"1";"33";"1";"1";"6";"1";"[7,31,32,35]";"1";"0";"1"
"488";"7";"2";"1";"28";"1";"1";"6";"1";"[26,27,29]";"1";"0";"1"
"489";"29";"2";"1";"17";"1";"1";"6";"1";"[16,18,19,20,32]";"1";"0";"1"
"490";"22";"3";"1";"8";"1";"1";"6";"2";"[4,6,7,9]";"1";"0";"1"
"491";"14";"3";"1";"40";"1";"1";"6";"2";"[36,37,38,39]";"2";"0";"1"
"492";"13";"3";"1";"3";"1";"1";"6";"2";"[1,2]";"2";"0";"1"
"493";"23";"3";"1";"34";"1";"1";"6";"1";"[31,32]";"1";"0";"1"
"494";"17";"3";"1";"12";"1";"1";"6";"1";"[11,13,14,15]";"1";"0";"1"
"495";"25";"3";"1";"24";"1";"1";"6";"1";"[21,22,23,25]";"0";"4";"1"
"496";"32";"3";"1";"32";"1";"1";"6";"1";"[17,31,33,34,35]";"1";"0";"1"
"497";"21";"3";"1";"5";"1";"1";"6";"1";"[1,2,4,18]";"2";"0";"1"
"498";"39";"3";"1";"4";"1";"1";"6";"2";"[1,2,5,8,26,38]";"1";"0";"1"
"499";"36";"4";"1";"36";"1";"1";"6";"1";"[9,37,38,40]";"0";"6";"1"
"500";"14";"4";"1";"40";"1";"1";"6";"2";"[36,37,38,39]";"2";"0";"1"
"501";"28";"4";"1";"14";"1";"1";"6";"1";"[11,12,13,15]";"1";"0";"1"
"502";"38";"4";"1";"2";"1";"1";"6";"1";"[1,3,4,5,19]";"0";"4";"1"
"503";"8";"4";"1";"19";"1";"1";"6";"2";"[2,9,16,17,18,20]";"1";"0";"1"
"504";"39";"4";"1";"4";"1";"1";"6";"2";"[1,2,5,8,26,38]";"1";"0";"1"
"505";"4";"4";"1";"11";"1";"1";"6";"1";"[12,13,14,15]";"1";"0";"1"
"506";"34";"4";"1";"23";"1";"1";"6";"1";"[15,21,22,24,25]";"0";"1";"1"
"507";"27";"4";"1";"9";"1";"1";"6";"1";"[6,7,8,10,19,36]";"0";"4";"1"
"508";"3";"5";"1";"22";"1";"1";"6";"2";"[1,21,23,24]";"2";"0";"1"
"509";"20";"5";"1";"27";"1";"1";"6";"1";"[26,28,29,30]";"1";"0";"1"
"510";"28";"5";"1";"14";"1";"1";"6";"1";"[11,12,13,15]";"1";"0";"1"
"511";"37";"5";"1";"26";"1";"1";"6";"1";"[4,27,28,29,30]";"1";"0";"1"
"512";"2";"5";"1";"20";"1";"1";"6";"2";"[16,17,18,19]";"2";"0";"1"
"513";"8";"5";"1";"19";"1";"1";"6";"2";"[2,9,16,17,18,20]";"1";"0";"1"
"514";"25";"5";"1";"24";"1";"1";"6";"1";"[21,22,23,25]";"0";"5";"1"
"515";"4";"5";"1";"11";"1";"1";"6";"1";"[12,13,14,15]";"1";"0";"1"
"516";"3";"6";"1";"22";"1";"1";"6";"2";"[1,21,23,24]";"2";"0";"1"
"517";"27";"6";"1";"9";"1";"1";"6";"1";"[6,7,8,10,19,36]";"0";"3";"1"
"518";"20";"6";"1";"27";"1";"1";"6";"1";"[26,28,29,30]";"1";"0";"1"
"519";"37";"6";"1";"26";"1";"1";"6";"1";"[4,27,28,29,30]";"1";"0";"1"
"520";"2";"6";"1";"20";"1";"1";"6";"2";"[16,17,18,19]";"2";"0";"1"
"521";"38";"6";"1";"2";"1";"1";"6";"1";"[1,3,4,5,19]";"0";"5";"1"
"522";"30";"6";"1";"6";"1";"1";"6";"1";"[7,8,9]";"1";"0";"1"
"523";"15";"6";"1";"10";"1";"1";"6";"1";"[9]";"1";"0";"1"
"524";"12";"7";"1";"30";"1";"1";"6";"2";"[15,26,27]";"2";"0";"1"
"525";"26";"7";"1";"35";"1";"1";"6";"1";"[31,32,33]";"1";"0";"1"
"526";"25";"7";"1";"24";"1";"1";"6";"1";"[21,22,23,25]";"0";"6";"1"
"527";"5";"7";"1";"39";"1";"1";"6";"2";"[37,38,40]";"0";"4";"1"
"528";"30";"7";"1";"6";"1";"1";"6";"1";"[7,8,9]";"1";"0";"1"
"529";"10";"7";"1";"18";"1";"1";"6";"1";"[5,16,17,19,20]";"2";"0";"1"
"530";"38";"7";"1";"2";"1";"1";"6";"1";"[1,3,4,5,19]";"0";"4";"1"
"531";"15";"7";"1";"10";"1";"1";"6";"1";"[9]";"1";"0";"1"
"532";"27";"7";"1";"9";"1";"1";"6";"1";"[6,7,8,10,19,36]";"0";"1";"1"
"533";"12";"8";"1";"30";"1";"1";"6";"2";"[15,26,27]";"2";"0";"1"
"534";"19";"8";"1";"21";"1";"1";"6";"1";"[22,23,24,25]";"2";"0";"1"
"535";"26";"8";"1";"35";"1";"1";"6";"1";"[31,32,33]";"1";"0";"1"
"536";"34";"8";"1";"23";"1";"1";"6";"1";"[15,21,22,24,25]";"0";"5";"1"
"537";"38";"8";"1";"2";"1";"1";"6";"1";"[1,3,4,5,19]";"0";"5";"1"
"538";"10";"8";"1";"18";"1";"1";"6";"1";"[5,16,17,19,20]";"2";"0";"1"
"539";"5";"9";"1";"39";"1";"1";"6";"2";"[37,38,40]";"0";"3";"1"
"540";"33";"9";"1";"38";"1";"1";"6";"1";"[4,36,39,40]";"2";"0";"1"
"541";"19";"9";"1";"21";"1";"1";"6";"1";"[22,23,24,25]";"2";"0";"1"
"542";"36";"9";"1";"36";"1";"1";"6";"1";"[9,37,38,40]";"1";"6";"1"
"543";"34";"9";"1";"23";"1";"1";"6";"1";"[15,21,22,24,25]";"0";"6";"1"
"544";"27";"9";"1";"9";"1";"1";"6";"1";"[6,7,8,10,19,36]";"0";"2";"1"
"545";"16";"9";"1";"16";"1";"1";"6";"1";"[17,18,19,20]";"1";"0";"1"
"546";"24";"10";"1";"25";"1";"1";"6";"1";"[21,23,24]";"1";"0";"1"
"547";"33";"10";"1";"38";"1";"1";"6";"1";"[4,36,39,40]";"2";"0";"1"
"548";"38";"10";"1";"2";"1";"1";"6";"1";"[1,3,4,5,19]";"2";"5";"1"
"549";"36";"10";"1";"36";"1";"1";"6";"1";"[9,37,38,40]";"1";"6";"1"
"550";"5";"10";"1";"39";"1";"1";"6";"2";"[37,38,40]";"0";"1";"1"
"551";"25";"10";"1";"24";"1";"1";"6";"1";"[21,22,23,25]";"0";"6";"1"
"552";"16";"10";"1";"16";"1";"1";"6";"1";"[17,18,19,20]";"1";"0";"1"
"553";"34";"11";"1";"23";"1";"1";"6";"1";"[15,21,22,24,25]";"2";"6";"1"
"554";"24";"11";"1";"25";"1";"1";"6";"1";"[21,23,24]";"1";"0";"1"
"555";"38";"11";"1";"2";"1";"1";"6";"1";"[1,3,4,5,19]";"2";"5";"1"
"556";"31";"11";"1";"29";"1";"1";"6";"1";"[26,27,28]";"1";"0";"1"
"557";"5";"11";"1";"39";"1";"1";"6";"2";"[37,38,40]";"0";"7";"1"
"558";"27";"12";"1";"9";"1";"1";"6";"1";"[6,7,8,10,19,36]";"0";"3";"1"
"559";"34";"12";"1";"23";"1";"1";"6";"1";"[15,21,22,24,25]";"2";"6";"1"
"560";"9";"12";"1";"7";"1";"1";"6";"1";"[6,8,9,33]";"1";"0";"1"
"561";"31";"12";"1";"29";"1";"1";"6";"1";"[26,27,28]";"1";"0";"1"
"562";"5";"12";"1";"39";"1";"1";"6";"2";"[37,38,40]";"0";"7";"1"
"563";"9";"13";"1";"7";"1";"1";"6";"1";"[6,8,9,33]";"1";"0";"1"
"564";"5";"13";"1";"39";"1";"1";"6";"2";"[37,38,40]";"2";"7";"1"
"565";"27";"14";"1";"9";"1";"1";"6";"1";"[6,7,8,10,19,36]";"0";"4";"1"
"566";"1";"14";"1";"37";"1";"1";"6";"1";"[36,39,40]";"2";"0";"1"
"567";"5";"14";"1";"39";"1";"1";"6";"2";"[37,38,40]";"2";"7";"1"
"568";"40";"15";"1";"15";"1";"1";"6";"2";"[11,12,13,14,23,30]";"2";"0";"1"
"569";"1";"15";"1";"37";"1";"1";"6";"1";"[36,39,40]";"2";"0";"1"
"570";"40";"16";"1";"15";"1";"1";"6";"2";"[11,12,13,14,23,30]";"2";"0";"1"
"571";"27";"16";"1";"9";"1";"1";"6";"1";"[6,7,8,10,19,36]";"0";"5";"1"
"572";"14";"17";"1";"40";"1";"1";"6";"2";"[36,37,38,39]";"2";"1";"1"
"573";"25";"17";"1";"24";"1";"1";"6";"1";"[21,22,23,25]";"2";"6";"1"
"574";"25";"18";"1";"24";"1";"1";"6";"1";"[21,22,23,25]";"2";"6";"1"
"575";"27";"18";"1";"9";"1";"1";"6";"1";"[6,7,8,10,19,36]";"0";"6";"1"
"576";"27";"19";"1";"9";"1";"1";"6";"1";"[6,7,8,10,19,36]";"1";"6";"1"
"577";"35";"20";"1";"13";"1";"1";"6";"2";"[11,12,14,15]";"2";"0";"1"
"578";"27";"20";"1";"9";"1";"1";"6";"1";"[6,7,8,10,19,36]";"1";"6";"1"
"579";"11";"20";"1";"31";"1";"1";"6";"2";"[32,33,34,35]";"1";"0";"1"
"580";"35";"21";"1";"13";"1";"1";"6";"2";"[11,12,14,15]";"2";"0";"1"
"581";"11";"21";"1";"31";"1";"1";"6";"2";"[32,33,34,35]";"1";"0";"1"
"582";"32";"1";"1";"32";"1";"1";"7";"1";"[17,31,33,34,35]";"0";"4";"1"
"583";"7";"2";"1";"28";"1";"1";"7";"1";"[26,27,29]";"1";"0";"1"
"584";"6";"2";"1";"33";"1";"1";"7";"1";"[7,31,32,35]";"1";"0";"1"
"585";"23";"2";"1";"34";"1";"1";"7";"1";"[31,32]";"1";"0";"1"
"586";"13";"2";"1";"3";"1";"1";"7";"2";"[1,2]";"2";"0";"1"
"587";"3";"3";"1";"22";"1";"1";"7";"2";"[1,21,23,24]";"2";"0";"1"
"588";"7";"3";"1";"28";"1";"1";"7";"1";"[26,27,29]";"1";"0";"1"
"589";"32";"3";"1";"32";"1";"1";"7";"1";"[17,31,33,34,35]";"0";"5";"1"
"590";"22";"3";"1";"8";"1";"1";"7";"2";"[4,6,7,9]";"1";"0";"1"
"591";"6";"3";"1";"33";"1";"1";"7";"1";"[7,31,32,35]";"1";"0";"1"
"592";"23";"3";"1";"34";"1";"1";"7";"1";"[31,32]";"1";"0";"1"
"593";"13";"3";"1";"3";"1";"1";"7";"2";"[1,2]";"2";"0";"1"
"594";"31";"3";"1";"29";"1";"1";"7";"1";"[26,27,28]";"1";"0";"1"
"595";"27";"3";"1";"9";"1";"1";"7";"1";"[6,7,8,10,19,36]";"1";"0";"1"
"596";"15";"3";"1";"10";"1";"1";"7";"1";"[9]";"1";"0";"1"
"597";"3";"4";"1";"22";"1";"1";"7";"2";"[1,21,23,24]";"2";"0";"1"
"598";"22";"4";"1";"8";"1";"1";"7";"2";"[4,6,7,9]";"1";"0";"1"
"599";"34";"4";"1";"23";"1";"1";"7";"1";"[15,21,22,24,25]";"2";"0";"1"
"600";"11";"4";"1";"31";"1";"1";"7";"2";"[32,33,34,35]";"1";"0";"1"
"601";"37";"4";"1";"26";"1";"1";"7";"1";"[4,27,28,29,30]";"1";"0";"1"
"602";"31";"4";"1";"29";"1";"1";"7";"1";"[26,27,28]";"1";"0";"1"
"603";"27";"4";"1";"9";"1";"1";"7";"1";"[6,7,8,10,19,36]";"1";"0";"1"
"604";"15";"4";"1";"10";"1";"1";"7";"1";"[9]";"1";"0";"1"
"605";"12";"4";"1";"30";"1";"1";"7";"2";"[15,26,27]";"1";"0";"1"
"606";"19";"4";"1";"21";"1";"1";"7";"1";"[22,23,24,25]";"2";"0";"1"
"607";"21";"4";"1";"5";"1";"1";"7";"1";"[1,2,4,18]";"2";"0";"1"
"608";"26";"5";"1";"35";"1";"1";"7";"1";"[31,32,33]";"2";"0";"1"
"609";"16";"5";"1";"16";"1";"1";"7";"1";"[17,18,19,20]";"1";"0";"1"
"610";"34";"5";"1";"23";"1";"1";"7";"1";"[15,21,22,24,25]";"2";"0";"1"
"611";"11";"5";"1";"31";"1";"1";"7";"2";"[32,33,34,35]";"1";"0";"1"
"612";"37";"5";"1";"26";"1";"1";"7";"1";"[4,27,28,29,30]";"1";"0";"1"
"613";"5";"5";"1";"39";"1";"1";"7";"2";"[37,38,40]";"1";"0";"1"
"614";"12";"5";"1";"30";"1";"1";"7";"2";"[15,26,27]";"1";"0";"1"
"615";"19";"5";"1";"21";"1";"1";"7";"1";"[22,23,24,25]";"2";"0";"1"
"616";"21";"6";"1";"5";"1";"1";"7";"1";"[1,2,4,18]";"2";"0";"1"
"617";"26";"6";"1";"35";"1";"1";"7";"1";"[31,32,33]";"2";"0";"1"
"618";"18";"6";"1";"1";"1";"1";"7";"1";"[2,3,4,5,22]";"2";"0";"1"
"619";"16";"6";"1";"16";"1";"1";"7";"1";"[17,18,19,20]";"1";"0";"1"
"620";"20";"6";"1";"27";"1";"1";"7";"1";"[26,28,29,30]";"1";"0";"1"
"621";"32";"6";"1";"32";"1";"1";"7";"1";"[17,31,33,34,35]";"0";"6";"1"
"622";"24";"6";"1";"25";"1";"1";"7";"1";"[21,23,24]";"2";"0";"1"
"623";"14";"6";"1";"40";"1";"1";"7";"2";"[36,37,38,39]";"0";"5";"1"
"624";"17";"6";"1";"12";"1";"1";"7";"1";"[11,13,14,15]";"1";"0";"1"
"625";"5";"6";"1";"39";"1";"1";"7";"2";"[37,38,40]";"1";"0";"1"
"626";"2";"6";"1";"20";"1";"1";"7";"2";"[16,17,18,19]";"2";"0";"1"
"627";"30";"6";"1";"6";"1";"1";"7";"1";"[7,8,9]";"1";"0";"1"
"628";"18";"7";"1";"1";"1";"1";"7";"1";"[2,3,4,5,22]";"2";"0";"1"
"629";"20";"7";"1";"27";"1";"1";"7";"1";"[26,28,29,30]";"1";"0";"1"
"630";"24";"7";"1";"25";"1";"1";"7";"1";"[21,23,24]";"2";"0";"1"
"631";"1";"7";"1";"37";"1";"1";"7";"1";"[36,39,40]";"2";"0";"1"
"632";"17";"7";"1";"12";"1";"1";"7";"1";"[11,13,14,15]";"1";"0";"1"
"633";"14";"7";"1";"40";"1";"1";"7";"2";"[36,37,38,39]";"0";"6";"1"
"634";"8";"7";"1";"19";"1";"1";"7";"2";"[2,9,16,17,18,20]";"1";"0";"1"
"635";"2";"7";"1";"20";"1";"1";"7";"2";"[16,17,18,19]";"2";"0";"1"
"636";"30";"7";"1";"6";"1";"1";"7";"1";"[7,8,9]";"1";"0";"1"
"637";"39";"8";"1";"4";"1";"1";"7";"2";"[1,2,5,8,26,38]";"2";"0";"1"
"638";"1";"8";"1";"37";"1";"1";"7";"1";"[36,39,40]";"2";"0";"1"
"639";"38";"8";"1";"2";"1";"1";"7";"1";"[1,3,4,5,19]";"1";"0";"1"
"640";"8";"8";"1";"19";"1";"1";"7";"2";"[2,9,16,17,18,20]";"1";"0";"1"
"641";"39";"9";"1";"4";"1";"1";"7";"2";"[1,2,5,8,26,38]";"2";"0";"1"
"642";"32";"9";"1";"32";"1";"1";"7";"1";"[17,31,33,34,35]";"1";"6";"1"
"643";"28";"9";"1";"14";"1";"1";"7";"1";"[11,12,13,15]";"1";"0";"1"
"644";"38";"9";"1";"2";"1";"1";"7";"1";"[1,3,4,5,19]";"1";"0";"1"
"645";"36";"10";"1";"36";"1";"1";"7";"1";"[9,37,38,40]";"1";"0";"1"
"646";"32";"10";"1";"32";"1";"1";"7";"1";"[17,31,33,34,35]";"1";"6";"1"
"647";"28";"10";"1";"14";"1";"1";"7";"1";"[11,12,13,15]";"1";"0";"1"
"648";"14";"11";"1";"40";"1";"1";"7";"2";"[36,37,38,39]";"2";"6";"1"
"649";"36";"11";"1";"36";"1";"1";"7";"1";"[9,37,38,40]";"1";"0";"1"
"650";"9";"11";"1";"7";"1";"1";"7";"1";"[6,8,9,33]";"1";"0";"1"
"651";"14";"12";"1";"40";"1";"1";"7";"2";"[36,37,38,39]";"2";"6";"1"
"652";"9";"12";"1";"7";"1";"1";"7";"1";"[6,8,9,33]";"1";"0";"1"
"653";"35";"13";"1";"13";"1";"1";"7";"2";"[11,12,14,15]";"2";"0";"1"
"654";"35";"14";"1";"13";"1";"1";"7";"2";"[11,12,14,15]";"2";"0";"1"
"655";"33";"14";"1";"38";"1";"1";"7";"1";"[4,36,39,40]";"0";"5";"1"
"656";"32";"15";"1";"32";"1";"1";"7";"1";"[17,31,33,34,35]";"1";"7";"1"
"657";"33";"16";"1";"38";"1";"1";"7";"1";"[4,36,39,40]";"0";"4";"1"
"658";"10";"16";"1";"18";"1";"1";"7";"1";"[5,16,17,19,20]";"1";"0";"1"
"659";"33";"17";"1";"38";"1";"1";"7";"1";"[4,36,39,40]";"0";"5";"1"
"660";"33";"17";"1";"38";"1";"1";"7";"1";"[4,36,39,40]";"0";"7";"1"
"661";"40";"17";"1";"15";"1";"1";"7";"2";"[11,12,13,14,23,30]";"2";"0";"1"
"662";"10";"17";"1";"18";"1";"1";"7";"1";"[5,16,17,19,20]";"1";"0";"1"
"663";"25";"18";"1";"24";"1";"1";"7";"1";"[21,22,23,25]";"2";"0";"1"
"664";"40";"18";"1";"15";"1";"1";"7";"2";"[11,12,13,14,23,30]";"2";"0";"1"
"665";"4";"19";"1";"11";"1";"1";"7";"1";"[12,13,14,15]";"2";"0";"1"
"666";"33";"19";"1";"38";"1";"1";"7";"1";"[4,36,39,40]";"2";"7";"1"
"667";"25";"19";"1";"24";"1";"1";"7";"1";"[21,22,23,25]";"2";"0";"1"
"668";"4";"20";"1";"11";"1";"1";"7";"1";"[12,13,14,15]";"2";"0";"1"
"669";"33";"20";"1";"38";"1";"1";"7";"1";"[4,36,39,40]";"2";"7";"1"
"670";"29";"20";"1";"17";"1";"1";"7";"1";"[16,18,19,20,32]";"2";"0";"1"
"671";"14";"20";"1";"40";"1";"1";"7";"2";"[36,37,38,39]";"2";"5";"1"
"672";"29";"21";"1";"17";"1";"1";"7";"1";"[16,18,19,20,32]";"2";"0";"1"
"673";"7";"1";"1";"28";"1";"1";"8";"1";"[26,27,29]";"1";"0";"1"
"674";"34";"2";"1";"23";"1";"1";"8";"1";"[15,21,22,24,25]";"2";"0";"1"
"675";"7";"2";"1";"28";"1";"1";"8";"1";"[26,27,29]";"1";"0";"1"
"676";"40";"2";"1";"15";"1";"1";"8";"2";"[11,12,13,14,23,30]";"2";"0";"1"
"677";"18";"3";"1";"1";"1";"1";"8";"1";"[2,3,4,5,22]";"2";"0";"1"
"678";"6";"3";"1";"33";"1";"1";"8";"1";"[7,31,32,35]";"1";"0";"1"
"679";"34";"3";"1";"23";"1";"1";"8";"1";"[15,21,22,24,25]";"2";"0";"1"
"680";"38";"3";"1";"2";"1";"1";"8";"1";"[1,3,4,5,19]";"2";"0";"1"
"681";"3";"3";"1";"22";"1";"1";"8";"2";"[1,21,23,24]";"2";"0";"1"
"682";"22";"3";"1";"8";"1";"1";"8";"2";"[4,6,7,9]";"1";"0";"1"
"683";"29";"3";"1";"17";"1";"1";"8";"1";"[16,18,19,20,32]";"1";"0";"1"
"684";"8";"3";"1";"19";"1";"1";"8";"2";"[2,9,16,17,18,20]";"1";"0";"1"
"685";"40";"3";"1";"15";"1";"1";"8";"2";"[11,12,13,14,23,30]";"2";"0";"1"
"686";"18";"4";"1";"1";"1";"1";"8";"1";"[2,3,4,5,22]";"2";"0";"1"
"687";"6";"4";"1";"33";"1";"1";"8";"1";"[7,31,32,35]";"1";"0";"1"
"688";"17";"4";"1";"12";"1";"1";"8";"1";"[11,13,14,15]";"1";"0";"1"
"689";"5";"4";"1";"39";"1";"1";"8";"2";"[37,38,40]";"2";"0";"1"
"690";"27";"4";"1";"9";"1";"1";"8";"1";"[6,7,8,10,19,36]";"1";"0";"1"
"691";"14";"4";"1";"40";"1";"1";"8";"2";"[36,37,38,39]";"2";"0";"1"
"692";"31";"4";"1";"29";"1";"1";"8";"1";"[26,27,28]";"0";"5";"1"
"693";"36";"4";"1";"36";"1";"1";"8";"1";"[9,37,38,40]";"2";"0";"1"
"694";"38";"4";"1";"2";"1";"1";"8";"1";"[1,3,4,5,19]";"2";"0";"1"
"695";"3";"4";"1";"22";"1";"1";"8";"2";"[1,21,23,24]";"2";"0";"1"
"696";"10";"4";"1";"18";"1";"1";"8";"1";"[5,16,17,19,20]";"2";"0";"1"
"697";"22";"4";"1";"8";"1";"1";"8";"2";"[4,6,7,9]";"1";"0";"1"
"698";"29";"4";"1";"17";"1";"1";"8";"1";"[16,18,19,20,32]";"1";"0";"1"
"699";"8";"4";"1";"19";"1";"1";"8";"2";"[2,9,16,17,18,20]";"1";"0";"1"
"700";"21";"5";"1";"5";"1";"1";"8";"1";"[1,2,4,18]";"2";"0";"1"
"701";"15";"5";"1";"10";"1";"1";"8";"1";"[9]";"1";"0";"1"
"702";"23";"5";"1";"34";"1";"1";"8";"1";"[31,32]";"1";"0";"1"
"703";"17";"5";"1";"12";"1";"1";"8";"1";"[11,13,14,15]";"1";"0";"1"
"704";"31";"5";"1";"29";"1";"1";"8";"1";"[26,27,28]";"0";"4";"1"
"705";"5";"5";"1";"39";"1";"1";"8";"2";"[37,38,40]";"2";"0";"1"
"706";"32";"5";"1";"32";"1";"1";"8";"1";"[17,31,33,34,35]";"1";"0";"1"
"707";"16";"5";"1";"16";"1";"1";"8";"1";"[17,18,19,20]";"1";"0";"1"
"708";"27";"5";"1";"9";"1";"1";"8";"1";"[6,7,8,10,19,36]";"1";"0";"1"
"709";"14";"5";"1";"40";"1";"1";"8";"2";"[36,37,38,39]";"2";"0";"1"
"710";"36";"5";"1";"36";"1";"1";"8";"1";"[9,37,38,40]";"2";"0";"1"
"711";"37";"5";"1";"26";"1";"1";"8";"1";"[4,27,28,29,30]";"1";"0";"1"
"712";"10";"5";"1";"18";"1";"1";"8";"1";"[5,16,17,19,20]";"2";"0";"1"
"713";"21";"6";"1";"5";"1";"1";"8";"1";"[1,2,4,18]";"2";"0";"1"
"714";"15";"6";"1";"10";"1";"1";"8";"1";"[9]";"1";"0";"1"
"715";"23";"6";"1";"34";"1";"1";"8";"1";"[31,32]";"1";"0";"1"
"716";"13";"6";"1";"3";"1";"1";"8";"2";"[1,2]";"2";"0";"1"
"717";"39";"6";"1";"4";"1";"1";"8";"2";"[1,2,5,8,26,38]";"2";"0";"1"
"718";"19";"6";"1";"21";"1";"1";"8";"1";"[22,23,24,25]";"1";"0";"1"
"719";"20";"6";"1";"27";"1";"1";"8";"1";"[26,28,29,30]";"1";"0";"1"
"720";"12";"6";"1";"30";"1";"1";"8";"2";"[15,26,27]";"2";"0";"1"
"721";"32";"6";"1";"32";"1";"1";"8";"1";"[17,31,33,34,35]";"1";"0";"1"
"722";"16";"6";"1";"16";"1";"1";"8";"1";"[17,18,19,20]";"1";"0";"1"
"723";"31";"6";"1";"29";"1";"1";"8";"1";"[26,27,28]";"0";"7";"1"
"724";"4";"6";"1";"11";"1";"1";"8";"1";"[12,13,14,15]";"2";"0";"1"
"725";"37";"6";"1";"26";"1";"1";"8";"1";"[4,27,28,29,30]";"1";"0";"1"
"726";"11";"6";"1";"31";"1";"1";"8";"2";"[32,33,34,35]";"1";"0";"1"
"727";"13";"7";"1";"3";"1";"1";"8";"2";"[1,2]";"2";"0";"1"
"728";"39";"7";"1";"4";"1";"1";"8";"2";"[1,2,5,8,26,38]";"2";"0";"1"
"729";"28";"7";"1";"14";"1";"1";"8";"1";"[11,12,13,15]";"2";"0";"1"
"730";"19";"7";"1";"21";"1";"1";"8";"1";"[22,23,24,25]";"1";"0";"1"
"731";"31";"7";"1";"29";"1";"1";"8";"1";"[26,27,28]";"0";"8";"1"
"732";"20";"7";"1";"27";"1";"1";"8";"1";"[26,28,29,30]";"1";"0";"1"
"733";"12";"7";"1";"30";"1";"1";"8";"2";"[15,26,27]";"2";"0";"1"
"734";"4";"7";"1";"11";"1";"1";"8";"1";"[12,13,14,15]";"2";"0";"1"
"735";"11";"7";"1";"31";"1";"1";"8";"2";"[32,33,34,35]";"1";"0";"1"
"736";"28";"8";"1";"14";"1";"1";"8";"1";"[11,12,13,15]";"2";"0";"1"
"737";"25";"8";"1";"24";"1";"1";"8";"1";"[21,22,23,25]";"2";"0";"1"
"738";"31";"8";"1";"29";"1";"1";"8";"1";"[26,27,28]";"1";"8";"1"
"739";"8";"9";"1";"19";"1";"1";"8";"2";"[2,9,16,17,18,20]";"1";"6";"1"
"740";"13";"9";"1";"3";"1";"1";"8";"2";"[1,2]";"2";"1";"1"
"741";"25";"9";"1";"24";"1";"1";"8";"1";"[21,22,23,25]";"2";"0";"1"
"742";"31";"9";"1";"29";"1";"1";"8";"1";"[26,27,28]";"1";"8";"1"
"743";"2";"9";"1";"20";"1";"1";"8";"2";"[16,17,18,19]";"2";"0";"1"
"744";"8";"10";"1";"19";"1";"1";"8";"2";"[2,9,16,17,18,20]";"1";"5";"1"
"745";"2";"10";"1";"20";"1";"1";"8";"2";"[16,17,18,19]";"2";"0";"1"
"746";"13";"10";"1";"3";"1";"1";"8";"2";"[1,2]";"2";"2";"1"
"747";"26";"10";"1";"35";"1";"1";"8";"1";"[31,32,33]";"2";"0";"1"
"748";"39";"10";"1";"4";"1";"1";"8";"2";"[1,2,5,8,26,38]";"2";"6";"1"
"749";"37";"11";"1";"26";"1";"1";"8";"1";"[4,27,28,29,30]";"1";"6";"1"
"750";"8";"11";"1";"19";"1";"1";"8";"2";"[2,9,16,17,18,20]";"1";"4";"1"
"751";"26";"11";"1";"35";"1";"1";"8";"1";"[31,32,33]";"2";"0";"1"
"752";"8";"11";"1";"19";"1";"1";"8";"2";"[2,9,16,17,18,20]";"1";"3";"1"
"753";"30";"12";"1";"6";"1";"1";"8";"1";"[7,8,9]";"1";"0";"1"
"754";"8";"12";"1";"19";"1";"1";"8";"2";"[2,9,16,17,18,20]";"1";"2";"1"
"755";"37";"12";"1";"26";"1";"1";"8";"1";"[4,27,28,29,30]";"1";"5";"1"
"756";"39";"12";"1";"4";"1";"1";"8";"2";"[1,2,5,8,26,38]";"2";"5";"1"
"757";"13";"12";"1";"3";"1";"1";"8";"2";"[1,2]";"2";"7";"1"
"758";"8";"13";"1";"19";"1";"1";"8";"2";"[2,9,16,17,18,20]";"1";"1";"1"
"759";"30";"13";"1";"6";"1";"1";"8";"1";"[7,8,9]";"1";"0";"1"
"760";"13";"13";"1";"3";"1";"1";"8";"2";"[1,2]";"2";"8";"1"
"761";"39";"13";"1";"4";"1";"1";"8";"2";"[1,2,5,8,26,38]";"2";"4";"1"
"762";"9";"14";"1";"7";"1";"1";"8";"1";"[6,8,9,33]";"2";"0";"1"
"763";"13";"14";"1";"3";"1";"1";"8";"2";"[1,2]";"2";"9";"1"
"764";"8";"14";"1";"19";"1";"1";"8";"2";"[2,9,16,17,18,20]";"1";"6";"1"
"765";"37";"14";"1";"26";"1";"1";"8";"1";"[4,27,28,29,30]";"1";"6";"1"
"766";"9";"15";"1";"7";"1";"1";"8";"1";"[6,8,9,33]";"2";"0";"1"
"767";"39";"15";"1";"4";"1";"1";"8";"2";"[1,2,5,8,26,38]";"2";"3";"1"
"768";"24";"15";"1";"25";"1";"1";"8";"1";"[21,23,24]";"2";"0";"1"
"769";"8";"15";"1";"19";"1";"1";"8";"2";"[2,9,16,17,18,20]";"1";"9";"1"
"770";"35";"15";"1";"13";"1";"1";"8";"2";"[11,12,14,15]";"2";"0";"1"
"771";"37";"15";"1";"26";"1";"1";"8";"1";"[4,27,28,29,30]";"1";"8";"1"
"772";"24";"16";"1";"25";"1";"1";"8";"1";"[21,23,24]";"2";"0";"1"
"773";"35";"16";"1";"13";"1";"1";"8";"2";"[11,12,14,15]";"2";"0";"1"
"774";"39";"17";"1";"4";"1";"1";"8";"2";"[1,2,5,8,26,38]";"2";"2";"1"
"775";"13";"17";"1";"3";"1";"1";"8";"2";"[1,2]";"2";"12";"1"
"776";"37";"17";"1";"26";"1";"1";"8";"1";"[4,27,28,29,30]";"1";"8";"1"
"777";"33";"18";"1";"38";"1";"1";"8";"1";"[4,36,39,40]";"1";"0";"1"
"778";"1";"18";"1";"37";"1";"1";"8";"1";"[36,39,40]";"1";"0";"1"
"779";"39";"18";"1";"4";"1";"1";"8";"2";"[1,2,5,8,26,38]";"2";"1";"1"
"780";"33";"19";"1";"38";"1";"1";"8";"1";"[4,36,39,40]";"1";"0";"1"
"781";"1";"19";"1";"37";"1";"1";"8";"1";"[36,39,40]";"1";"0";"1"
"782";"13";"1";"1";"3";"1";"1";"9";"2";"[1,2]";"2";"0";"1"
"783";"7";"1";"1";"28";"1";"1";"9";"1";"[26,27,29]";"1";"0";"1"
"784";"3";"2";"1";"22";"1";"1";"9";"2";"[1,21,23,24]";"2";"0";"1"
"785";"40";"2";"1";"15";"1";"1";"9";"2";"[11,12,13,14,23,30]";"2";"0";"1"
"786";"6";"2";"1";"33";"1";"1";"9";"1";"[7,31,32,35]";"1";"0";"1"
"787";"13";"2";"1";"3";"1";"1";"9";"2";"[1,2]";"2";"0";"1"
"788";"20";"2";"1";"27";"1";"1";"9";"1";"[26,28,29,30]";"1";"0";"1"
"789";"7";"2";"1";"28";"1";"1";"9";"1";"[26,27,29]";"1";"0";"1"
"790";"21";"2";"1";"5";"1";"1";"9";"1";"[1,2,4,18]";"2";"0";"1"
"791";"23";"2";"1";"34";"1";"1";"9";"1";"[31,32]";"1";"0";"1"
"792";"33";"3";"1";"38";"1";"1";"9";"1";"[4,36,39,40]";"2";"0";"1"
"793";"3";"3";"1";"22";"1";"1";"9";"2";"[1,21,23,24]";"2";"0";"1"
"794";"4";"3";"1";"11";"1";"1";"9";"1";"[12,13,14,15]";"2";"0";"1"
"795";"18";"3";"1";"1";"1";"1";"9";"1";"[2,3,4,5,22]";"2";"0";"1"
"796";"40";"3";"1";"15";"1";"1";"9";"2";"[11,12,13,14,23,30]";"2";"0";"1"
"797";"22";"3";"1";"8";"1";"1";"9";"2";"[4,6,7,9]";"1";"0";"1"
"798";"6";"3";"1";"33";"1";"1";"9";"1";"[7,31,32,35]";"1";"0";"1"
"799";"20";"3";"1";"27";"1";"1";"9";"1";"[26,28,29,30]";"1";"0";"1"
"800";"21";"3";"1";"5";"1";"1";"9";"1";"[1,2,4,18]";"2";"0";"1"
"801";"23";"3";"1";"34";"1";"1";"9";"1";"[31,32]";"1";"0";"1"
"802";"1";"3";"1";"37";"1";"1";"9";"1";"[36,39,40]";"1";"0";"1"
"803";"37";"3";"1";"26";"1";"1";"9";"1";"[4,27,28,29,30]";"1";"0";"1"
"804";"33";"4";"1";"38";"1";"1";"9";"1";"[4,36,39,40]";"2";"0";"1"
"805";"4";"4";"1";"11";"1";"1";"9";"1";"[12,13,14,15]";"2";"0";"1"
"806";"18";"4";"1";"1";"1";"1";"9";"1";"[2,3,4,5,22]";"2";"0";"1"
"807";"36";"4";"1";"36";"1";"1";"9";"1";"[9,37,38,40]";"1";"0";"1"
"808";"11";"4";"1";"31";"1";"1";"9";"2";"[32,33,34,35]";"1";"0";"1"
"809";"8";"4";"1";"19";"1";"1";"9";"2";"[2,9,16,17,18,20]";"1";"0";"1"
"810";"5";"4";"1";"39";"1";"1";"9";"2";"[37,38,40]";"2";"0";"1"
"811";"22";"4";"1";"8";"1";"1";"9";"2";"[4,6,7,9]";"1";"0";"1"
"812";"38";"4";"1";"2";"1";"1";"9";"1";"[1,3,4,5,19]";"2";"0";"1"
"813";"34";"4";"1";"23";"1";"1";"9";"1";"[15,21,22,24,25]";"2";"0";"1"
"814";"1";"4";"1";"37";"1";"1";"9";"1";"[36,39,40]";"1";"0";"1"
"815";"16";"4";"1";"16";"1";"1";"9";"1";"[17,18,19,20]";"1";"0";"1"
"816";"37";"4";"1";"26";"1";"1";"9";"1";"[4,27,28,29,30]";"1";"0";"1"
"817";"36";"5";"1";"36";"1";"1";"9";"1";"[9,37,38,40]";"1";"0";"1"
"818";"11";"5";"1";"31";"1";"1";"9";"2";"[32,33,34,35]";"1";"0";"1"
"819";"8";"5";"1";"19";"1";"1";"9";"2";"[2,9,16,17,18,20]";"1";"0";"1"
"820";"32";"5";"1";"32";"1";"1";"9";"1";"[17,31,33,34,35]";"2";"0";"1"
"821";"5";"5";"1";"39";"1";"1";"9";"2";"[37,38,40]";"2";"0";"1"
"822";"24";"5";"1";"25";"1";"1";"9";"1";"[21,23,24]";"2";"0";"1"
"823";"38";"5";"1";"2";"1";"1";"9";"1";"[1,3,4,5,19]";"2";"0";"1"
"824";"34";"5";"1";"23";"1";"1";"9";"1";"[15,21,22,24,25]";"2";"0";"1"
"825";"17";"5";"1";"12";"1";"1";"9";"1";"[11,13,14,15]";"1";"0";"1"
"826";"28";"5";"1";"14";"1";"1";"9";"1";"[11,12,13,15]";"2";"0";"1"
"827";"16";"5";"1";"16";"1";"1";"9";"1";"[17,18,19,20]";"1";"0";"1"
"828";"19";"6";"1";"21";"1";"1";"9";"1";"[22,23,24,25]";"1";"0";"1"
"829";"32";"6";"1";"32";"1";"1";"9";"1";"[17,31,33,34,35]";"2";"0";"1"
"830";"24";"6";"1";"25";"1";"1";"9";"1";"[21,23,24]";"2";"0";"1"
"831";"2";"6";"1";"20";"1";"1";"9";"2";"[16,17,18,19]";"2";"0";"1"
"832";"17";"6";"1";"12";"1";"1";"9";"1";"[11,13,14,15]";"1";"0";"1"
"833";"28";"6";"1";"14";"1";"1";"9";"1";"[11,12,13,15]";"2";"0";"1"
"834";"19";"7";"1";"21";"1";"1";"9";"1";"[22,23,24,25]";"1";"0";"1"
"835";"14";"7";"1";"40";"1";"1";"9";"2";"[36,37,38,39]";"2";"0";"1"
"836";"2";"7";"1";"20";"1";"1";"9";"2";"[16,17,18,19]";"2";"0";"1"
"837";"30";"7";"1";"6";"1";"1";"9";"1";"[7,8,9]";"1";"0";"1"
"838";"35";"8";"1";"13";"1";"1";"9";"2";"[11,12,14,15]";"2";"0";"1"
"839";"29";"8";"1";"17";"1";"1";"9";"1";"[16,18,19,20,32]";"1";"0";"1"
"840";"14";"8";"1";"40";"1";"1";"9";"2";"[36,37,38,39]";"2";"0";"1"
"841";"30";"8";"1";"6";"1";"1";"9";"1";"[7,8,9]";"1";"0";"1"
"842";"35";"9";"1";"13";"1";"1";"9";"2";"[11,12,14,15]";"2";"0";"1"
"843";"29";"9";"1";"17";"1";"1";"9";"1";"[16,18,19,20,32]";"1";"0";"1"
"844";"9";"9";"1";"7";"1";"1";"9";"1";"[6,8,9,33]";"1";"0";"1"
"845";"26";"10";"1";"35";"1";"1";"9";"1";"[31,32,33]";"1";"0";"1"
"846";"27";"10";"1";"9";"1";"1";"9";"1";"[6,7,8,10,19,36]";"1";"0";"1"
"847";"9";"10";"1";"7";"1";"1";"9";"1";"[6,8,9,33]";"1";"0";"1"
"848";"26";"11";"1";"35";"1";"1";"9";"1";"[31,32,33]";"1";"0";"1"
"849";"39";"11";"1";"4";"1";"1";"9";"2";"[1,2,5,8,26,38]";"2";"0";"1"
"850";"27";"11";"1";"9";"1";"1";"9";"1";"[6,7,8,10,19,36]";"1";"0";"1"
"851";"31";"12";"1";"29";"1";"1";"9";"1";"[26,27,28]";"1";"0";"1"
"852";"39";"12";"1";"4";"1";"1";"9";"2";"[1,2,5,8,26,38]";"2";"0";"1"
"853";"25";"12";"1";"24";"1";"1";"9";"1";"[21,22,23,25]";"1";"0";"1"
"854";"15";"13";"1";"10";"1";"1";"9";"1";"[9]";"1";"0";"1"
"855";"31";"13";"1";"29";"1";"1";"9";"1";"[26,27,28]";"1";"0";"1"
"856";"25";"13";"1";"24";"1";"1";"9";"1";"[21,22,23,25]";"1";"0";"1"
"857";"15";"14";"1";"10";"1";"1";"9";"1";"[9]";"1";"0";"1"
"858";"10";"14";"1";"18";"1";"1";"9";"1";"[5,16,17,19,20]";"2";"0";"1"
"859";"10";"15";"1";"18";"1";"1";"9";"1";"[5,16,17,19,20]";"2";"0";"1"
"860";"12";"16";"1";"30";"1";"1";"9";"2";"[15,26,27]";"2";"0";"1"
"861";"12";"17";"1";"30";"1";"1";"9";"2";"[15,26,27]";"2";"0";"1"
"862";"7";"1";"1";"28";"1";"1";"10";"1";"[26,27,29]";"1";"0";"1"
"863";"18";"1";"1";"1";"1";"1";"10";"1";"[2,3,4,5,22]";"2";"0";"1"
"864";"33";"1";"1";"38";"1";"1";"10";"1";"[4,36,39,40]";"2";"0";"1"
"865";"6";"2";"1";"33";"1";"1";"10";"1";"[7,31,32,35]";"1";"0";"1"
"866";"29";"2";"1";"17";"1";"1";"10";"1";"[16,18,19,20,32]";"2";"0";"1"
"867";"7";"2";"1";"28";"1";"1";"10";"1";"[26,27,29]";"1";"0";"1"
"868";"36";"2";"1";"36";"1";"1";"10";"1";"[9,37,38,40]";"1";"0";"1"
"869";"18";"2";"1";"1";"1";"1";"10";"1";"[2,3,4,5,22]";"2";"0";"1"
"870";"3";"2";"1";"22";"1";"1";"10";"2";"[1,21,23,24]";"2";"0";"1"
"871";"13";"2";"1";"3";"1";"1";"10";"2";"[1,2]";"2";"0";"1"
"872";"33";"2";"1";"38";"1";"1";"10";"1";"[4,36,39,40]";"2";"0";"1"
"873";"20";"3";"1";"27";"1";"1";"10";"1";"[26,28,29,30]";"2";"0";"1"
"874";"27";"3";"1";"9";"1";"1";"10";"1";"[6,7,8,10,19,36]";"1";"0";"1"
"875";"6";"3";"1";"33";"1";"1";"10";"1";"[7,31,32,35]";"1";"0";"1"
"876";"22";"3";"1";"8";"1";"1";"10";"2";"[4,6,7,9]";"1";"0";"1"
"877";"29";"3";"1";"17";"1";"1";"10";"1";"[16,18,19,20,32]";"2";"0";"1"
"878";"24";"3";"1";"25";"1";"1";"10";"1";"[21,23,24]";"1";"0";"1"
"879";"14";"3";"1";"40";"1";"1";"10";"2";"[36,37,38,39]";"2";"0";"1"
"880";"36";"3";"1";"36";"1";"1";"10";"1";"[9,37,38,40]";"1";"0";"1"
"881";"21";"3";"1";"5";"1";"1";"10";"1";"[1,2,4,18]";"2";"0";"1"
"882";"30";"3";"1";"6";"1";"1";"10";"1";"[7,8,9]";"1";"0";"1"
"883";"3";"3";"1";"22";"1";"1";"10";"2";"[1,21,23,24]";"2";"0";"1"
"884";"13";"3";"1";"3";"1";"1";"10";"2";"[1,2]";"2";"0";"1"
"885";"37";"3";"1";"26";"1";"1";"10";"1";"[4,27,28,29,30]";"1";"0";"1"
"886";"28";"4";"1";"14";"1";"1";"10";"1";"[11,12,13,15]";"2";"0";"1"
"887";"20";"4";"1";"27";"1";"1";"10";"1";"[26,28,29,30]";"2";"0";"1"
"888";"27";"4";"1";"9";"1";"1";"10";"1";"[6,7,8,10,19,36]";"1";"0";"1"
"889";"22";"4";"1";"8";"1";"1";"10";"2";"[4,6,7,9]";"1";"0";"1"
"890";"23";"4";"1";"34";"1";"1";"10";"1";"[31,32]";"1";"0";"1"
"891";"5";"4";"1";"39";"1";"1";"10";"2";"[37,38,40]";"2";"0";"1"
"892";"24";"4";"1";"25";"1";"1";"10";"1";"[21,23,24]";"1";"0";"1"
"893";"14";"4";"1";"40";"1";"1";"10";"2";"[36,37,38,39]";"2";"0";"1"
"894";"21";"4";"1";"5";"1";"1";"10";"1";"[1,2,4,18]";"2";"0";"1"
"895";"8";"4";"1";"19";"1";"1";"10";"2";"[2,9,16,17,18,20]";"1";"0";"1"
"896";"15";"4";"1";"10";"1";"1";"10";"1";"[9]";"1";"0";"1"
"897";"39";"4";"1";"4";"1";"1";"10";"2";"[1,2,5,8,26,38]";"2";"0";"1"
"898";"30";"4";"1";"6";"1";"1";"10";"1";"[7,8,9]";"1";"0";"1"
"899";"37";"4";"1";"26";"1";"1";"10";"1";"[4,27,28,29,30]";"1";"0";"1"
"900";"28";"5";"1";"14";"1";"1";"10";"1";"[11,12,13,15]";"2";"0";"1"
"901";"4";"5";"1";"11";"1";"1";"10";"1";"[12,13,14,15]";"2";"0";"1"
"902";"23";"5";"1";"34";"1";"1";"10";"1";"[31,32]";"1";"0";"1"
"903";"5";"5";"1";"39";"1";"1";"10";"2";"[37,38,40]";"2";"0";"1"
"904";"31";"5";"1";"29";"1";"1";"10";"1";"[26,27,28]";"1";"0";"1"
"905";"8";"5";"1";"19";"1";"1";"10";"2";"[2,9,16,17,18,20]";"1";"0";"1"
"906";"34";"5";"1";"23";"1";"1";"10";"1";"[15,21,22,24,25]";"2";"0";"1"
"907";"15";"5";"1";"10";"1";"1";"10";"1";"[9]";"1";"0";"1"
"908";"39";"5";"1";"4";"1";"1";"10";"2";"[1,2,5,8,26,38]";"2";"0";"1"
"909";"12";"6";"1";"30";"1";"1";"10";"2";"[15,26,27]";"1";"0";"1"
"910";"4";"6";"1";"11";"1";"1";"10";"1";"[12,13,14,15]";"2";"0";"1"
"911";"1";"6";"1";"37";"1";"1";"10";"1";"[36,39,40]";"2";"0";"1"
"912";"31";"6";"1";"29";"1";"1";"10";"1";"[26,27,28]";"1";"0";"1"
"913";"34";"6";"1";"23";"1";"1";"10";"1";"[15,21,22,24,25]";"2";"0";"1"
"914";"11";"6";"1";"31";"1";"1";"10";"2";"[32,33,34,35]";"1";"0";"1"
"915";"12";"7";"1";"30";"1";"1";"10";"2";"[15,26,27]";"1";"0";"1"
"916";"16";"7";"1";"16";"1";"1";"10";"1";"[17,18,19,20]";"1";"0";"1"
"917";"32";"7";"1";"32";"1";"1";"10";"1";"[17,31,33,34,35]";"1";"0";"1"
"918";"1";"7";"1";"37";"1";"1";"10";"1";"[36,39,40]";"2";"0";"1"
"919";"19";"7";"1";"21";"1";"1";"10";"1";"[22,23,24,25]";"1";"0";"1"
"920";"8";"7";"1";"19";"1";"1";"10";"2";"[2,9,16,17,18,20]";"1";"8";"1"
"921";"11";"7";"1";"31";"1";"1";"10";"2";"[32,33,34,35]";"1";"0";"1"
"922";"16";"8";"1";"16";"1";"1";"10";"1";"[17,18,19,20]";"1";"0";"1"
"923";"17";"8";"1";"12";"1";"1";"10";"1";"[11,13,14,15]";"1";"0";"1"
"924";"32";"8";"1";"32";"1";"1";"10";"1";"[17,31,33,34,35]";"1";"0";"1"
"925";"25";"8";"1";"24";"1";"1";"10";"1";"[21,22,23,25]";"2";"0";"1"
"926";"19";"8";"1";"21";"1";"1";"10";"1";"[22,23,24,25]";"1";"0";"1"
"927";"40";"8";"1";"15";"1";"1";"10";"2";"[11,12,13,14,23,30]";"2";"0";"1"
"928";"17";"9";"1";"12";"1";"1";"10";"1";"[11,13,14,15]";"1";"0";"1"
"929";"8";"9";"1";"19";"1";"1";"10";"2";"[2,9,16,17,18,20]";"1";"7";"1"
"930";"25";"9";"1";"24";"1";"1";"10";"1";"[21,22,23,25]";"2";"0";"1"
"931";"40";"10";"1";"15";"1";"1";"10";"2";"[11,12,13,14,23,30]";"2";"0";"1"
"932";"8";"10";"1";"19";"1";"1";"10";"2";"[2,9,16,17,18,20]";"1";"8";"1"
"933";"8";"11";"1";"19";"1";"1";"10";"2";"[2,9,16,17,18,20]";"1";"9";"1"
"934";"38";"11";"1";"2";"1";"1";"10";"1";"[1,3,4,5,19]";"1";"0";"1"
"935";"2";"12";"1";"20";"1";"1";"10";"2";"[16,17,18,19]";"2";"0";"1"
"936";"38";"12";"1";"2";"1";"1";"10";"1";"[1,3,4,5,19]";"1";"0";"1"
"937";"9";"12";"1";"7";"1";"1";"10";"1";"[6,8,9,33]";"1";"0";"1"
"938";"35";"12";"1";"13";"1";"1";"10";"2";"[11,12,14,15]";"2";"0";"1"
"939";"26";"13";"1";"35";"1";"1";"10";"1";"[31,32,33]";"1";"0";"1"
"940";"2";"13";"1";"20";"1";"1";"10";"2";"[16,17,18,19]";"2";"0";"1"
"941";"9";"13";"1";"7";"1";"1";"10";"1";"[6,8,9,33]";"1";"0";"1"
"942";"35";"14";"1";"13";"1";"1";"10";"2";"[11,12,14,15]";"2";"0";"1"
"943";"26";"14";"1";"35";"1";"1";"10";"1";"[31,32,33]";"1";"0";"1"
"944";"10";"18";"1";"18";"1";"1";"10";"1";"[5,16,17,19,20]";"2";"0";"1"
"945";"10";"19";"1";"18";"1";"1";"10";"1";"[5,16,17,19,20]";"2";"0";"1"
"946";"7";"1";"1";"28";"1";"1";"11";"1";"[26,27,29]";"1";"0";"1"
"947";"18";"1";"1";"1";"1";"1";"11";"1";"[2,3,4,5,22]";"2";"0";"1"
"948";"23";"1";"1";"34";"1";"1";"11";"1";"[31,32]";"1";"0";"1"
"949";"16";"2";"1";"16";"1";"1";"11";"1";"[17,18,19,20]";"2";"0";"1"
"950";"11";"2";"1";"31";"1";"1";"11";"2";"[32,33,34,35]";"1";"0";"1"
"951";"38";"2";"1";"2";"1";"1";"11";"1";"[1,3,4,5,19]";"2";"0";"1"
"952";"17";"2";"1";"12";"1";"1";"11";"1";"[11,13,14,15]";"1";"0";"1"
"953";"6";"2";"1";"33";"1";"1";"11";"1";"[7,31,32,35]";"1";"0";"1"
"954";"22";"2";"1";"8";"1";"1";"11";"2";"[4,6,7,9]";"1";"0";"1"
"955";"14";"2";"1";"40";"1";"1";"11";"2";"[36,37,38,39]";"2";"0";"1"
"956";"7";"2";"1";"28";"1";"1";"11";"1";"[26,27,29]";"1";"0";"1"
"957";"3";"2";"1";"22";"1";"1";"11";"2";"[1,21,23,24]";"2";"0";"1"
"958";"18";"2";"1";"1";"1";"1";"11";"1";"[2,3,4,5,22]";"2";"0";"1"
"959";"31";"2";"1";"29";"1";"1";"11";"1";"[26,27,28]";"1";"0";"1"
"960";"12";"2";"1";"30";"1";"1";"11";"2";"[15,26,27]";"2";"0";"1"
"961";"20";"2";"1";"27";"1";"1";"11";"1";"[26,28,29,30]";"1";"0";"1"
"962";"23";"2";"1";"34";"1";"1";"11";"1";"[31,32]";"1";"0";"1"
"963";"27";"3";"1";"9";"1";"1";"11";"1";"[6,7,8,10,19,36]";"1";"0";"1"
"964";"16";"3";"1";"16";"1";"1";"11";"1";"[17,18,19,20]";"2";"0";"1"
"965";"11";"3";"1";"31";"1";"1";"11";"2";"[32,33,34,35]";"1";"0";"1"
"966";"21";"3";"1";"5";"1";"1";"11";"1";"[1,2,4,18]";"2";"0";"1"
"967";"8";"3";"1";"19";"1";"1";"11";"2";"[2,9,16,17,18,20]";"1";"0";"1"
"968";"13";"3";"1";"3";"1";"1";"11";"2";"[1,2]";"2";"0";"1"
"969";"38";"3";"1";"2";"1";"1";"11";"1";"[1,3,4,5,19]";"2";"0";"1"
"970";"17";"3";"1";"12";"1";"1";"11";"1";"[11,13,14,15]";"1";"0";"1"
"971";"6";"3";"1";"33";"1";"1";"11";"1";"[7,31,32,35]";"1";"0";"1"
"972";"22";"3";"1";"8";"1";"1";"11";"2";"[4,6,7,9]";"1";"0";"1"
"973";"28";"3";"1";"14";"1";"1";"11";"1";"[11,12,13,15]";"2";"0";"1"
"974";"14";"3";"1";"40";"1";"1";"11";"2";"[36,37,38,39]";"2";"0";"1"
"975";"3";"3";"1";"22";"1";"1";"11";"2";"[1,21,23,24]";"2";"0";"1"
"976";"31";"3";"1";"29";"1";"1";"11";"1";"[26,27,28]";"1";"0";"1"
"977";"12";"3";"1";"30";"1";"1";"11";"2";"[15,26,27]";"2";"0";"1"
"978";"25";"3";"1";"24";"1";"1";"11";"1";"[21,22,23,25]";"2";"0";"1"
"979";"20";"3";"1";"27";"1";"1";"11";"1";"[26,28,29,30]";"1";"0";"1"
"980";"34";"3";"1";"23";"1";"1";"11";"1";"[15,21,22,24,25]";"2";"0";"1"
"981";"37";"3";"1";"26";"1";"1";"11";"1";"[4,27,28,29,30]";"1";"0";"1"
"982";"19";"3";"1";"21";"1";"1";"11";"1";"[22,23,24,25]";"2";"0";"1"
"983";"2";"4";"1";"20";"1";"1";"11";"2";"[16,17,18,19]";"2";"0";"1"
"984";"27";"4";"1";"9";"1";"1";"11";"1";"[6,7,8,10,19,36]";"1";"0";"1"
"985";"21";"4";"1";"5";"1";"1";"11";"1";"[1,2,4,18]";"2";"0";"1"
"986";"8";"4";"1";"19";"1";"1";"11";"2";"[2,9,16,17,18,20]";"1";"0";"1"
"987";"13";"4";"1";"3";"1";"1";"11";"2";"[1,2]";"2";"0";"1"
"988";"28";"4";"1";"14";"1";"1";"11";"1";"[11,12,13,15]";"2";"0";"1"
"989";"25";"4";"1";"24";"1";"1";"11";"1";"[21,22,23,25]";"2";"0";"1"
"990";"34";"4";"1";"23";"1";"1";"11";"1";"[15,21,22,24,25]";"2";"0";"1"
"991";"30";"4";"1";"6";"1";"1";"11";"1";"[7,8,9]";"1";"0";"1"
"992";"37";"4";"1";"26";"1";"1";"11";"1";"[4,27,28,29,30]";"1";"0";"1"
"993";"32";"4";"1";"32";"1";"1";"11";"1";"[17,31,33,34,35]";"1";"0";"1"
"994";"19";"4";"1";"21";"1";"1";"11";"1";"[22,23,24,25]";"2";"0";"1"
"995";"1";"4";"1";"37";"1";"1";"11";"1";"[36,39,40]";"2";"0";"1"
"996";"2";"5";"1";"20";"1";"1";"11";"2";"[16,17,18,19]";"2";"0";"1"
"997";"40";"5";"1";"15";"1";"1";"11";"2";"[11,12,13,14,23,30]";"2";"0";"1"
"998";"30";"5";"1";"6";"1";"1";"11";"1";"[7,8,9]";"1";"0";"1"
"999";"24";"5";"1";"25";"1";"1";"11";"1";"[21,23,24]";"1";"0";"1"
"1000";"32";"5";"1";"32";"1";"1";"11";"1";"[17,31,33,34,35]";"1";"0";"1"
"1001";"15";"5";"1";"10";"1";"1";"11";"1";"[9]";"1";"0";"1"
"1002";"1";"5";"1";"37";"1";"1";"11";"1";"[36,39,40]";"2";"0";"1"
"1003";"40";"6";"1";"15";"1";"1";"11";"2";"[11,12,13,14,23,30]";"2";"0";"1"
"1004";"26";"6";"1";"35";"1";"1";"11";"1";"[31,32,33]";"1";"0";"1"
"1005";"24";"6";"1";"25";"1";"1";"11";"1";"[21,23,24]";"1";"0";"1"
"1006";"15";"6";"1";"10";"1";"1";"11";"1";"[9]";"1";"0";"1"
"1007";"39";"7";"1";"4";"1";"1";"11";"2";"[1,2,5,8,26,38]";"2";"0";"1"
"1008";"5";"7";"1";"39";"1";"1";"11";"2";"[37,38,40]";"2";"0";"1"
"1009";"26";"7";"1";"35";"1";"1";"11";"1";"[31,32,33]";"1";"0";"1"
"1010";"8";"7";"1";"19";"1";"1";"11";"2";"[2,9,16,17,18,20]";"1";"9";"1"
"1011";"39";"8";"1";"4";"1";"1";"11";"2";"[1,2,5,8,26,38]";"2";"0";"1"
"1012";"5";"8";"1";"39";"1";"1";"11";"2";"[37,38,40]";"2";"0";"1"
"1013";"35";"9";"1";"13";"1";"1";"11";"2";"[11,12,14,15]";"2";"0";"1"
"1014";"33";"9";"1";"38";"1";"1";"11";"1";"[4,36,39,40]";"2";"0";"1"
"1015";"8";"10";"1";"19";"1";"1";"11";"2";"[2,9,16,17,18,20]";"1";"10";"1"
"1016";"35";"10";"1";"13";"1";"1";"11";"2";"[11,12,14,15]";"2";"0";"1"
"1017";"33";"10";"1";"38";"1";"1";"11";"1";"[4,36,39,40]";"2";"0";"1"
"1018";"36";"10";"1";"36";"1";"1";"11";"1";"[9,37,38,40]";"2";"0";"1"
"1019";"29";"11";"1";"17";"1";"1";"11";"1";"[16,18,19,20,32]";"2";"0";"1"
"1020";"9";"11";"1";"7";"1";"1";"11";"1";"[6,8,9,33]";"2";"0";"1"
"1021";"36";"11";"1";"36";"1";"1";"11";"1";"[9,37,38,40]";"2";"0";"1"
"1022";"29";"12";"1";"17";"1";"1";"11";"1";"[16,18,19,20,32]";"2";"0";"1"
"1023";"9";"12";"1";"7";"1";"1";"11";"1";"[6,8,9,33]";"2";"0";"1"
"1024";"10";"12";"1";"18";"1";"1";"11";"1";"[5,16,17,19,20]";"2";"0";"1"
"1025";"4";"13";"1";"11";"1";"1";"11";"1";"[12,13,14,15]";"1";"0";"1"
"1026";"10";"13";"1";"18";"1";"1";"11";"1";"[5,16,17,19,20]";"2";"0";"1"
"1027";"4";"14";"1";"11";"1";"1";"11";"1";"[12,13,14,15]";"1";"0";"1"
"1028";"40";"0";"1";"15";"1";"1";"12";"2";"[11,12,13,14,23,30]";"2";"0";"1"
"1029";"29";"1";"1";"17";"1";"1";"12";"1";"[16,18,19,20,32]";"1";"0";"1"
"1030";"18";"1";"1";"1";"1";"1";"12";"1";"[2,3,4,5,22]";"2";"0";"1"
"1031";"7";"1";"1";"28";"1";"1";"12";"1";"[26,27,29]";"1";"0";"1"
"1032";"3";"1";"1";"22";"1";"1";"12";"2";"[1,21,23,24]";"2";"0";"1"
"1033";"40";"1";"1";"15";"1";"1";"12";"2";"[11,12,13,14,23,30]";"2";"0";"1"
"1034";"21";"1";"1";"5";"1";"1";"12";"1";"[1,2,4,18]";"2";"0";"1"
"1035";"6";"2";"1";"33";"1";"1";"12";"1";"[7,31,32,35]";"1";"0";"1"
"1036";"14";"2";"1";"40";"1";"1";"12";"2";"[36,37,38,39]";"2";"0";"1"
"1037";"29";"2";"1";"17";"1";"1";"12";"1";"[16,18,19,20,32]";"1";"0";"1"
"1038";"5";"2";"1";"39";"1";"1";"12";"2";"[37,38,40]";"2";"0";"1"
"1039";"34";"2";"1";"23";"1";"1";"12";"1";"[15,21,22,24,25]";"2";"0";"1"
"1040";"18";"2";"1";"1";"1";"1";"12";"1";"[2,3,4,5,22]";"2";"0";"1"
"1041";"31";"2";"1";"29";"1";"1";"12";"1";"[26,27,28]";"1";"0";"1"
"1042";"7";"2";"1";"28";"1";"1";"12";"1";"[26,27,29]";"1";"0";"1"
"1043";"23";"2";"1";"34";"1";"1";"12";"1";"[31,32]";"1";"0";"1"
"1044";"3";"2";"1";"22";"1";"1";"12";"2";"[1,21,23,24]";"2";"0";"1"
"1045";"38";"2";"1";"2";"1";"1";"12";"1";"[1,3,4,5,19]";"2";"0";"1"
"1046";"2";"2";"1";"20";"1";"1";"12";"2";"[16,17,18,19]";"2";"0";"1"
"1047";"21";"2";"1";"5";"1";"1";"12";"1";"[1,2,4,18]";"2";"0";"1"
"1048";"6";"3";"1";"33";"1";"1";"12";"1";"[7,31,32,35]";"1";"0";"1"
"1049";"14";"3";"1";"40";"1";"1";"12";"2";"[36,37,38,39]";"2";"0";"1"
"1050";"5";"3";"1";"39";"1";"1";"12";"2";"[37,38,40]";"2";"0";"1"
"1051";"34";"3";"1";"23";"1";"1";"12";"1";"[15,21,22,24,25]";"2";"0";"1"
"1052";"13";"3";"1";"3";"1";"1";"12";"2";"[1,2]";"2";"0";"1"
"1053";"17";"3";"1";"12";"1";"1";"12";"1";"[11,13,14,15]";"1";"0";"1"
"1054";"31";"3";"1";"29";"1";"1";"12";"1";"[26,27,28]";"1";"0";"1"
"1055";"11";"3";"1";"31";"1";"1";"12";"2";"[32,33,34,35]";"1";"0";"1"
"1056";"23";"3";"1";"34";"1";"1";"12";"1";"[31,32]";"1";"0";"1"
"1057";"33";"3";"1";"38";"1";"1";"12";"1";"[4,36,39,40]";"2";"0";"1"
"1058";"1";"3";"1";"37";"1";"1";"12";"1";"[36,39,40]";"1";"0";"1"
"1059";"38";"3";"1";"2";"1";"1";"12";"1";"[1,3,4,5,19]";"2";"0";"1"
"1060";"19";"3";"1";"21";"1";"1";"12";"1";"[22,23,24,25]";"2";"0";"1"
"1061";"2";"3";"1";"20";"1";"1";"12";"2";"[16,17,18,19]";"2";"0";"1"
"1062";"32";"4";"1";"32";"1";"1";"12";"1";"[17,31,33,34,35]";"1";"0";"1"
"1063";"12";"4";"1";"30";"1";"1";"12";"2";"[15,26,27]";"2";"0";"1"
"1064";"13";"4";"1";"3";"1";"1";"12";"2";"[1,2]";"2";"0";"1"
"1065";"17";"4";"1";"12";"1";"1";"12";"1";"[11,13,14,15]";"1";"0";"1"
"1066";"11";"4";"1";"31";"1";"1";"12";"2";"[32,33,34,35]";"1";"0";"1"
"1067";"33";"4";"1";"38";"1";"1";"12";"1";"[4,36,39,40]";"2";"0";"1"
"1068";"1";"4";"1";"37";"1";"1";"12";"1";"[36,39,40]";"1";"0";"1"
"1069";"19";"4";"1";"21";"1";"1";"12";"1";"[22,23,24,25]";"2";"0";"1"
"1070";"26";"5";"1";"35";"1";"1";"12";"1";"[31,32,33]";"1";"0";"1"
"1071";"32";"5";"1";"32";"1";"1";"12";"1";"[17,31,33,34,35]";"1";"0";"1"
"1072";"12";"5";"1";"30";"1";"1";"12";"2";"[15,26,27]";"2";"0";"1"
"1073";"16";"5";"1";"16";"1";"1";"12";"1";"[17,18,19,20]";"2";"0";"1"
"1074";"20";"5";"1";"27";"1";"1";"12";"1";"[26,28,29,30]";"1";"0";"1"
"1075";"8";"5";"1";"19";"1";"1";"12";"2";"[2,9,16,17,18,20]";"1";"0";"1"
"1076";"25";"5";"1";"24";"1";"1";"12";"1";"[21,22,23,25]";"1";"0";"1"
"1077";"26";"6";"1";"35";"1";"1";"12";"1";"[31,32,33]";"1";"0";"1"
"1078";"16";"6";"1";"16";"1";"1";"12";"1";"[17,18,19,20]";"2";"0";"1"
"1079";"20";"6";"1";"27";"1";"1";"12";"1";"[26,28,29,30]";"1";"0";"1"
"1080";"30";"6";"1";"6";"1";"1";"12";"1";"[7,8,9]";"1";"0";"1"
"1081";"39";"6";"1";"4";"1";"1";"12";"2";"[1,2,5,8,26,38]";"2";"0";"1"
"1082";"37";"6";"1";"26";"1";"1";"12";"1";"[4,27,28,29,30]";"1";"0";"1"
"1083";"22";"6";"1";"8";"1";"1";"12";"2";"[4,6,7,9]";"1";"0";"1"
"1084";"8";"6";"1";"19";"1";"1";"12";"2";"[2,9,16,17,18,20]";"1";"0";"1"
"1085";"25";"6";"1";"24";"1";"1";"12";"1";"[21,22,23,25]";"1";"0";"1"
"1086";"27";"6";"1";"9";"1";"1";"12";"1";"[6,7,8,10,19,36]";"1";"0";"1"
"1087";"34";"7";"1";"23";"1";"1";"12";"1";"[15,21,22,24,25]";"2";"1";"1"
"1088";"30";"7";"1";"6";"1";"1";"12";"1";"[7,8,9]";"1";"0";"1"
"1089";"39";"7";"1";"4";"1";"1";"12";"2";"[1,2,5,8,26,38]";"2";"0";"1"
"1090";"37";"7";"1";"26";"1";"1";"12";"1";"[4,27,28,29,30]";"1";"0";"1"
"1091";"22";"7";"1";"8";"1";"1";"12";"2";"[4,6,7,9]";"1";"0";"1"
"1092";"27";"7";"1";"9";"1";"1";"12";"1";"[6,7,8,10,19,36]";"1";"0";"1"
"1093";"28";"8";"1";"14";"1";"1";"12";"1";"[11,12,13,15]";"2";"0";"1"
"1094";"24";"8";"1";"25";"1";"1";"12";"1";"[21,23,24]";"1";"0";"1"
"1095";"8";"8";"1";"19";"1";"1";"12";"2";"[2,9,16,17,18,20]";"1";"10";"1"
"1096";"9";"8";"1";"7";"1";"1";"12";"1";"[6,8,9,33]";"1";"0";"1"
"1097";"28";"9";"1";"14";"1";"1";"12";"1";"[11,12,13,15]";"2";"0";"1"
"1098";"24";"9";"1";"25";"1";"1";"12";"1";"[21,23,24]";"1";"0";"1"
"1099";"4";"9";"1";"11";"1";"1";"12";"1";"[12,13,14,15]";"1";"0";"1"
"1100";"8";"9";"1";"19";"1";"1";"12";"2";"[2,9,16,17,18,20]";"1";"9";"1"
"1101";"10";"9";"1";"18";"1";"1";"12";"1";"[5,16,17,19,20]";"2";"0";"1"
"1102";"36";"9";"1";"36";"1";"1";"12";"1";"[9,37,38,40]";"2";"0";"1"
"1103";"9";"9";"1";"7";"1";"1";"12";"1";"[6,8,9,33]";"1";"0";"1"
"1104";"4";"10";"1";"11";"1";"1";"12";"1";"[12,13,14,15]";"1";"0";"1"
"1105";"8";"10";"1";"19";"1";"1";"12";"2";"[2,9,16,17,18,20]";"1";"11";"1"
"1106";"10";"10";"1";"18";"1";"1";"12";"1";"[5,16,17,19,20]";"2";"0";"1"
"1107";"15";"10";"1";"10";"1";"1";"12";"1";"[9]";"1";"0";"1"
"1108";"36";"10";"1";"36";"1";"1";"12";"1";"[9,37,38,40]";"2";"0";"1"
"1109";"15";"11";"1";"10";"1";"1";"12";"1";"[9]";"1";"0";"1"
"1110";"34";"12";"1";"23";"1";"1";"12";"1";"[15,21,22,24,25]";"2";"10";"1"
"1111";"8";"13";"1";"19";"1";"1";"12";"2";"[2,9,16,17,18,20]";"1";"12";"1"
"1112";"34";"13";"1";"23";"1";"1";"12";"1";"[15,21,22,24,25]";"2";"11";"1"
"1113";"35";"14";"1";"13";"1";"1";"12";"2";"[11,12,14,15]";"2";"0";"1"
"1114";"34";"15";"1";"23";"1";"1";"12";"1";"[15,21,22,24,25]";"2";"12";"1"
"1115";"35";"15";"1";"13";"1";"1";"12";"2";"[11,12,14,15]";"2";"0";"1"
"1116";"14";"0";"1";"24";"1";"2";"12";"2";"[21,22,23,25]";"1";"0";"1"
"1117";"22";"0";"1";"39";"1";"2";"12";"2";"[37,38,40]";"2";"0";"1"
"1118";"18";"0";"1";"26";"1";"2";"12";"2";"[4,27,28,29,30]";"1";"0";"1"
"1119";"20";"0";"1";"20";"1";"2";"12";"1";"[16,17,18,19]";"2";"0";"1"
"1120";"27";"0";"1";"14";"1";"2";"12";"2";"[11,12,13,15]";"2";"0";"1"
"1121";"25";"0";"1";"22";"1";"2";"12";"2";"[1,21,23,24]";"2";"0";"1"
"1122";"7";"0";"1";"17";"1";"2";"12";"2";"[16,18,19,20,32]";"1";"0";"1"
"1123";"4";"0";"1";"30";"1";"2";"12";"2";"[15,26,27]";"2";"0";"1"
"1124";"11";"0";"1";"31";"1";"2";"12";"2";"[32,33,34,35]";"1";"0";"1"
"1125";"3";"0";"1";"34";"1";"2";"12";"1";"[31,32]";"1";"0";"1"
"1126";"29";"0";"1";"29";"1";"2";"12";"2";"[26,27,28]";"1";"0";"1"
"1127";"6";"0";"1";"12";"1";"2";"12";"2";"[11,13,14,15]";"1";"0";"1"
"1128";"2";"0";"1";"19";"1";"2";"12";"1";"[2,9,16,17,18,20]";"1";"12";"1"
"1129";"16";"0";"1";"7";"1";"2";"12";"2";"[6,8,9,33]";"1";"0";"1"
"1130";"23";"0";"1";"37";"1";"2";"12";"2";"[36,39,40]";"1";"0";"1"
"1131";"39";"0";"1";"4";"1";"2";"12";"2";"[1,2,5,8,26,38]";"2";"0";"1"
"1132";"26";"0";"1";"27";"1";"2";"12";"1";"[26,28,29,30]";"1";"0";"1"
"1133";"17";"0";"1";"23";"1";"2";"12";"2";"[15,21,22,24,25]";"2";"12";"1"
"1134";"32";"0";"1";"16";"1";"2";"12";"1";"[17,18,19,20]";"2";"0";"1"
"1135";"34";"0";"1";"1";"1";"2";"12";"2";"[2,3,4,5,22]";"2";"0";"1"
"1136";"21";"0";"1";"8";"1";"2";"12";"2";"[4,6,7,9]";"1";"0";"1"
"1137";"37";"0";"1";"28";"1";"2";"12";"1";"[26,27,29]";"1";"0";"1"
"1138";"8";"0";"1";"36";"1";"2";"12";"2";"[9,37,38,40]";"2";"0";"1"
"1139";"19";"0";"1";"32";"1";"2";"12";"1";"[17,31,33,34,35]";"1";"0";"1"
"1140";"36";"0";"1";"2";"1";"2";"12";"1";"[1,3,4,5,19]";"2";"0";"1"
"1141";"13";"0";"1";"38";"1";"2";"12";"2";"[4,36,39,40]";"2";"0";"1"
"1142";"24";"0";"1";"35";"1";"2";"12";"1";"[31,32,33]";"1";"0";"1"
"1143";"9";"0";"1";"21";"1";"2";"12";"2";"[22,23,24,25]";"2";"0";"1"
"1144";"31";"0";"1";"15";"1";"2";"12";"1";"[11,12,13,14,23,30]";"2";"0";"1"
"1145";"12";"0";"1";"9";"1";"2";"12";"2";"[6,7,8,10,19,36]";"1";"0";"1"
"1146";"10";"0";"1";"25";"1";"2";"12";"1";"[21,23,24]";"1";"0";"1"
"1147";"40";"0";"1";"11";"1";"2";"12";"2";"[12,13,14,15]";"1";"0";"1"
"1148";"28";"0";"1";"6";"1";"2";"12";"1";"[7,8,9]";"1";"0";"1"
"1149";"5";"0";"1";"10";"1";"2";"12";"2";"[9]";"1";"0";"1"
"1150";"30";"0";"1";"3";"1";"2";"12";"2";"[1,2]";"2";"0";"1"
"1151";"38";"0";"1";"33";"1";"2";"12";"2";"[7,31,32,35]";"1";"0";"1"
"1152";"1";"0";"1";"18";"1";"2";"12";"2";"[5,16,17,19,20]";"2";"0";"1"
"1153";"33";"0";"1";"13";"1";"2";"12";"1";"[11,12,14,15]";"2";"0";"1"
"1154";"35";"0";"1";"5";"1";"2";"12";"2";"[1,2,4,18]";"2";"0";"1"
"1155";"15";"0";"1";"40";"1";"2";"12";"2";"[36,37,38,39]";"2";"0";"1"
"1156";"40";"1";"1";"11";"1";"2";"1";"2";"[12,13,14,15]";"2";"0";"1"
"1157";"34";"2";"1";"1";"1";"2";"1";"2";"[2,3,4,5,22]";"2";"0";"1"
"1158";"11";"2";"1";"31";"1";"2";"1";"2";"[32,33,34,35]";"2";"0";"1"
"1159";"15";"2";"1";"40";"1";"2";"1";"2";"[36,37,38,39]";"2";"0";"1"
"1160";"7";"2";"1";"17";"1";"2";"1";"2";"[16,18,19,20,32]";"2";"0";"1"
"1161";"40";"2";"1";"11";"1";"2";"1";"2";"[12,13,14,15]";"2";"0";"1"
"1162";"23";"2";"1";"37";"1";"2";"1";"2";"[36,39,40]";"2";"0";"1"
"1163";"10";"2";"1";"25";"1";"2";"1";"1";"[21,23,24]";"1";"0";"1"
"1164";"2";"2";"1";"19";"1";"2";"1";"1";"[2,9,16,17,18,20]";"1";"0";"1"
"1165";"34";"3";"1";"1";"1";"2";"1";"2";"[2,3,4,5,22]";"2";"0";"1"
"1166";"11";"3";"1";"31";"1";"2";"1";"2";"[32,33,34,35]";"2";"0";"1"
"1167";"15";"3";"1";"40";"1";"2";"1";"2";"[36,37,38,39]";"2";"0";"1"
"1168";"7";"3";"1";"17";"1";"2";"1";"2";"[16,18,19,20,32]";"2";"0";"1"
"1169";"23";"3";"1";"37";"1";"2";"1";"2";"[36,39,40]";"2";"0";"1"
"1170";"4";"3";"1";"30";"1";"2";"1";"2";"[15,26,27]";"2";"0";"1"
"1171";"3";"3";"1";"34";"1";"2";"1";"1";"[31,32]";"1";"0";"1"
"1172";"16";"3";"1";"7";"1";"2";"1";"2";"[6,8,9,33]";"2";"0";"1"
"1173";"10";"3";"1";"25";"1";"2";"1";"1";"[21,23,24]";"1";"0";"1"
"1174";"2";"3";"1";"19";"1";"2";"1";"1";"[2,9,16,17,18,20]";"1";"0";"1"
"1175";"26";"3";"1";"27";"1";"2";"1";"1";"[26,28,29,30]";"1";"0";"1"
"1176";"27";"4";"1";"14";"1";"2";"1";"2";"[11,12,13,15]";"2";"0";"1"
"1177";"18";"4";"1";"26";"1";"2";"1";"2";"[4,27,28,29,30]";"2";"0";"1"
"1178";"4";"4";"1";"30";"1";"2";"1";"2";"[15,26,27]";"2";"0";"1"
"1179";"16";"4";"1";"7";"1";"2";"1";"2";"[6,8,9,33]";"2";"0";"1"
"1180";"3";"4";"1";"34";"1";"2";"1";"1";"[31,32]";"1";"0";"1"
"1181";"20";"4";"1";"20";"1";"2";"1";"1";"[16,17,18,19]";"1";"0";"1"
"1182";"14";"4";"1";"24";"1";"2";"1";"2";"[21,22,23,25]";"2";"0";"1"
"1183";"13";"4";"1";"38";"1";"2";"1";"2";"[4,36,39,40]";"2";"0";"1"
"1184";"26";"4";"1";"27";"1";"2";"1";"1";"[26,28,29,30]";"1";"0";"1"
"1185";"29";"5";"1";"29";"1";"2";"1";"2";"[26,27,28]";"1";"0";"1"
"1186";"39";"5";"1";"4";"1";"2";"1";"2";"[1,2,5,8,26,38]";"2";"0";"1"
"1187";"30";"5";"1";"3";"1";"2";"1";"2";"[1,2]";"2";"0";"1"
"1188";"22";"5";"1";"39";"1";"2";"1";"2";"[37,38,40]";"2";"0";"1"
"1189";"27";"5";"1";"14";"1";"2";"1";"2";"[11,12,13,15]";"2";"0";"1"
"1190";"33";"5";"1";"13";"1";"2";"1";"1";"[11,12,14,15]";"1";"0";"1"
"1191";"18";"5";"1";"26";"1";"2";"1";"2";"[4,27,28,29,30]";"2";"0";"1"
"1192";"19";"5";"1";"32";"1";"2";"1";"1";"[17,31,33,34,35]";"1";"0";"1"
"1193";"20";"5";"1";"20";"1";"2";"1";"1";"[16,17,18,19]";"1";"0";"1"
"1194";"14";"5";"1";"24";"1";"2";"1";"2";"[21,22,23,25]";"2";"0";"1"
"1195";"13";"5";"1";"38";"1";"2";"1";"2";"[4,36,39,40]";"2";"0";"1"
"1196";"21";"5";"1";"8";"1";"2";"1";"2";"[4,6,7,9]";"2";"0";"1"
"1197";"31";"5";"1";"15";"1";"2";"1";"1";"[11,12,13,14,23,30]";"1";"0";"1"
"1198";"29";"6";"1";"29";"1";"2";"1";"2";"[26,27,28]";"1";"0";"1"
"1199";"39";"6";"1";"4";"1";"2";"1";"2";"[1,2,5,8,26,38]";"2";"0";"1"
"1200";"30";"6";"1";"3";"1";"2";"1";"2";"[1,2]";"2";"0";"1"
"1201";"22";"6";"1";"39";"1";"2";"1";"2";"[37,38,40]";"2";"0";"1"
"1202";"33";"6";"1";"13";"1";"2";"1";"1";"[11,12,14,15]";"1";"0";"1"
"1203";"19";"6";"1";"32";"1";"2";"1";"1";"[17,31,33,34,35]";"1";"0";"1"
"1204";"9";"6";"1";"21";"1";"2";"1";"2";"[22,23,24,25]";"2";"0";"1"
"1205";"25";"6";"1";"22";"1";"2";"1";"2";"[1,21,23,24]";"1";"0";"1"
"1206";"21";"6";"1";"8";"1";"2";"1";"2";"[4,6,7,9]";"2";"0";"1"
"1207";"31";"6";"1";"15";"1";"2";"1";"1";"[11,12,13,14,23,30]";"1";"0";"1"
"1208";"38";"6";"1";"33";"1";"2";"1";"2";"[7,31,32,35]";"1";"0";"1"
"1209";"36";"7";"1";"2";"1";"2";"1";"1";"[1,3,4,5,19]";"2";"0";"1"
"1210";"32";"7";"1";"16";"1";"2";"1";"1";"[17,18,19,20]";"1";"0";"1"
"1211";"1";"7";"1";"18";"1";"2";"1";"2";"[5,16,17,19,20]";"2";"0";"1"
"1212";"6";"7";"1";"12";"1";"2";"1";"2";"[11,13,14,15]";"2";"0";"1"
"1213";"17";"7";"1";"23";"1";"2";"1";"2";"[15,21,22,24,25]";"2";"0";"1"
"1214";"9";"7";"1";"21";"1";"2";"1";"2";"[22,23,24,25]";"2";"0";"1"
"1215";"24";"7";"1";"35";"1";"2";"1";"1";"[31,32,33]";"2";"0";"1"
"1216";"25";"7";"1";"22";"1";"2";"1";"2";"[1,21,23,24]";"1";"0";"1"
"1217";"12";"7";"1";"9";"1";"2";"1";"2";"[6,7,8,10,19,36]";"2";"0";"1"
"1218";"38";"7";"1";"33";"1";"2";"1";"2";"[7,31,32,35]";"1";"0";"1"
"1219";"5";"8";"1";"10";"1";"2";"1";"2";"[9]";"2";"0";"1"
"1220";"36";"8";"1";"2";"1";"2";"1";"1";"[1,3,4,5,19]";"2";"0";"1"
"1221";"32";"8";"1";"16";"1";"2";"1";"1";"[17,18,19,20]";"1";"0";"1"
"1222";"6";"8";"1";"12";"1";"2";"1";"2";"[11,13,14,15]";"2";"0";"1"
"1223";"1";"8";"1";"18";"1";"2";"1";"2";"[5,16,17,19,20]";"2";"0";"1"
"1224";"17";"8";"1";"23";"1";"2";"1";"2";"[15,21,22,24,25]";"2";"0";"1"
"1225";"37";"8";"1";"28";"1";"2";"1";"1";"[26,27,29]";"1";"0";"1"
"1226";"24";"8";"1";"35";"1";"2";"1";"1";"[31,32,33]";"2";"0";"1"
"1227";"12";"8";"1";"9";"1";"2";"1";"2";"[6,7,8,10,19,36]";"2";"0";"1"
"1228";"5";"9";"1";"10";"1";"2";"1";"2";"[9]";"2";"0";"1"
"1229";"37";"9";"1";"28";"1";"2";"1";"1";"[26,27,29]";"1";"0";"1"
"1230";"28";"10";"1";"6";"1";"2";"1";"1";"[7,8,9]";"1";"0";"1"
"1231";"8";"10";"1";"36";"1";"2";"1";"2";"[9,37,38,40]";"2";"0";"1"
"1232";"28";"11";"1";"6";"1";"2";"1";"1";"[7,8,9]";"1";"0";"1"
"1233";"8";"11";"1";"36";"1";"2";"1";"2";"[9,37,38,40]";"2";"0";"1"
"1234";"35";"11";"1";"5";"1";"2";"1";"2";"[1,2,4,18]";"2";"0";"1"
"1235";"35";"12";"1";"5";"1";"2";"1";"2";"[1,2,4,18]";"2";"0";"1"
"1236";"13";"1";"1";"38";"1";"2";"2";"2";"[4,36,39,40]";"2";"0";"1"
"1237";"22";"2";"1";"39";"1";"2";"2";"2";"[37,38,40]";"2";"0";"1"
"1238";"16";"2";"1";"7";"1";"2";"2";"2";"[6,8,9,33]";"2";"0";"1"
"1239";"23";"2";"1";"37";"1";"2";"2";"2";"[36,39,40]";"2";"0";"1"
"1240";"13";"2";"1";"38";"1";"2";"2";"2";"[4,36,39,40]";"2";"0";"1"
"1241";"40";"2";"1";"11";"1";"2";"2";"2";"[12,13,14,15]";"2";"0";"1"
"1242";"21";"3";"1";"8";"1";"2";"2";"2";"[4,6,7,9]";"2";"0";"1"
"1243";"14";"3";"1";"24";"1";"2";"2";"2";"[21,22,23,25]";"2";"0";"1"
"1244";"22";"3";"1";"39";"1";"2";"2";"2";"[37,38,40]";"2";"0";"1"
"1245";"16";"3";"1";"7";"1";"2";"2";"2";"[6,8,9,33]";"2";"0";"1"
"1246";"4";"3";"1";"30";"1";"2";"2";"2";"[15,26,27]";"2";"0";"1"
"1247";"23";"3";"1";"37";"1";"2";"2";"2";"[36,39,40]";"2";"0";"1"
"1248";"29";"3";"1";"29";"1";"2";"2";"2";"[26,27,28]";"2";"0";"1"
"1249";"1";"3";"1";"18";"1";"2";"2";"2";"[5,16,17,19,20]";"2";"0";"1"
"1250";"28";"3";"1";"6";"1";"2";"2";"1";"[7,8,9]";"2";"0";"1"
"1251";"40";"3";"1";"11";"1";"2";"2";"2";"[12,13,14,15]";"2";"0";"1"
"1252";"15";"4";"1";"40";"1";"2";"2";"2";"[36,37,38,39]";"2";"0";"1"
"1253";"21";"4";"1";"8";"1";"2";"2";"2";"[4,6,7,9]";"2";"0";"1"
"1254";"3";"4";"1";"34";"1";"2";"2";"1";"[31,32]";"1";"0";"1"
"1255";"14";"4";"1";"24";"1";"2";"2";"2";"[21,22,23,25]";"2";"0";"1"
"1256";"4";"4";"1";"30";"1";"2";"2";"2";"[15,26,27]";"2";"0";"1"
"1257";"32";"4";"1";"16";"1";"2";"2";"1";"[17,18,19,20]";"1";"0";"1"
"1258";"29";"4";"1";"29";"1";"2";"2";"2";"[26,27,28]";"2";"0";"1"
"1259";"1";"4";"1";"18";"1";"2";"2";"2";"[5,16,17,19,20]";"2";"0";"1"
"1260";"28";"4";"1";"6";"1";"2";"2";"1";"[7,8,9]";"2";"0";"1"
"1261";"10";"5";"1";"25";"1";"2";"2";"1";"[21,23,24]";"2";"0";"1"
"1262";"37";"5";"1";"28";"1";"2";"2";"1";"[26,27,29]";"1";"0";"1"
"1263";"7";"5";"1";"17";"1";"2";"2";"2";"[16,18,19,20,32]";"2";"0";"1"
"1264";"15";"5";"1";"40";"1";"2";"2";"2";"[36,37,38,39]";"2";"0";"1"
"1265";"20";"5";"1";"20";"1";"2";"2";"1";"[16,17,18,19]";"1";"0";"1"
"1266";"18";"5";"1";"26";"1";"2";"2";"2";"[4,27,28,29,30]";"2";"0";"1"
"1267";"3";"5";"1";"34";"1";"2";"2";"1";"[31,32]";"1";"0";"1"
"1268";"32";"5";"1";"16";"1";"2";"2";"1";"[17,18,19,20]";"1";"0";"1"
"1269";"30";"5";"1";"3";"1";"2";"2";"2";"[1,2]";"2";"0";"1"
"1270";"11";"6";"1";"31";"1";"2";"2";"2";"[32,33,34,35]";"1";"0";"1"
"1271";"2";"6";"1";"19";"1";"2";"2";"1";"[2,9,16,17,18,20]";"2";"0";"1"
"1272";"10";"6";"1";"25";"1";"2";"2";"1";"[21,23,24]";"2";"0";"1"
"1273";"37";"6";"1";"28";"1";"2";"2";"1";"[26,27,29]";"1";"0";"1"
"1274";"7";"6";"1";"17";"1";"2";"2";"2";"[16,18,19,20,32]";"2";"0";"1"
"1275";"20";"6";"1";"20";"1";"2";"2";"1";"[16,17,18,19]";"1";"0";"1"
"1276";"25";"6";"1";"22";"1";"2";"2";"2";"[1,21,23,24]";"1";"0";"1"
"1277";"18";"6";"1";"26";"1";"2";"2";"2";"[4,27,28,29,30]";"2";"0";"1"
"1278";"19";"6";"1";"32";"1";"2";"2";"1";"[17,31,33,34,35]";"1";"0";"1"
"1279";"30";"6";"1";"3";"1";"2";"2";"2";"[1,2]";"2";"0";"1"
"1280";"11";"7";"1";"31";"1";"2";"2";"2";"[32,33,34,35]";"1";"0";"1"
"1281";"2";"7";"1";"19";"1";"2";"2";"1";"[2,9,16,17,18,20]";"2";"0";"1"
"1282";"25";"7";"1";"22";"1";"2";"2";"2";"[1,21,23,24]";"1";"0";"1"
"1283";"34";"7";"1";"1";"1";"2";"2";"2";"[2,3,4,5,22]";"2";"0";"1"
"1284";"19";"7";"1";"32";"1";"2";"2";"1";"[17,31,33,34,35]";"1";"0";"1"
"1285";"24";"7";"1";"35";"1";"2";"2";"1";"[31,32,33]";"1";"0";"1"
"1286";"17";"7";"1";"23";"1";"2";"2";"2";"[15,21,22,24,25]";"2";"0";"1"
"1287";"8";"8";"1";"36";"1";"2";"2";"2";"[9,37,38,40]";"2";"0";"1"
"1288";"34";"8";"1";"1";"1";"2";"2";"2";"[2,3,4,5,22]";"2";"0";"1"
"1289";"38";"8";"1";"33";"1";"2";"2";"2";"[7,31,32,35]";"2";"0";"1"
"1290";"17";"8";"1";"23";"1";"2";"2";"2";"[15,21,22,24,25]";"2";"0";"1"
"1291";"24";"8";"1";"35";"1";"2";"2";"1";"[31,32,33]";"1";"0";"1"
"1292";"8";"9";"1";"36";"1";"2";"2";"2";"[9,37,38,40]";"2";"0";"1"
"1293";"36";"9";"1";"2";"1";"2";"2";"1";"[1,3,4,5,19]";"2";"0";"1"
"1294";"38";"9";"1";"33";"1";"2";"2";"2";"[7,31,32,35]";"2";"0";"1"
"1295";"39";"10";"1";"4";"1";"2";"2";"2";"[1,2,5,8,26,38]";"2";"0";"1"
"1296";"36";"10";"1";"2";"1";"2";"2";"1";"[1,3,4,5,19]";"2";"0";"1"
"1297";"39";"11";"1";"4";"1";"2";"2";"2";"[1,2,5,8,26,38]";"2";"0";"1"
"1298";"6";"11";"1";"12";"1";"2";"2";"2";"[11,13,14,15]";"2";"0";"1"
"1299";"27";"12";"1";"14";"1";"2";"2";"2";"[11,12,13,15]";"2";"0";"1"
"1300";"35";"12";"1";"5";"1";"2";"2";"2";"[1,2,4,18]";"2";"0";"1"
"1301";"12";"12";"1";"9";"1";"2";"2";"2";"[6,7,8,10,19,36]";"2";"0";"1"
"1302";"6";"12";"1";"12";"1";"2";"2";"2";"[11,13,14,15]";"2";"0";"1"
"1303";"27";"13";"1";"14";"1";"2";"2";"2";"[11,12,13,15]";"2";"0";"1"
"1304";"35";"13";"1";"5";"1";"2";"2";"2";"[1,2,4,18]";"2";"0";"1"
"1305";"12";"13";"1";"9";"1";"2";"2";"2";"[6,7,8,10,19,36]";"2";"0";"1"
"1306";"9";"13";"1";"21";"1";"2";"2";"2";"[22,23,24,25]";"2";"0";"1"
"1307";"5";"13";"1";"10";"1";"2";"2";"2";"[9]";"2";"0";"1"
"1308";"31";"13";"1";"15";"1";"2";"2";"1";"[11,12,13,14,23,30]";"2";"0";"1"
"1309";"26";"13";"1";"27";"1";"2";"2";"1";"[26,28,29,30]";"1";"0";"1"
"1310";"9";"14";"1";"21";"1";"2";"2";"2";"[22,23,24,25]";"2";"0";"1"
"1311";"5";"14";"1";"10";"1";"2";"2";"2";"[9]";"2";"0";"1"
"1312";"31";"14";"1";"15";"1";"2";"2";"1";"[11,12,13,14,23,30]";"2";"0";"1"
"1313";"26";"14";"1";"27";"1";"2";"2";"1";"[26,28,29,30]";"1";"0";"1"
"1314";"33";"18";"1";"13";"1";"2";"2";"1";"[11,12,14,15]";"1";"0";"1"
"1315";"33";"19";"1";"13";"1";"2";"2";"1";"[11,12,14,15]";"1";"0";"1"
"1316";"13";"1";"1";"38";"1";"2";"3";"2";"[4,36,39,40]";"2";"0";"1"
"1317";"15";"2";"1";"40";"1";"2";"3";"2";"[36,37,38,39]";"2";"0";"1"
"1318";"22";"2";"1";"39";"1";"2";"3";"2";"[37,38,40]";"2";"0";"1"
"1319";"23";"2";"1";"37";"1";"2";"3";"2";"[36,39,40]";"2";"0";"1"
"1320";"16";"2";"1";"7";"1";"2";"3";"2";"[6,8,9,33]";"2";"0";"1"
"1321";"40";"2";"1";"11";"1";"2";"3";"2";"[12,13,14,15]";"2";"0";"1"
"1322";"17";"2";"1";"23";"1";"2";"3";"2";"[15,21,22,24,25]";"2";"0";"1"
"1323";"27";"2";"1";"14";"1";"2";"3";"2";"[11,12,13,15]";"0";"1";"1"
"1324";"32";"2";"1";"16";"1";"2";"3";"1";"[17,18,19,20]";"2";"0";"1"
"1325";"13";"2";"1";"38";"1";"2";"3";"2";"[4,36,39,40]";"2";"0";"1"
"1326";"4";"3";"1";"30";"1";"2";"3";"2";"[15,26,27]";"2";"0";"1"
"1327";"7";"3";"1";"17";"1";"2";"3";"2";"[16,18,19,20,32]";"2";"0";"1"
"1328";"15";"3";"1";"40";"1";"2";"3";"2";"[36,37,38,39]";"2";"0";"1"
"1329";"3";"3";"1";"34";"1";"2";"3";"1";"[31,32]";"1";"0";"1"
"1330";"38";"3";"1";"33";"1";"2";"3";"2";"[7,31,32,35]";"1";"0";"1"
"1331";"22";"3";"1";"39";"1";"2";"3";"2";"[37,38,40]";"2";"0";"1"
"1332";"16";"3";"1";"7";"1";"2";"3";"2";"[6,8,9,33]";"2";"0";"1"
"1333";"23";"3";"1";"37";"1";"2";"3";"2";"[36,39,40]";"2";"0";"1"
"1334";"29";"3";"1";"29";"1";"2";"3";"2";"[26,27,28]";"2";"0";"1"
"1335";"40";"3";"1";"11";"1";"2";"3";"2";"[12,13,14,15]";"2";"0";"1"
"1336";"8";"3";"1";"36";"1";"2";"3";"2";"[9,37,38,40]";"2";"0";"1"
"1337";"10";"3";"1";"25";"1";"2";"3";"1";"[21,23,24]";"2";"0";"1"
"1338";"6";"3";"1";"12";"1";"2";"3";"2";"[11,13,14,15]";"2";"0";"1"
"1339";"11";"3";"1";"31";"1";"2";"3";"2";"[32,33,34,35]";"1";"0";"1"
"1340";"20";"3";"1";"20";"1";"2";"3";"1";"[16,17,18,19]";"2";"0";"1"
"1341";"19";"3";"1";"32";"1";"2";"3";"1";"[17,31,33,34,35]";"1";"0";"1"
"1342";"17";"3";"1";"23";"1";"2";"3";"2";"[15,21,22,24,25]";"2";"0";"1"
"1343";"18";"3";"1";"26";"1";"2";"3";"2";"[4,27,28,29,30]";"2";"0";"1"
"1344";"32";"3";"1";"16";"1";"2";"3";"1";"[17,18,19,20]";"2";"0";"1"
"1345";"28";"3";"1";"6";"1";"2";"3";"1";"[7,8,9]";"2";"0";"1"
"1346";"7";"4";"1";"17";"1";"2";"3";"2";"[16,18,19,20,32]";"2";"0";"1"
"1347";"4";"4";"1";"30";"1";"2";"3";"2";"[15,26,27]";"2";"0";"1"
"1348";"1";"4";"1";"18";"1";"2";"3";"2";"[5,16,17,19,20]";"2";"0";"1"
"1349";"3";"4";"1";"34";"1";"2";"3";"1";"[31,32]";"1";"0";"1"
"1350";"38";"4";"1";"33";"1";"2";"3";"2";"[7,31,32,35]";"1";"0";"1"
"1351";"33";"4";"1";"13";"1";"2";"3";"1";"[11,12,14,15]";"2";"0";"1"
"1352";"36";"4";"1";"2";"1";"2";"3";"1";"[1,3,4,5,19]";"1";"0";"1"
"1353";"29";"4";"1";"29";"1";"2";"3";"2";"[26,27,28]";"2";"0";"1"
"1354";"8";"4";"1";"36";"1";"2";"3";"2";"[9,37,38,40]";"2";"0";"1"
"1355";"10";"4";"1";"25";"1";"2";"3";"1";"[21,23,24]";"2";"0";"1"
"1356";"25";"4";"1";"22";"1";"2";"3";"2";"[1,21,23,24]";"1";"0";"1"
"1357";"6";"4";"1";"12";"1";"2";"3";"2";"[11,13,14,15]";"2";"0";"1"
"1358";"11";"4";"1";"31";"1";"2";"3";"2";"[32,33,34,35]";"1";"0";"1"
"1359";"20";"4";"1";"20";"1";"2";"3";"1";"[16,17,18,19]";"2";"0";"1"
"1360";"19";"4";"1";"32";"1";"2";"3";"1";"[17,31,33,34,35]";"1";"0";"1"
"1361";"18";"4";"1";"26";"1";"2";"3";"2";"[4,27,28,29,30]";"2";"0";"1"
"1362";"28";"4";"1";"6";"1";"2";"3";"1";"[7,8,9]";"2";"0";"1"
"1363";"1";"5";"1";"18";"1";"2";"3";"2";"[5,16,17,19,20]";"2";"0";"1"
"1364";"33";"5";"1";"13";"1";"2";"3";"1";"[11,12,14,15]";"2";"0";"1"
"1365";"36";"5";"1";"2";"1";"2";"3";"1";"[1,3,4,5,19]";"1";"0";"1"
"1366";"12";"5";"1";"9";"1";"2";"3";"2";"[6,7,8,10,19,36]";"2";"0";"1"
"1367";"25";"5";"1";"22";"1";"2";"3";"2";"[1,21,23,24]";"1";"0";"1"
"1368";"27";"5";"1";"14";"1";"2";"3";"2";"[11,12,13,15]";"0";"2";"1"
"1369";"37";"5";"1";"28";"1";"2";"3";"1";"[26,27,29]";"1";"0";"1"
"1370";"30";"6";"1";"3";"1";"2";"3";"2";"[1,2]";"2";"0";"1"
"1371";"24";"6";"1";"35";"1";"2";"3";"1";"[31,32,33]";"1";"0";"1"
"1372";"14";"6";"1";"24";"1";"2";"3";"2";"[21,22,23,25]";"2";"0";"1"
"1373";"12";"6";"1";"9";"1";"2";"3";"2";"[6,7,8,10,19,36]";"2";"0";"1"
"1374";"39";"6";"1";"4";"1";"2";"3";"2";"[1,2,5,8,26,38]";"2";"0";"1"
"1375";"37";"6";"1";"28";"1";"2";"3";"1";"[26,27,29]";"1";"0";"1"
"1376";"30";"7";"1";"3";"1";"2";"3";"2";"[1,2]";"2";"0";"1"
"1377";"34";"7";"1";"1";"1";"2";"3";"2";"[2,3,4,5,22]";"0";"1";"1"
"1378";"2";"7";"1";"19";"1";"2";"3";"1";"[2,9,16,17,18,20]";"2";"0";"1"
"1379";"24";"7";"1";"35";"1";"2";"3";"1";"[31,32,33]";"1";"0";"1"
"1380";"14";"7";"1";"24";"1";"2";"3";"2";"[21,22,23,25]";"2";"0";"1"
"1381";"21";"7";"1";"8";"1";"2";"3";"2";"[4,6,7,9]";"2";"0";"1"
"1382";"39";"7";"1";"4";"1";"2";"3";"2";"[1,2,5,8,26,38]";"2";"0";"1"
"1383";"2";"8";"1";"19";"1";"2";"3";"1";"[2,9,16,17,18,20]";"2";"0";"1"
"1384";"21";"8";"1";"8";"1";"2";"3";"2";"[4,6,7,9]";"2";"0";"1"
"1385";"35";"8";"1";"5";"1";"2";"3";"2";"[1,2,4,18]";"2";"0";"1"
"1386";"5";"9";"1";"10";"1";"2";"3";"2";"[9]";"2";"0";"1"
"1387";"27";"9";"1";"14";"1";"2";"3";"2";"[11,12,13,15]";"0";"3";"1"
"1388";"35";"9";"1";"5";"1";"2";"3";"2";"[1,2,4,18]";"2";"0";"1"
"1389";"5";"10";"1";"10";"1";"2";"3";"2";"[9]";"2";"0";"1"
"1390";"27";"10";"1";"14";"1";"2";"3";"2";"[11,12,13,15]";"2";"3";"1"
"1391";"27";"11";"1";"14";"1";"2";"3";"2";"[11,12,13,15]";"2";"3";"1"
"1392";"34";"13";"1";"1";"1";"2";"3";"2";"[2,3,4,5,22]";"0";"2";"1"
"1393";"33";"13";"1";"13";"1";"2";"3";"1";"[11,12,14,15]";"2";"1";"1"
"1394";"34";"14";"1";"1";"1";"2";"3";"2";"[2,3,4,5,22]";"2";"2";"1"
"1395";"34";"15";"1";"1";"1";"2";"3";"2";"[2,3,4,5,22]";"2";"2";"1"
"1396";"33";"15";"1";"13";"1";"2";"3";"1";"[11,12,14,15]";"2";"3";"1"
"1397";"31";"16";"1";"15";"1";"2";"3";"1";"[11,12,13,14,23,30]";"2";"0";"1"
"1398";"26";"16";"1";"27";"1";"2";"3";"1";"[26,28,29,30]";"1";"0";"1"
"1399";"31";"17";"1";"15";"1";"2";"3";"1";"[11,12,13,14,23,30]";"2";"0";"1"
"1400";"26";"17";"1";"27";"1";"2";"3";"1";"[26,28,29,30]";"1";"0";"1"
"1401";"9";"18";"1";"21";"1";"2";"3";"2";"[22,23,24,25]";"2";"0";"1"
"1402";"9";"19";"1";"21";"1";"2";"3";"2";"[22,23,24,25]";"2";"0";"1"
"1403";"23";"1";"1";"37";"1";"2";"4";"2";"[36,39,40]";"2";"0";"1"
"1404";"6";"1";"1";"12";"1";"2";"4";"2";"[11,13,14,15]";"2";"0";"1"
"1405";"7";"1";"1";"17";"1";"2";"4";"2";"[16,18,19,20,32]";"2";"0";"1"
"1406";"19";"1";"1";"32";"1";"2";"4";"1";"[17,31,33,34,35]";"1";"0";"1"
"1407";"33";"1";"1";"13";"1";"2";"4";"1";"[11,12,14,15]";"2";"0";"1"
"1408";"23";"2";"1";"37";"1";"2";"4";"2";"[36,39,40]";"2";"0";"1"
"1409";"36";"2";"1";"2";"1";"2";"4";"1";"[1,3,4,5,19]";"2";"0";"1"
"1410";"6";"2";"1";"12";"1";"2";"4";"2";"[11,13,14,15]";"2";"0";"1"
"1411";"7";"2";"1";"17";"1";"2";"4";"2";"[16,18,19,20,32]";"2";"0";"1"
"1412";"4";"2";"1";"30";"1";"2";"4";"2";"[15,26,27]";"2";"0";"1"
"1413";"20";"2";"1";"20";"1";"2";"4";"1";"[16,17,18,19]";"2";"0";"1"
"1414";"2";"2";"1";"19";"1";"2";"4";"1";"[2,9,16,17,18,20]";"2";"0";"1"
"1415";"5";"2";"1";"10";"1";"2";"4";"2";"[9]";"2";"0";"1"
"1416";"15";"2";"1";"40";"1";"2";"4";"2";"[36,37,38,39]";"2";"0";"1"
"1417";"19";"2";"1";"32";"1";"2";"4";"1";"[17,31,33,34,35]";"1";"0";"1"
"1418";"17";"2";"1";"23";"1";"2";"4";"2";"[15,21,22,24,25]";"2";"0";"1"
"1419";"37";"2";"1";"28";"1";"2";"4";"1";"[26,27,29]";"1";"0";"1"
"1420";"27";"2";"1";"14";"1";"2";"4";"2";"[11,12,13,15]";"2";"0";"1"
"1421";"33";"2";"1";"13";"1";"2";"4";"1";"[11,12,14,15]";"2";"0";"1"
"1422";"36";"3";"1";"2";"1";"2";"4";"1";"[1,3,4,5,19]";"2";"0";"1"
"1423";"38";"3";"1";"33";"1";"2";"4";"2";"[7,31,32,35]";"1";"0";"1"
"1424";"8";"3";"1";"36";"1";"2";"4";"2";"[9,37,38,40]";"2";"0";"1"
"1425";"32";"3";"1";"16";"1";"2";"4";"1";"[17,18,19,20]";"2";"0";"1"
"1426";"4";"3";"1";"30";"1";"2";"4";"2";"[15,26,27]";"2";"0";"1"
"1427";"24";"3";"1";"35";"1";"2";"4";"1";"[31,32,33]";"1";"0";"1"
"1428";"22";"3";"1";"39";"1";"2";"4";"2";"[37,38,40]";"2";"0";"1"
"1429";"20";"3";"1";"20";"1";"2";"4";"1";"[16,17,18,19]";"2";"0";"1"
"1430";"28";"3";"1";"6";"1";"2";"4";"1";"[7,8,9]";"2";"0";"1"
"1431";"2";"3";"1";"19";"1";"2";"4";"1";"[2,9,16,17,18,20]";"2";"0";"1"
"1432";"5";"3";"1";"10";"1";"2";"4";"2";"[9]";"2";"0";"1"
"1433";"16";"3";"1";"7";"1";"2";"4";"2";"[6,8,9,33]";"2";"0";"1"
"1434";"15";"3";"1";"40";"1";"2";"4";"2";"[36,37,38,39]";"2";"0";"1"
"1435";"17";"3";"1";"23";"1";"2";"4";"2";"[15,21,22,24,25]";"2";"0";"1"
"1436";"10";"3";"1";"25";"1";"2";"4";"1";"[21,23,24]";"2";"0";"1"
"1437";"11";"3";"1";"31";"1";"2";"4";"2";"[32,33,34,35]";"1";"0";"1"
"1438";"37";"3";"1";"28";"1";"2";"4";"1";"[26,27,29]";"1";"0";"1"
"1439";"27";"3";"1";"14";"1";"2";"4";"2";"[11,12,13,15]";"2";"0";"1"
"1440";"29";"3";"1";"29";"1";"2";"4";"2";"[26,27,28]";"2";"0";"1"
"1441";"14";"4";"1";"24";"1";"2";"4";"2";"[21,22,23,25]";"2";"0";"1"
"1442";"30";"4";"1";"3";"1";"2";"4";"2";"[1,2]";"2";"0";"1"
"1443";"18";"4";"1";"26";"1";"2";"4";"2";"[4,27,28,29,30]";"2";"0";"1"
"1444";"38";"4";"1";"33";"1";"2";"4";"2";"[7,31,32,35]";"1";"0";"1"
"1445";"8";"4";"1";"36";"1";"2";"4";"2";"[9,37,38,40]";"2";"0";"1"
"1446";"32";"4";"1";"16";"1";"2";"4";"1";"[17,18,19,20]";"2";"0";"1"
"1447";"1";"4";"1";"18";"1";"2";"4";"2";"[5,16,17,19,20]";"2";"0";"1"
"1448";"24";"4";"1";"35";"1";"2";"4";"1";"[31,32,33]";"1";"0";"1"
"1449";"22";"4";"1";"39";"1";"2";"4";"2";"[37,38,40]";"2";"0";"1"
"1450";"28";"4";"1";"6";"1";"2";"4";"1";"[7,8,9]";"2";"0";"1"
"1451";"16";"4";"1";"7";"1";"2";"4";"2";"[6,8,9,33]";"2";"0";"1"
"1452";"10";"4";"1";"25";"1";"2";"4";"1";"[21,23,24]";"2";"0";"1"
"1453";"11";"4";"1";"31";"1";"2";"4";"2";"[32,33,34,35]";"1";"0";"1"
"1454";"29";"4";"1";"29";"1";"2";"4";"2";"[26,27,28]";"2";"0";"1"
"1455";"30";"5";"1";"3";"1";"2";"4";"2";"[1,2]";"2";"0";"1"
"1456";"14";"5";"1";"24";"1";"2";"4";"2";"[21,22,23,25]";"2";"0";"1"
"1457";"18";"5";"1";"26";"1";"2";"4";"2";"[4,27,28,29,30]";"2";"0";"1"
"1458";"1";"5";"1";"18";"1";"2";"4";"2";"[5,16,17,19,20]";"2";"0";"1"
"1459";"34";"6";"1";"1";"1";"2";"4";"2";"[2,3,4,5,22]";"2";"0";"1"
"1460";"13";"6";"1";"38";"1";"2";"4";"2";"[4,36,39,40]";"2";"0";"1"
