"id";"id_subj";"time";"session";"id_grp";"grp";"round";"period";"sig";"links";"choice";"hist";"active"
"1";"9";"0";"1";"10";"2";"1";"1";"2";"[1,2,3,6,8,9]";"0";"0";"1"
"2";"5";"0";"1";"3";"1";"1";"1";"2";"[8,10]";"0";"0";"1"
"3";"23";"0";"1";"6";"4";"1";"1";"1";"[2,5,8,10]";"0";"0";"1"
"4";"11";"0";"1";"8";"1";"1";"1";"2";"[2,3,4,6,10]";"0";"0";"1"
"5";"20";"0";"1";"7";"1";"1";"1";"1";"[2,4,9]";"0";"0";"1"
"6";"30";"0";"1";"6";"3";"1";"1";"2";"[2,5,8,10]";"0";"0";"1"
"7";"26";"0";"1";"7";"2";"1";"1";"1";"[2,4,9]";"0";"0";"1"
"8";"33";"0";"1";"9";"1";"1";"1";"1";"[2,7,10]";"0";"0";"1"
"9";"17";"0";"1";"4";"1";"1";"1";"2";"[7,8]";"0";"0";"1"
"10";"31";"0";"1";"1";"3";"1";"1";"2";"[5,10]";"0";"0";"1"
"11";"35";"0";"1";"1";"2";"1";"1";"2";"[5,10]";"0";"0";"1"
"12";"34";"0";"1";"5";"4";"1";"1";"1";"[1,6]";"0";"0";"1"
"13";"37";"0";"1";"10";"4";"1";"1";"1";"[1,2,3,6,8,9]";"0";"0";"1"
"14";"1";"0";"1";"7";"3";"1";"1";"2";"[2,4,9]";"0";"0";"1"
"15";"24";"0";"1";"4";"2";"1";"1";"2";"[7,8]";"0";"0";"1"
"16";"28";"0";"1";"9";"4";"1";"1";"2";"[2,7,10]";"0";"0";"1"
"17";"39";"0";"1";"10";"1";"1";"1";"1";"[1,2,3,6,8,9]";"0";"0";"1"
"18";"14";"0";"1";"5";"2";"1";"1";"2";"[1,6]";"0";"0";"1"
"19";"18";"0";"1";"2";"3";"1";"1";"1";"[6,7,8,9,10]";"0";"0";"1"
"20";"22";"0";"1";"5";"1";"1";"1";"1";"[1,6]";"0";"0";"1"
"21";"2";"0";"1";"10";"3";"1";"1";"2";"[1,2,3,6,8,9]";"0";"0";"1"
"22";"36";"0";"1";"2";"1";"1";"1";"1";"[6,7,8,9,10]";"0";"0";"1"
"23";"25";"0";"1";"7";"4";"1";"1";"1";"[2,4,9]";"0";"0";"1"
"24";"7";"0";"1";"2";"2";"1";"1";"1";"[6,7,8,9,10]";"0";"0";"1"
"25";"21";"0";"1";"8";"4";"1";"1";"1";"[2,3,4,6,10]";"0";"0";"1"
"26";"40";"0";"1";"4";"3";"1";"1";"2";"[7,8]";"0";"0";"1"
"27";"19";"0";"1";"1";"4";"1";"1";"1";"[5,10]";"0";"0";"1"
"28";"32";"0";"1";"6";"1";"1";"1";"1";"[2,5,8,10]";"0";"0";"1"
"29";"15";"0";"1";"4";"4";"1";"1";"1";"[7,8]";"0";"0";"1"
"30";"29";"0";"1";"1";"1";"1";"1";"2";"[5,10]";"0";"0";"1"
"31";"4";"0";"1";"3";"3";"1";"1";"1";"[8,10]";"0";"0";"1"
"32";"16";"0";"1";"9";"2";"1";"1";"1";"[2,7,10]";"0";"0";"1"
"33";"12";"0";"1";"5";"3";"1";"1";"2";"[1,6]";"0";"0";"1"
"34";"3";"0";"1";"8";"3";"1";"1";"2";"[2,3,4,6,10]";"0";"0";"1"
"35";"13";"0";"1";"8";"2";"1";"1";"2";"[2,3,4,6,10]";"0";"0";"1"
"36";"27";"0";"1";"3";"4";"1";"1";"1";"[8,10]";"0";"0";"1"
"37";"10";"0";"1";"9";"3";"1";"1";"2";"[2,7,10]";"0";"0";"1"
"38";"8";"0";"1";"3";"2";"1";"1";"1";"[8,10]";"0";"0";"1"
"39";"6";"0";"1";"6";"2";"1";"1";"1";"[2,5,8,10]";"0";"0";"1"
"40";"38";"0";"1";"2";"4";"1";"1";"1";"[6,7,8,9,10]";"0";"0";"1"
"41";"5";"4";"1";"3";"1";"1";"1";"2";"[8,10]";"2";"0";"1"
"42";"5";"5";"1";"3";"1";"1";"1";"2";"[8,10]";"2";"0";"1"
"43";"7";"5";"1";"2";"2";"1";"1";"1";"[6,7,8,9,10]";"1";"0";"1"
"44";"14";"5";"1";"5";"2";"1";"1";"2";"[1,6]";"2";"0";"1"
"45";"16";"6";"1";"9";"2";"1";"1";"1";"[2,7,10]";"1";"0";"1"
"46";"7";"6";"1";"2";"2";"1";"1";"1";"[6,7,8,9,10]";"1";"0";"1"
"47";"23";"6";"1";"6";"4";"1";"1";"1";"[2,5,8,10]";"1";"0";"1"
"48";"8";"7";"1";"3";"2";"1";"1";"1";"[8,10]";"1";"0";"1"
"49";"14";"7";"1";"5";"2";"1";"1";"2";"[1,6]";"2";"0";"1"
"50";"17";"7";"1";"4";"1";"1";"1";"2";"[7,8]";"2";"0";"1"
"51";"6";"7";"1";"6";"2";"1";"1";"1";"[2,5,8,10]";"1";"0";"1"
"52";"28";"7";"1";"9";"4";"1";"1";"2";"[2,7,10]";"2";"0";"1"
"53";"16";"7";"1";"9";"2";"1";"1";"1";"[2,7,10]";"1";"0";"1"
"54";"23";"7";"1";"6";"4";"1";"1";"1";"[2,5,8,10]";"1";"0";"1"
"55";"36";"7";"1";"2";"1";"1";"1";"1";"[6,7,8,9,10]";"1";"0";"1"
"56";"1";"7";"1";"7";"3";"1";"1";"2";"[2,4,9]";"2";"0";"1"
"57";"8";"8";"1";"3";"2";"1";"1";"1";"[8,10]";"1";"0";"1"
"58";"39";"8";"1";"10";"1";"1";"1";"1";"[1,2,3,6,8,9]";"1";"0";"1"
"59";"17";"8";"1";"4";"1";"1";"1";"2";"[7,8]";"2";"0";"1"
"60";"25";"8";"1";"7";"4";"1";"1";"1";"[2,4,9]";"1";"0";"1"
"61";"21";"8";"1";"8";"4";"1";"1";"1";"[2,3,4,6,10]";"1";"0";"1"
"62";"29";"8";"1";"1";"1";"1";"1";"2";"[5,10]";"2";"0";"1"
"63";"6";"8";"1";"6";"2";"1";"1";"1";"[2,5,8,10]";"1";"0";"1"
"64";"28";"8";"1";"9";"4";"1";"1";"2";"[2,7,10]";"2";"0";"1"
"65";"31";"8";"1";"1";"3";"1";"1";"2";"[5,10]";"1";"0";"1"
"66";"30";"8";"1";"6";"3";"1";"1";"2";"[2,5,8,10]";"2";"0";"1"
"67";"24";"8";"1";"4";"2";"1";"1";"2";"[7,8]";"2";"0";"1"
"68";"15";"8";"1";"4";"4";"1";"1";"1";"[7,8]";"1";"0";"1"
"69";"36";"8";"1";"2";"1";"1";"1";"1";"[6,7,8,9,10]";"1";"0";"1"
"70";"1";"8";"1";"7";"3";"1";"1";"2";"[2,4,9]";"2";"0";"1"
"71";"39";"9";"1";"10";"1";"1";"1";"1";"[1,2,3,6,8,9]";"1";"0";"1"
"72";"12";"9";"1";"5";"3";"1";"1";"2";"[1,6]";"2";"0";"1"
"73";"25";"9";"1";"7";"4";"1";"1";"1";"[2,4,9]";"1";"0";"1"
"74";"11";"9";"1";"8";"1";"1";"1";"2";"[2,3,4,6,10]";"2";"0";"1"
"75";"21";"9";"1";"8";"4";"1";"1";"1";"[2,3,4,6,10]";"1";"0";"1"
"76";"29";"9";"1";"1";"1";"1";"1";"2";"[5,10]";"2";"0";"1"
"77";"31";"9";"1";"1";"3";"1";"1";"2";"[5,10]";"1";"0";"1"
"78";"30";"9";"1";"6";"3";"1";"1";"2";"[2,5,8,10]";"2";"0";"1"
"79";"2";"9";"1";"10";"3";"1";"1";"2";"[1,2,3,6,8,9]";"2";"0";"1"
"80";"24";"9";"1";"4";"2";"1";"1";"2";"[7,8]";"2";"0";"1"
"81";"15";"9";"1";"4";"4";"1";"1";"1";"[7,8]";"1";"0";"1"
"82";"33";"9";"1";"9";"1";"1";"1";"1";"[2,7,10]";"1";"0";"1"
"83";"9";"9";"1";"10";"2";"1";"1";"2";"[1,2,3,6,8,9]";"2";"0";"1"
"84";"19";"9";"1";"1";"4";"1";"1";"1";"[5,10]";"1";"0";"1"
"85";"12";"10";"1";"5";"3";"1";"1";"2";"[1,6]";"2";"0";"1"
"86";"11";"10";"1";"8";"1";"1";"1";"2";"[2,3,4,6,10]";"2";"0";"1"
"87";"2";"10";"1";"10";"3";"1";"1";"2";"[1,2,3,6,8,9]";"2";"0";"1"
"88";"33";"10";"1";"9";"1";"1";"1";"1";"[2,7,10]";"1";"0";"1"
"89";"9";"10";"1";"10";"2";"1";"1";"2";"[1,2,3,6,8,9]";"2";"0";"1"
"90";"19";"10";"1";"1";"4";"1";"1";"1";"[5,10]";"1";"0";"1"
"91";"10";"11";"1";"9";"3";"1";"1";"2";"[2,7,10]";"2";"0";"1"
"92";"32";"11";"1";"6";"1";"1";"1";"1";"[2,5,8,10]";"2";"0";"1"
"93";"13";"11";"1";"8";"2";"1";"1";"2";"[2,3,4,6,10]";"2";"0";"1"
"94";"18";"11";"1";"2";"3";"1";"1";"1";"[6,7,8,9,10]";"1";"0";"1"
"95";"26";"11";"1";"7";"2";"1";"1";"1";"[2,4,9]";"1";"0";"1"
"96";"10";"12";"1";"9";"3";"1";"1";"2";"[2,7,10]";"2";"0";"1"
"97";"32";"12";"1";"6";"1";"1";"1";"1";"[2,5,8,10]";"2";"0";"1"
"98";"37";"12";"1";"10";"4";"1";"1";"1";"[1,2,3,6,8,9]";"1";"0";"1"
"99";"18";"12";"1";"2";"3";"1";"1";"1";"[6,7,8,9,10]";"1";"0";"1"
"100";"13";"12";"1";"8";"2";"1";"1";"2";"[2,3,4,6,10]";"2";"0";"1"
"101";"26";"12";"1";"7";"2";"1";"1";"1";"[2,4,9]";"1";"0";"1"
"102";"20";"13";"1";"7";"1";"1";"1";"1";"[2,4,9]";"1";"0";"1"
"103";"4";"13";"1";"3";"3";"1";"1";"1";"[8,10]";"1";"0";"1"
"104";"37";"13";"1";"10";"4";"1";"1";"1";"[1,2,3,6,8,9]";"1";"0";"1"
"105";"27";"13";"1";"3";"4";"1";"1";"1";"[8,10]";"1";"0";"1"
"106";"20";"14";"1";"7";"1";"1";"1";"1";"[2,4,9]";"1";"0";"1"
"107";"4";"14";"1";"3";"3";"1";"1";"1";"[8,10]";"1";"0";"1"
"108";"35";"14";"1";"1";"2";"1";"1";"2";"[5,10]";"2";"0";"1"
"109";"27";"14";"1";"3";"4";"1";"1";"1";"[8,10]";"1";"0";"1"
"110";"38";"15";"1";"2";"4";"1";"1";"1";"[6,7,8,9,10]";"1";"0";"1"
"111";"35";"15";"1";"1";"2";"1";"1";"2";"[5,10]";"2";"0";"1"
"112";"38";"16";"1";"2";"4";"1";"1";"1";"[6,7,8,9,10]";"1";"0";"1"
"113";"22";"20";"1";"5";"1";"1";"1";"1";"[1,6]";"1";"0";"1"
"114";"40";"20";"1";"4";"3";"1";"1";"2";"[7,8]";"2";"0";"1"
"115";"22";"21";"1";"5";"1";"1";"1";"1";"[1,6]";"1";"0";"1"
"116";"40";"21";"1";"4";"3";"1";"1";"2";"[7,8]";"2";"0";"1"
"117";"3";"25";"1";"8";"3";"1";"1";"2";"[2,3,4,6,10]";"2";"0";"1"
"118";"3";"26";"1";"8";"3";"1";"1";"2";"[2,3,4,6,10]";"2";"0";"1"
"119";"34";"28";"1";"5";"4";"1";"1";"1";"[1,6]";"1";"0";"1"
"120";"34";"29";"1";"5";"4";"1";"1";"1";"[1,6]";"1";"0";"1"
"121";"23";"32";"1";"6";"4";"1";"2";"1";"[2,5,8,10]";"1";"0";"1"
"122";"17";"4";"1";"4";"1";"1";"2";"2";"[7,8]";"2";"0";"1"
"123";"25";"33";"1";"7";"4";"1";"2";"1";"[2,4,9]";"1";"0";"1"
"124";"19";"33";"1";"1";"4";"1";"2";"1";"[5,10]";"1";"0";"1"
"125";"23";"33";"1";"6";"4";"1";"2";"1";"[2,5,8,10]";"1";"0";"1"
"126";"20";"4";"1";"7";"1";"1";"2";"1";"[2,4,9]";"1";"0";"1"
"127";"36";"5";"1";"2";"1";"1";"2";"1";"[6,7,8,9,10]";"1";"0";"1"
"128";"40";"34";"1";"4";"3";"1";"2";"2";"[7,8]";"2";"0";"1"
"129";"17";"5";"1";"4";"1";"1";"2";"2";"[7,8]";"2";"0";"1"
"130";"1";"34";"1";"7";"3";"1";"2";"2";"[2,4,9]";"2";"0";"1"
"131";"25";"34";"1";"7";"4";"1";"2";"1";"[2,4,9]";"1";"0";"1"
"132";"10";"34";"1";"9";"3";"1";"2";"2";"[2,7,10]";"2";"0";"1"
"133";"19";"34";"1";"1";"4";"1";"2";"1";"[5,10]";"1";"0";"1"
"134";"21";"34";"1";"8";"4";"1";"2";"1";"[2,3,4,6,10]";"1";"0";"1"
"135";"31";"34";"1";"1";"3";"1";"2";"2";"[5,10]";"2";"0";"1"
"136";"20";"5";"1";"7";"1";"1";"2";"1";"[2,4,9]";"1";"0";"1"
"137";"36";"6";"1";"2";"1";"1";"2";"1";"[6,7,8,9,10]";"1";"0";"1"
"138";"40";"35";"1";"4";"3";"1";"2";"2";"[7,8]";"2";"0";"1"
"139";"33";"6";"1";"9";"1";"1";"2";"1";"[2,7,10]";"1";"0";"1"
"140";"1";"35";"1";"7";"3";"1";"2";"2";"[2,4,9]";"2";"0";"1"
"141";"30";"35";"1";"6";"3";"1";"2";"2";"[2,5,8,10]";"2";"0";"1"
"142";"7";"35";"1";"2";"2";"1";"2";"1";"[6,7,8,9,10]";"1";"0";"1"
"143";"10";"35";"1";"9";"3";"1";"2";"2";"[2,7,10]";"2";"0";"1"
"144";"21";"35";"1";"8";"4";"1";"2";"1";"[2,3,4,6,10]";"1";"0";"1"
"145";"31";"35";"1";"1";"3";"1";"2";"2";"[5,10]";"2";"0";"1"
"146";"33";"7";"1";"9";"1";"1";"2";"1";"[2,7,10]";"1";"0";"1"
"147";"30";"36";"1";"6";"3";"1";"2";"2";"[2,5,8,10]";"2";"0";"1"
"148";"7";"36";"1";"2";"2";"1";"2";"1";"[6,7,8,9,10]";"1";"0";"1"
"149";"9";"36";"1";"10";"2";"1";"2";"2";"[1,2,3,6,8,9]";"1";"0";"1"
"150";"24";"36";"1";"4";"2";"1";"2";"2";"[7,8]";"2";"0";"1"
"151";"8";"37";"1";"3";"2";"1";"2";"1";"[8,10]";"1";"0";"1"
"152";"11";"8";"1";"8";"1";"1";"2";"2";"[2,3,4,6,10]";"2";"0";"1"
"153";"9";"37";"1";"10";"2";"1";"2";"2";"[1,2,3,6,8,9]";"1";"0";"1"
"154";"24";"37";"1";"4";"2";"1";"2";"2";"[7,8]";"2";"0";"1"
"155";"15";"38";"1";"4";"4";"1";"2";"1";"[7,8]";"1";"0";"1"
"156";"8";"38";"1";"3";"2";"1";"2";"1";"[8,10]";"1";"0";"1"
"157";"11";"9";"1";"8";"1";"1";"2";"2";"[2,3,4,6,10]";"2";"0";"1"
"158";"15";"39";"1";"4";"4";"1";"2";"1";"[7,8]";"1";"0";"1"
"159";"4";"39";"1";"3";"3";"1";"2";"1";"[8,10]";"1";"0";"1"
"160";"2";"39";"1";"10";"3";"1";"2";"2";"[1,2,3,6,8,9]";"2";"0";"1"
"161";"14";"39";"1";"5";"2";"1";"2";"2";"[1,6]";"2";"0";"1"
"162";"4";"40";"1";"3";"3";"1";"2";"1";"[8,10]";"1";"0";"1"
"163";"28";"40";"1";"9";"4";"1";"2";"2";"[2,7,10]";"2";"0";"1"
"164";"6";"40";"1";"6";"2";"1";"2";"1";"[2,5,8,10]";"1";"0";"1"
"165";"2";"40";"1";"10";"3";"1";"2";"2";"[1,2,3,6,8,9]";"2";"0";"1"
"166";"37";"40";"1";"10";"4";"1";"2";"1";"[1,2,3,6,8,9]";"1";"0";"1"
"167";"35";"40";"1";"1";"2";"1";"2";"2";"[5,10]";"2";"0";"1"
"168";"14";"40";"1";"5";"2";"1";"2";"2";"[1,6]";"2";"0";"1"
"169";"18";"41";"1";"2";"3";"1";"2";"1";"[6,7,8,9,10]";"2";"0";"1"
"170";"28";"41";"1";"9";"4";"1";"2";"2";"[2,7,10]";"2";"0";"1"
"171";"16";"41";"1";"9";"2";"1";"2";"1";"[2,7,10]";"1";"0";"1"
"172";"6";"41";"1";"6";"2";"1";"2";"1";"[2,5,8,10]";"1";"0";"1"
"173";"37";"41";"1";"10";"4";"1";"2";"1";"[1,2,3,6,8,9]";"1";"0";"1"
"174";"27";"41";"1";"3";"4";"1";"2";"1";"[8,10]";"1";"0";"1"
"175";"35";"41";"1";"1";"2";"1";"2";"2";"[5,10]";"2";"0";"1"
"176";"18";"42";"1";"2";"3";"1";"2";"1";"[6,7,8,9,10]";"2";"0";"1"
"177";"16";"42";"1";"9";"2";"1";"2";"1";"[2,7,10]";"1";"0";"1"
"178";"3";"42";"1";"8";"3";"1";"2";"2";"[2,3,4,6,10]";"2";"0";"1"
"179";"27";"42";"1";"3";"4";"1";"2";"1";"[8,10]";"1";"0";"1"
"180";"38";"42";"1";"2";"4";"1";"2";"1";"[6,7,8,9,10]";"1";"0";"1"
"181";"5";"13";"1";"3";"1";"1";"2";"2";"[8,10]";"2";"0";"1"
"182";"32";"14";"1";"6";"1";"1";"2";"1";"[2,5,8,10]";"2";"0";"1"
"183";"29";"14";"1";"1";"1";"1";"2";"2";"[5,10]";"1";"0";"1"
"184";"3";"43";"1";"8";"3";"1";"2";"2";"[2,3,4,6,10]";"2";"0";"1"
"185";"39";"14";"1";"10";"1";"1";"2";"1";"[1,2,3,6,8,9]";"2";"0";"1"
"186";"38";"43";"1";"2";"4";"1";"2";"1";"[6,7,8,9,10]";"1";"0";"1"
"187";"5";"14";"1";"3";"1";"1";"2";"2";"[8,10]";"2";"0";"1"
"188";"34";"43";"1";"5";"4";"1";"2";"1";"[1,6]";"1";"0";"1"
"189";"32";"15";"1";"6";"1";"1";"2";"1";"[2,5,8,10]";"2";"0";"1"
"190";"29";"15";"1";"1";"1";"1";"2";"2";"[5,10]";"1";"0";"1"
"191";"39";"15";"1";"10";"1";"1";"2";"1";"[1,2,3,6,8,9]";"2";"0";"1"
"192";"13";"44";"1";"8";"2";"1";"2";"2";"[2,3,4,6,10]";"2";"0";"1"
"193";"34";"44";"1";"5";"4";"1";"2";"1";"[1,6]";"1";"0";"1"
"194";"13";"45";"1";"8";"2";"1";"2";"2";"[2,3,4,6,10]";"2";"0";"1"
"195";"26";"48";"1";"7";"2";"1";"2";"1";"[2,4,9]";"1";"0";"1"
"196";"12";"49";"1";"5";"3";"1";"2";"2";"[1,6]";"2";"0";"1"
"197";"26";"49";"1";"7";"2";"1";"2";"1";"[2,4,9]";"1";"0";"1"
"198";"12";"50";"1";"5";"3";"1";"2";"2";"[1,6]";"2";"0";"1"
"199";"22";"25";"1";"5";"1";"1";"2";"1";"[1,6]";"2";"0";"1"
"200";"22";"26";"1";"5";"1";"1";"2";"1";"[1,6]";"2";"0";"1"
"201";"24";"58";"1";"4";"2";"1";"3";"2";"[7,8]";"2";"0";"1"
"202";"36";"4";"1";"2";"1";"1";"3";"1";"[6,7,8,9,10]";"1";"0";"1"
"203";"24";"59";"1";"4";"2";"1";"3";"2";"[7,8]";"2";"0";"1"
"204";"8";"59";"1";"3";"2";"1";"3";"1";"[8,10]";"1";"0";"1"
"205";"10";"59";"1";"9";"3";"1";"3";"2";"[2,7,10]";"2";"0";"1"
"206";"18";"59";"1";"2";"3";"1";"3";"1";"[6,7,8,9,10]";"2";"0";"1"
"207";"3";"59";"1";"8";"3";"1";"3";"2";"[2,3,4,6,10]";"2";"0";"1"
"208";"21";"59";"1";"8";"4";"1";"3";"1";"[2,3,4,6,10]";"1";"0";"1"
"209";"32";"4";"1";"6";"1";"1";"3";"1";"[2,5,8,10]";"2";"0";"1"
"210";"36";"5";"1";"2";"1";"1";"3";"1";"[6,7,8,9,10]";"1";"0";"1"
"211";"28";"60";"1";"9";"4";"1";"3";"2";"[2,7,10]";"2";"0";"1"
"212";"1";"60";"1";"7";"3";"1";"3";"2";"[2,4,9]";"2";"0";"1"
"213";"23";"60";"1";"6";"4";"1";"3";"1";"[2,5,8,10]";"1";"0";"1"
"214";"11";"5";"1";"8";"1";"1";"3";"2";"[2,3,4,6,10]";"2";"0";"1"
"215";"2";"60";"1";"10";"3";"1";"3";"2";"[1,2,3,6,8,9]";"2";"0";"1"
"216";"8";"60";"1";"3";"2";"1";"3";"1";"[8,10]";"1";"0";"1"
"217";"10";"60";"1";"9";"3";"1";"3";"2";"[2,7,10]";"2";"0";"1"
"218";"18";"60";"1";"2";"3";"1";"3";"1";"[6,7,8,9,10]";"2";"0";"1"
"219";"3";"60";"1";"8";"3";"1";"3";"2";"[2,3,4,6,10]";"2";"0";"1"
"220";"21";"60";"1";"8";"4";"1";"3";"1";"[2,3,4,6,10]";"1";"0";"1"
"221";"32";"5";"1";"6";"1";"1";"3";"1";"[2,5,8,10]";"2";"0";"1"
"222";"20";"5";"1";"7";"1";"1";"3";"1";"[2,4,9]";"0";"1";"1"
"223";"9";"60";"1";"10";"2";"1";"3";"2";"[1,2,3,6,8,9]";"1";"0";"1"
"224";"5";"5";"1";"3";"1";"1";"3";"2";"[8,10]";"2";"0";"1"
"225";"30";"60";"1";"6";"3";"1";"3";"2";"[2,5,8,10]";"2";"0";"1"
"226";"28";"61";"1";"9";"4";"1";"3";"2";"[2,7,10]";"2";"0";"1"
"227";"25";"61";"1";"7";"4";"1";"3";"1";"[2,4,9]";"1";"0";"1"
"228";"16";"61";"1";"9";"2";"1";"3";"1";"[2,7,10]";"1";"0";"1"
"229";"1";"61";"1";"7";"3";"1";"3";"2";"[2,4,9]";"2";"0";"1"
"230";"37";"61";"1";"10";"4";"1";"3";"1";"[1,2,3,6,8,9]";"1";"0";"1"
"231";"23";"61";"1";"6";"4";"1";"3";"1";"[2,5,8,10]";"1";"0";"1"
"232";"35";"61";"1";"1";"2";"1";"3";"2";"[5,10]";"0";"1";"1"
"233";"11";"6";"1";"8";"1";"1";"3";"2";"[2,3,4,6,10]";"2";"0";"1"
"234";"2";"61";"1";"10";"3";"1";"3";"2";"[1,2,3,6,8,9]";"2";"0";"1"
"235";"19";"61";"1";"1";"4";"1";"3";"1";"[5,10]";"1";"0";"1"
"236";"20";"6";"1";"7";"1";"1";"3";"1";"[2,4,9]";"0";"2";"1"
"237";"9";"61";"1";"10";"2";"1";"3";"2";"[1,2,3,6,8,9]";"1";"0";"1"
"238";"30";"61";"1";"6";"3";"1";"3";"2";"[2,5,8,10]";"2";"0";"1"
"239";"5";"6";"1";"3";"1";"1";"3";"2";"[8,10]";"2";"0";"1"
"240";"25";"62";"1";"7";"4";"1";"3";"1";"[2,4,9]";"1";"0";"1"
"241";"16";"62";"1";"9";"2";"1";"3";"1";"[2,7,10]";"1";"0";"1"
"242";"37";"62";"1";"10";"4";"1";"3";"1";"[1,2,3,6,8,9]";"1";"0";"1"
"243";"19";"62";"1";"1";"4";"1";"3";"1";"[5,10]";"1";"0";"1"
"244";"40";"62";"1";"4";"3";"1";"3";"2";"[7,8]";"2";"0";"1"
"245";"35";"62";"1";"1";"2";"1";"3";"2";"[5,10]";"0";"2";"1"
"246";"38";"62";"1";"2";"4";"1";"3";"1";"[6,7,8,9,10]";"1";"0";"1"
"247";"7";"62";"1";"2";"2";"1";"3";"1";"[6,7,8,9,10]";"1";"0";"1"
"248";"40";"63";"1";"4";"3";"1";"3";"2";"[7,8]";"2";"0";"1"
"249";"38";"63";"1";"2";"4";"1";"3";"1";"[6,7,8,9,10]";"1";"0";"1"
"250";"34";"63";"1";"5";"4";"1";"3";"1";"[1,6]";"1";"0";"1"
"251";"7";"63";"1";"2";"2";"1";"3";"1";"[6,7,8,9,10]";"1";"0";"1"
"252";"29";"9";"1";"1";"1";"1";"3";"2";"[5,10]";"2";"0";"1"
"253";"6";"64";"1";"6";"2";"1";"3";"1";"[2,5,8,10]";"1";"0";"1"
"254";"20";"9";"1";"7";"1";"1";"3";"1";"[2,4,9]";"1";"2";"1"
"255";"17";"9";"1";"4";"1";"1";"3";"2";"[7,8]";"2";"0";"1"
"256";"34";"64";"1";"5";"4";"1";"3";"1";"[1,6]";"1";"0";"1"
"257";"29";"10";"1";"1";"1";"1";"3";"2";"[5,10]";"2";"0";"1"
"258";"31";"65";"1";"1";"3";"1";"3";"2";"[5,10]";"2";"0";"1"
"259";"6";"65";"1";"6";"2";"1";"3";"1";"[2,5,8,10]";"1";"0";"1"
"260";"20";"10";"1";"7";"1";"1";"3";"1";"[2,4,9]";"1";"2";"1"
"261";"17";"10";"1";"4";"1";"1";"3";"2";"[7,8]";"2";"0";"1"
"262";"31";"66";"1";"1";"3";"1";"3";"2";"[5,10]";"2";"0";"1"
"263";"4";"66";"1";"3";"3";"1";"3";"1";"[8,10]";"1";"0";"1"
"264";"35";"66";"1";"1";"2";"1";"3";"2";"[5,10]";"2";"2";"1"
"265";"4";"67";"1";"3";"3";"1";"3";"1";"[8,10]";"1";"0";"1"
"266";"35";"67";"1";"1";"2";"1";"3";"2";"[5,10]";"2";"2";"1"
"267";"12";"68";"1";"5";"3";"1";"3";"2";"[1,6]";"2";"0";"1"
"268";"15";"68";"1";"4";"4";"1";"3";"1";"[7,8]";"1";"0";"1"
"269";"12";"69";"1";"5";"3";"1";"3";"2";"[1,6]";"2";"0";"1"
"270";"39";"14";"1";"10";"1";"1";"3";"1";"[1,2,3,6,8,9]";"2";"0";"1"
"271";"15";"69";"1";"4";"4";"1";"3";"1";"[7,8]";"1";"0";"1"
"272";"39";"15";"1";"10";"1";"1";"3";"1";"[1,2,3,6,8,9]";"2";"0";"1"
"273";"5";"16";"1";"3";"1";"1";"3";"2";"[8,10]";"2";"1";"1"
"274";"22";"17";"1";"5";"1";"1";"3";"1";"[1,6]";"1";"0";"1"
"275";"14";"72";"1";"5";"2";"1";"3";"2";"[1,6]";"2";"0";"1"
"276";"5";"17";"1";"3";"1";"1";"3";"2";"[8,10]";"2";"3";"1"
"277";"22";"18";"1";"5";"1";"1";"3";"1";"[1,6]";"1";"0";"1"
"278";"14";"73";"1";"5";"2";"1";"3";"2";"[1,6]";"2";"0";"1"
"279";"27";"73";"1";"3";"4";"1";"3";"1";"[8,10]";"1";"0";"1"
"280";"27";"74";"1";"3";"4";"1";"3";"1";"[8,10]";"1";"0";"1"
"281";"33";"19";"1";"9";"1";"1";"3";"1";"[2,7,10]";"2";"0";"1"
"282";"13";"74";"1";"8";"2";"1";"3";"2";"[2,3,4,6,10]";"1";"0";"1"
"283";"33";"20";"1";"9";"1";"1";"3";"1";"[2,7,10]";"2";"0";"1"
"284";"13";"75";"1";"8";"2";"1";"3";"2";"[2,3,4,6,10]";"1";"0";"1"
"285";"26";"79";"1";"7";"2";"1";"3";"1";"[2,4,9]";"1";"0";"1"
"286";"26";"80";"1";"7";"2";"1";"3";"1";"[2,4,9]";"1";"0";"1"
"287";"5";"2";"1";"3";"1";"1";"4";"2";"[8,10]";"2";"0";"1"
"288";"3";"82";"1";"8";"3";"1";"4";"2";"[2,3,4,6,10]";"2";"0";"1"
"289";"21";"83";"1";"8";"4";"1";"4";"1";"[2,3,4,6,10]";"1";"0";"1"
"290";"5";"3";"1";"3";"1";"1";"4";"2";"[8,10]";"2";"0";"1"
"291";"18";"83";"1";"2";"3";"1";"4";"1";"[6,7,8,9,10]";"2";"0";"1"
"292";"7";"83";"1";"2";"2";"1";"4";"1";"[6,7,8,9,10]";"1";"0";"1"
"293";"3";"83";"1";"8";"3";"1";"4";"2";"[2,3,4,6,10]";"2";"0";"1"
"294";"28";"83";"1";"9";"4";"1";"4";"2";"[2,7,10]";"2";"0";"1"
"295";"22";"4";"1";"5";"1";"1";"4";"1";"[1,6]";"1";"0";"1"
"296";"21";"84";"1";"8";"4";"1";"4";"1";"[2,3,4,6,10]";"1";"0";"1"
"297";"19";"84";"1";"1";"4";"1";"4";"1";"[5,10]";"1";"0";"1"
"298";"23";"84";"1";"6";"4";"1";"4";"1";"[2,5,8,10]";"1";"0";"1"
"299";"1";"84";"1";"7";"3";"1";"4";"2";"[2,4,9]";"2";"0";"1"
"300";"32";"4";"1";"6";"1";"1";"4";"1";"[2,5,8,10]";"0";"2";"1"
"301";"10";"84";"1";"9";"3";"1";"4";"2";"[2,7,10]";"2";"0";"1"
"302";"18";"84";"1";"2";"3";"1";"4";"1";"[6,7,8,9,10]";"2";"0";"1"
"303";"30";"84";"1";"6";"3";"1";"4";"2";"[2,5,8,10]";"2";"0";"1"
"304";"7";"84";"1";"2";"2";"1";"4";"1";"[6,7,8,9,10]";"1";"0";"1"
"305";"16";"84";"1";"9";"2";"1";"4";"1";"[2,7,10]";"1";"0";"1"
"306";"28";"84";"1";"9";"4";"1";"4";"2";"[2,7,10]";"2";"0";"1"
"307";"22";"5";"1";"5";"1";"1";"4";"1";"[1,6]";"1";"0";"1"
"308";"19";"85";"1";"1";"4";"1";"4";"1";"[5,10]";"1";"0";"1"
"309";"8";"85";"1";"3";"2";"1";"4";"1";"[8,10]";"1";"0";"1"
"310";"23";"85";"1";"6";"4";"1";"4";"1";"[2,5,8,10]";"1";"0";"1"
"311";"1";"85";"1";"7";"3";"1";"4";"2";"[2,4,9]";"2";"0";"1"
"312";"11";"5";"1";"8";"1";"1";"4";"2";"[2,3,4,6,10]";"2";"0";"1"
"313";"10";"85";"1";"9";"3";"1";"4";"2";"[2,7,10]";"2";"0";"1"
"314";"24";"85";"1";"4";"2";"1";"4";"2";"[7,8]";"2";"0";"1"
"315";"32";"5";"1";"6";"1";"1";"4";"1";"[2,5,8,10]";"0";"3";"1"
"316";"30";"85";"1";"6";"3";"1";"4";"2";"[2,5,8,10]";"2";"0";"1"
"317";"16";"85";"1";"9";"2";"1";"4";"1";"[2,7,10]";"1";"0";"1"
"318";"6";"85";"1";"6";"2";"1";"4";"1";"[2,5,8,10]";"1";"0";"1"
"319";"12";"86";"1";"5";"3";"1";"4";"2";"[1,6]";"2";"0";"1"
"320";"8";"86";"1";"3";"2";"1";"4";"1";"[8,10]";"1";"0";"1"
"321";"11";"6";"1";"8";"1";"1";"4";"2";"[2,3,4,6,10]";"2";"0";"1"
"322";"24";"86";"1";"4";"2";"1";"4";"2";"[7,8]";"2";"0";"1"
"323";"6";"86";"1";"6";"2";"1";"4";"1";"[2,5,8,10]";"1";"0";"1"
"324";"32";"7";"1";"6";"1";"1";"4";"1";"[2,5,8,10]";"2";"3";"1"
"325";"12";"87";"1";"5";"3";"1";"4";"2";"[1,6]";"2";"0";"1"
"326";"37";"87";"1";"10";"4";"1";"4";"1";"[1,2,3,6,8,9]";"1";"0";"1"
"327";"33";"7";"1";"9";"1";"1";"4";"1";"[2,7,10]";"2";"0";"1"
"328";"2";"87";"1";"10";"3";"1";"4";"2";"[1,2,3,6,8,9]";"2";"0";"1"
"329";"9";"88";"1";"10";"2";"1";"4";"2";"[1,2,3,6,8,9]";"1";"0";"1"
"330";"32";"8";"1";"6";"1";"1";"4";"1";"[2,5,8,10]";"2";"3";"1"
"331";"37";"88";"1";"10";"4";"1";"4";"1";"[1,2,3,6,8,9]";"1";"0";"1"
"332";"33";"8";"1";"9";"1";"1";"4";"1";"[2,7,10]";"2";"0";"1"
"333";"13";"88";"1";"8";"2";"1";"4";"2";"[2,3,4,6,10]";"1";"0";"1"
"334";"25";"88";"1";"7";"4";"1";"4";"1";"[2,4,9]";"1";"0";"1"
"335";"2";"88";"1";"10";"3";"1";"4";"2";"[1,2,3,6,8,9]";"2";"0";"1"
"336";"34";"88";"1";"5";"4";"1";"4";"1";"[1,6]";"1";"0";"1"
"337";"39";"8";"1";"10";"1";"1";"4";"1";"[1,2,3,6,8,9]";"2";"0";"1"
"338";"31";"88";"1";"1";"3";"1";"4";"2";"[5,10]";"2";"0";"1"
"339";"9";"89";"1";"10";"2";"1";"4";"2";"[1,2,3,6,8,9]";"1";"0";"1"
"340";"4";"89";"1";"3";"3";"1";"4";"1";"[8,10]";"1";"0";"1"
"341";"33";"9";"1";"9";"1";"1";"4";"1";"[2,7,10]";"2";"1";"1"
"342";"13";"89";"1";"8";"2";"1";"4";"2";"[2,3,4,6,10]";"1";"0";"1"
"343";"25";"89";"1";"7";"4";"1";"4";"1";"[2,4,9]";"1";"0";"1"
"344";"15";"89";"1";"4";"4";"1";"4";"1";"[7,8]";"1";"0";"1"
"345";"14";"89";"1";"5";"2";"1";"4";"2";"[1,6]";"1";"0";"1"
"346";"34";"89";"1";"5";"4";"1";"4";"1";"[1,6]";"1";"0";"1"
"347";"39";"9";"1";"10";"1";"1";"4";"1";"[1,2,3,6,8,9]";"2";"0";"1"
"348";"40";"89";"1";"4";"3";"1";"4";"2";"[7,8]";"2";"0";"1"
"349";"31";"89";"1";"1";"3";"1";"4";"2";"[5,10]";"2";"0";"1"
"350";"4";"90";"1";"3";"3";"1";"4";"1";"[8,10]";"1";"0";"1"
"351";"15";"90";"1";"4";"4";"1";"4";"1";"[7,8]";"1";"0";"1"
"352";"14";"90";"1";"5";"2";"1";"4";"2";"[1,6]";"1";"0";"1"
"353";"40";"90";"1";"4";"3";"1";"4";"2";"[7,8]";"2";"0";"1"
"354";"35";"92";"1";"1";"2";"1";"4";"2";"[5,10]";"2";"0";"1"
"355";"33";"12";"1";"9";"1";"1";"4";"1";"[2,7,10]";"2";"2";"1"
"356";"17";"13";"1";"4";"1";"1";"4";"2";"[7,8]";"2";"0";"1"
"357";"35";"93";"1";"1";"2";"1";"4";"2";"[5,10]";"2";"0";"1"
"358";"20";"13";"1";"7";"1";"1";"4";"1";"[2,4,9]";"0";"2";"1"
"359";"17";"14";"1";"4";"1";"1";"4";"2";"[7,8]";"2";"0";"1"
"360";"33";"14";"1";"9";"1";"1";"4";"1";"[2,7,10]";"2";"7";"1"
"361";"27";"94";"1";"3";"4";"1";"4";"1";"[8,10]";"1";"0";"1"
"362";"27";"95";"1";"3";"4";"1";"4";"1";"[8,10]";"1";"0";"1"
"363";"36";"15";"1";"2";"1";"1";"4";"1";"[6,7,8,9,10]";"2";"0";"1"
"364";"29";"15";"1";"1";"1";"1";"4";"2";"[5,10]";"2";"0";"1"
"365";"36";"16";"1";"2";"1";"1";"4";"1";"[6,7,8,9,10]";"2";"0";"1"
"366";"29";"16";"1";"1";"1";"1";"4";"2";"[5,10]";"2";"0";"1"
"367";"20";"17";"1";"7";"1";"1";"4";"1";"[2,4,9]";"0";"3";"1"
"368";"11";"17";"1";"8";"1";"1";"4";"2";"[2,3,4,6,10]";"2";"1";"1"
"369";"5";"18";"1";"3";"1";"1";"4";"2";"[8,10]";"2";"5";"1"
"370";"20";"20";"1";"7";"1";"1";"4";"1";"[2,4,9]";"1";"3";"1"
"371";"11";"20";"1";"8";"1";"1";"4";"2";"[2,3,4,6,10]";"2";"2";"1"
"372";"26";"101";"1";"7";"2";"1";"4";"1";"[2,4,9]";"1";"0";"1"
"373";"20";"21";"1";"7";"1";"1";"4";"1";"[2,4,9]";"1";"3";"1"
"374";"26";"102";"1";"7";"2";"1";"4";"1";"[2,4,9]";"1";"0";"1"
"375";"11";"22";"1";"8";"1";"1";"4";"2";"[2,3,4,6,10]";"2";"3";"1"
"376";"38";"104";"1";"2";"4";"1";"4";"1";"[6,7,8,9,10]";"1";"0";"1"
"377";"11";"24";"1";"8";"1";"1";"4";"2";"[2,3,4,6,10]";"2";"4";"1"
"378";"7";"104";"1";"2";"2";"1";"4";"1";"[6,7,8,9,10]";"1";"1";"1"
"379";"38";"105";"1";"2";"4";"1";"4";"1";"[6,7,8,9,10]";"1";"0";"1"
"380";"39";"2";"1";"10";"1";"1";"5";"1";"[1,2,3,6,8,9]";"2";"0";"1"
"381";"11";"2";"1";"8";"1";"1";"5";"2";"[2,3,4,6,10]";"2";"0";"1"
"382";"23";"107";"1";"6";"4";"1";"5";"1";"[2,5,8,10]";"1";"0";"1"
"383";"5";"2";"1";"3";"1";"1";"5";"2";"[8,10]";"2";"0";"1"
"384";"18";"107";"1";"2";"3";"1";"5";"1";"[6,7,8,9,10]";"2";"0";"1"
"385";"3";"107";"1";"8";"3";"1";"5";"2";"[2,3,4,6,10]";"2";"0";"1"
"386";"1";"107";"1";"7";"3";"1";"5";"2";"[2,4,9]";"2";"0";"1"
"387";"7";"107";"1";"2";"2";"1";"5";"1";"[6,7,8,9,10]";"1";"0";"1"
"388";"17";"2";"1";"4";"1";"1";"5";"2";"[7,8]";"2";"0";"1"
"389";"19";"107";"1";"1";"4";"1";"5";"1";"[5,10]";"1";"0";"1"
"390";"39";"3";"1";"10";"1";"1";"5";"1";"[1,2,3,6,8,9]";"2";"0";"1"
"391";"30";"108";"1";"6";"3";"1";"5";"2";"[2,5,8,10]";"2";"0";"1"
"392";"6";"108";"1";"6";"2";"1";"5";"1";"[2,5,8,10]";"1";"0";"1"
"393";"11";"3";"1";"8";"1";"1";"5";"2";"[2,3,4,6,10]";"2";"0";"1"
"394";"23";"108";"1";"6";"4";"1";"5";"1";"[2,5,8,10]";"1";"0";"1"
"395";"5";"3";"1";"3";"1";"1";"5";"2";"[8,10]";"2";"0";"1"
"396";"18";"108";"1";"2";"3";"1";"5";"1";"[6,7,8,9,10]";"2";"0";"1"
"397";"1";"108";"1";"7";"3";"1";"5";"2";"[2,4,9]";"2";"0";"1"
"398";"3";"108";"1";"8";"3";"1";"5";"2";"[2,3,4,6,10]";"2";"0";"1"
"399";"7";"108";"1";"2";"2";"1";"5";"1";"[6,7,8,9,10]";"1";"0";"1"
"400";"8";"108";"1";"3";"2";"1";"5";"1";"[8,10]";"1";"0";"1"
"401";"17";"3";"1";"4";"1";"1";"5";"2";"[7,8]";"2";"0";"1"
"402";"24";"108";"1";"4";"2";"1";"5";"2";"[7,8]";"2";"0";"1"
"403";"2";"108";"1";"10";"3";"1";"5";"2";"[1,2,3,6,8,9]";"2";"0";"1"
"404";"40";"108";"1";"4";"3";"1";"5";"2";"[7,8]";"2";"0";"1"
"405";"37";"108";"1";"10";"4";"1";"5";"1";"[1,2,3,6,8,9]";"1";"0";"1"
"406";"19";"108";"1";"1";"4";"1";"5";"1";"[5,10]";"1";"0";"1"
"407";"9";"109";"1";"10";"2";"1";"5";"2";"[1,2,3,6,8,9]";"1";"0";"1"
"408";"21";"109";"1";"8";"4";"1";"5";"1";"[2,3,4,6,10]";"1";"0";"1"
"409";"10";"109";"1";"9";"3";"1";"5";"2";"[2,7,10]";"2";"0";"1"
"410";"30";"109";"1";"6";"3";"1";"5";"2";"[2,5,8,10]";"2";"0";"1"
"411";"6";"109";"1";"6";"2";"1";"5";"1";"[2,5,8,10]";"1";"0";"1"
"412";"33";"4";"1";"9";"1";"1";"5";"1";"[2,7,10]";"2";"0";"1"
"413";"8";"109";"1";"3";"2";"1";"5";"1";"[8,10]";"1";"0";"1"
"414";"24";"109";"1";"4";"2";"1";"5";"2";"[7,8]";"2";"0";"1"
"415";"2";"109";"1";"10";"3";"1";"5";"2";"[1,2,3,6,8,9]";"2";"0";"1"
"416";"40";"109";"1";"4";"3";"1";"5";"2";"[7,8]";"2";"0";"1"
"417";"25";"109";"1";"7";"4";"1";"5";"1";"[2,4,9]";"1";"0";"1"
"418";"37";"109";"1";"10";"4";"1";"5";"1";"[1,2,3,6,8,9]";"1";"0";"1"
"419";"9";"110";"1";"10";"2";"1";"5";"2";"[1,2,3,6,8,9]";"1";"0";"1"
"420";"21";"110";"1";"8";"4";"1";"5";"1";"[2,3,4,6,10]";"1";"0";"1"
"421";"10";"110";"1";"9";"3";"1";"5";"2";"[2,7,10]";"2";"0";"1"
"422";"33";"5";"1";"9";"1";"1";"5";"1";"[2,7,10]";"2";"0";"1"
"423";"32";"5";"1";"6";"1";"1";"5";"1";"[2,5,8,10]";"2";"0";"1"
"424";"28";"110";"1";"9";"4";"1";"5";"2";"[2,7,10]";"2";"0";"1"
"425";"25";"110";"1";"7";"4";"1";"5";"1";"[2,4,9]";"1";"0";"1"
"426";"34";"110";"1";"5";"4";"1";"5";"1";"[1,6]";"1";"0";"1"
"427";"20";"6";"1";"7";"1";"1";"5";"1";"[2,4,9]";"2";"0";"1"
"428";"32";"6";"1";"6";"1";"1";"5";"1";"[2,5,8,10]";"2";"0";"1"
"429";"35";"111";"1";"1";"2";"1";"5";"2";"[5,10]";"2";"0";"1"
"430";"36";"6";"1";"2";"1";"1";"5";"1";"[6,7,8,9,10]";"0";"1";"1"
"431";"28";"111";"1";"9";"4";"1";"5";"2";"[2,7,10]";"2";"0";"1"
"432";"34";"111";"1";"5";"4";"1";"5";"1";"[1,6]";"1";"0";"1"
"433";"20";"7";"1";"7";"1";"1";"5";"1";"[2,4,9]";"2";"0";"1"
"434";"27";"112";"1";"3";"4";"1";"5";"1";"[8,10]";"1";"0";"1"
"435";"35";"112";"1";"1";"2";"1";"5";"2";"[5,10]";"2";"0";"1"
"436";"38";"112";"1";"2";"4";"1";"5";"1";"[6,7,8,9,10]";"1";"0";"1"
"437";"29";"8";"1";"1";"1";"1";"5";"2";"[5,10]";"2";"0";"1"
"438";"31";"113";"1";"1";"3";"1";"5";"2";"[5,10]";"2";"0";"1"
"439";"36";"8";"1";"2";"1";"1";"5";"1";"[6,7,8,9,10]";"0";"2";"1"
"440";"14";"113";"1";"5";"2";"1";"5";"2";"[1,6]";"0";"3";"1"
"441";"4";"113";"1";"3";"3";"1";"5";"1";"[8,10]";"1";"0";"1"
"442";"27";"113";"1";"3";"4";"1";"5";"1";"[8,10]";"1";"0";"1"
"443";"15";"113";"1";"4";"4";"1";"5";"1";"[7,8]";"1";"0";"1"
"444";"38";"113";"1";"2";"4";"1";"5";"1";"[6,7,8,9,10]";"1";"0";"1"
"445";"16";"114";"1";"9";"2";"1";"5";"1";"[2,7,10]";"1";"0";"1"
"446";"29";"9";"1";"1";"1";"1";"5";"2";"[5,10]";"2";"0";"1"
"447";"31";"114";"1";"1";"3";"1";"5";"2";"[5,10]";"2";"0";"1"
"448";"4";"114";"1";"3";"3";"1";"5";"1";"[8,10]";"1";"0";"1"
"449";"15";"114";"1";"4";"4";"1";"5";"1";"[7,8]";"1";"0";"1"
"450";"14";"114";"1";"5";"2";"1";"5";"2";"[1,6]";"0";"1";"1"
"451";"36";"9";"1";"2";"1";"1";"5";"1";"[6,7,8,9,10]";"0";"1";"1"
"452";"16";"115";"1";"9";"2";"1";"5";"1";"[2,7,10]";"1";"0";"1"
"453";"26";"115";"1";"7";"2";"1";"5";"1";"[2,4,9]";"2";"0";"1"
"454";"22";"10";"1";"5";"1";"1";"5";"1";"[1,6]";"1";"0";"1"
"455";"36";"11";"1";"2";"1";"1";"5";"1";"[6,7,8,9,10]";"0";"2";"1"
"456";"14";"116";"1";"5";"2";"1";"5";"2";"[1,6]";"0";"4";"1"
"457";"26";"116";"1";"7";"2";"1";"5";"1";"[2,4,9]";"2";"0";"1"
"458";"22";"11";"1";"5";"1";"1";"5";"1";"[1,6]";"1";"0";"1"
"459";"36";"14";"1";"2";"1";"1";"5";"1";"[6,7,8,9,10]";"0";"4";"1"
"460";"13";"120";"1";"8";"2";"1";"5";"2";"[2,3,4,6,10]";"1";"0";"1"
"461";"36";"16";"1";"2";"1";"1";"5";"1";"[6,7,8,9,10]";"0";"2";"1"
"462";"13";"121";"1";"8";"2";"1";"5";"2";"[2,3,4,6,10]";"1";"0";"1"
"463";"14";"122";"1";"5";"2";"1";"5";"2";"[1,6]";"2";"4";"1"
"464";"14";"123";"1";"5";"2";"1";"5";"2";"[1,6]";"2";"4";"1"
"465";"16";"124";"1";"9";"2";"1";"5";"1";"[2,7,10]";"1";"5";"1"
"466";"36";"19";"1";"2";"1";"1";"5";"1";"[6,7,8,9,10]";"0";"3";"1"
"467";"36";"21";"1";"2";"1";"1";"5";"1";"[6,7,8,9,10]";"0";"4";"1"
"468";"36";"22";"1";"2";"1";"1";"5";"1";"[6,7,8,9,10]";"0";"5";"1"
"469";"36";"24";"1";"2";"1";"1";"5";"1";"[6,7,8,9,10]";"1";"5";"1"
"470";"36";"25";"1";"2";"1";"1";"5";"1";"[6,7,8,9,10]";"1";"5";"1"
"471";"7";"132";"1";"2";"2";"1";"5";"1";"[6,7,8,9,10]";"1";"1";"1"
"472";"7";"134";"1";"2";"2";"1";"5";"1";"[6,7,8,9,10]";"1";"5";"1"
"473";"12";"134";"1";"5";"3";"1";"5";"2";"[1,6]";"2";"0";"1"
"474";"12";"135";"1";"5";"3";"1";"5";"2";"[1,6]";"2";"0";"1"
"475";"36";"1";"1";"2";"1";"1";"6";"1";"[6,7,8,9,10]";"1";"0";"1"
"476";"19";"137";"1";"1";"4";"1";"6";"1";"[5,10]";"1";"0";"1"
"477";"3";"137";"1";"8";"3";"1";"6";"2";"[2,3,4,6,10]";"2";"0";"1"
"478";"5";"2";"1";"3";"1";"1";"6";"2";"[8,10]";"2";"0";"1"
"479";"23";"137";"1";"6";"4";"1";"6";"1";"[2,5,8,10]";"1";"0";"1"
"480";"21";"137";"1";"8";"4";"1";"6";"1";"[2,3,4,6,10]";"1";"0";"1"
"481";"36";"2";"1";"2";"1";"1";"6";"1";"[6,7,8,9,10]";"1";"0";"1"
"482";"39";"2";"1";"10";"1";"1";"6";"1";"[1,2,3,6,8,9]";"2";"0";"1"
"483";"19";"138";"1";"1";"4";"1";"6";"1";"[5,10]";"1";"0";"1"
"484";"3";"138";"1";"8";"3";"1";"6";"2";"[2,3,4,6,10]";"2";"0";"1"
"485";"24";"138";"1";"4";"2";"1";"6";"2";"[7,8]";"2";"0";"1"
"486";"5";"3";"1";"3";"1";"1";"6";"2";"[8,10]";"2";"0";"1"
"487";"23";"138";"1";"6";"4";"1";"6";"1";"[2,5,8,10]";"1";"0";"1"
"488";"21";"138";"1";"8";"4";"1";"6";"1";"[2,3,4,6,10]";"1";"0";"1"
"489";"8";"138";"1";"3";"2";"1";"6";"1";"[8,10]";"1";"0";"1"
"490";"17";"3";"1";"4";"1";"1";"6";"2";"[7,8]";"2";"0";"1"
"491";"39";"3";"1";"10";"1";"1";"6";"1";"[1,2,3,6,8,9]";"2";"0";"1"
"492";"1";"138";"1";"7";"3";"1";"6";"2";"[2,4,9]";"2";"0";"1"
"493";"14";"138";"1";"5";"2";"1";"6";"2";"[1,6]";"2";"0";"1"
"494";"4";"139";"1";"3";"3";"1";"6";"1";"[8,10]";"2";"0";"1"
"495";"24";"139";"1";"4";"2";"1";"6";"2";"[7,8]";"2";"0";"1"
"496";"40";"139";"1";"4";"3";"1";"6";"2";"[7,8]";"2";"0";"1"
"497";"8";"139";"1";"3";"2";"1";"6";"1";"[8,10]";"1";"0";"1"
"498";"18";"139";"1";"2";"3";"1";"6";"1";"[6,7,8,9,10]";"2";"0";"1"
"499";"15";"139";"1";"4";"4";"1";"6";"1";"[7,8]";"0";"4";"1"
"500";"17";"4";"1";"4";"1";"1";"6";"2";"[7,8]";"2";"0";"1"
"501";"10";"139";"1";"9";"3";"1";"6";"2";"[2,7,10]";"2";"0";"1"
"502";"1";"139";"1";"7";"3";"1";"6";"2";"[2,4,9]";"2";"0";"1"
"503";"30";"139";"1";"6";"3";"1";"6";"2";"[2,5,8,10]";"2";"0";"1"
"504";"14";"139";"1";"5";"2";"1";"6";"2";"[1,6]";"2";"0";"1"
"505";"11";"5";"1";"8";"1";"1";"6";"2";"[2,3,4,6,10]";"2";"0";"1"
"506";"7";"140";"1";"2";"2";"1";"6";"1";"[6,7,8,9,10]";"1";"0";"1"
"507";"4";"140";"1";"3";"3";"1";"6";"1";"[8,10]";"2";"0";"1"
"508";"40";"140";"1";"4";"3";"1";"6";"2";"[7,8]";"2";"0";"1"
"509";"18";"140";"1";"2";"3";"1";"6";"1";"[6,7,8,9,10]";"2";"0";"1"
"510";"34";"140";"1";"5";"4";"1";"6";"1";"[1,6]";"1";"0";"1"
"511";"10";"140";"1";"9";"3";"1";"6";"2";"[2,7,10]";"2";"0";"1"
"512";"37";"140";"1";"10";"4";"1";"6";"1";"[1,2,3,6,8,9]";"1";"0";"1"
"513";"29";"5";"1";"1";"1";"1";"6";"2";"[5,10]";"2";"0";"1"
"514";"30";"140";"1";"6";"3";"1";"6";"2";"[2,5,8,10]";"2";"0";"1"
"515";"38";"140";"1";"2";"4";"1";"6";"1";"[6,7,8,9,10]";"1";"0";"1"
"516";"11";"6";"1";"8";"1";"1";"6";"2";"[2,3,4,6,10]";"2";"0";"1"
"517";"7";"141";"1";"2";"2";"1";"6";"1";"[6,7,8,9,10]";"1";"0";"1"
"518";"2";"141";"1";"10";"3";"1";"6";"2";"[1,2,3,6,8,9]";"2";"0";"1"
"519";"9";"141";"1";"10";"2";"1";"6";"2";"[1,2,3,6,8,9]";"1";"0";"1"
"520";"34";"141";"1";"5";"4";"1";"6";"1";"[1,6]";"1";"0";"1"
"521";"35";"141";"1";"1";"2";"1";"6";"2";"[5,10]";"1";"0";"1"
"522";"37";"141";"1";"10";"4";"1";"6";"1";"[1,2,3,6,8,9]";"1";"0";"1"
"523";"29";"6";"1";"1";"1";"1";"6";"2";"[5,10]";"2";"0";"1"
"524";"12";"141";"1";"5";"3";"1";"6";"2";"[1,6]";"2";"0";"1"
"525";"38";"141";"1";"2";"4";"1";"6";"1";"[6,7,8,9,10]";"1";"0";"1"
"526";"2";"142";"1";"10";"3";"1";"6";"2";"[1,2,3,6,8,9]";"2";"0";"1"
"527";"9";"142";"1";"10";"2";"1";"6";"2";"[1,2,3,6,8,9]";"1";"0";"1"
"528";"22";"7";"1";"5";"1";"1";"6";"1";"[1,6]";"1";"0";"1"
"529";"16";"142";"1";"9";"2";"1";"6";"1";"[2,7,10]";"2";"0";"1"
"530";"6";"142";"1";"6";"2";"1";"6";"1";"[2,5,8,10]";"1";"0";"1"
"531";"35";"142";"1";"1";"2";"1";"6";"2";"[5,10]";"1";"0";"1"
"532";"12";"142";"1";"5";"3";"1";"6";"2";"[1,6]";"2";"0";"1"
"533";"33";"8";"1";"9";"1";"1";"6";"1";"[2,7,10]";"2";"0";"1"
"534";"22";"8";"1";"5";"1";"1";"6";"1";"[1,6]";"1";"0";"1"
"535";"16";"143";"1";"9";"2";"1";"6";"1";"[2,7,10]";"2";"0";"1"
"536";"6";"143";"1";"6";"2";"1";"6";"1";"[2,5,8,10]";"1";"0";"1"
"537";"33";"9";"1";"9";"1";"1";"6";"1";"[2,7,10]";"2";"0";"1"
"538";"25";"144";"1";"7";"4";"1";"6";"1";"[2,4,9]";"1";"0";"1"
"539";"25";"145";"1";"7";"4";"1";"6";"1";"[2,4,9]";"1";"0";"1"
"540";"32";"13";"1";"6";"1";"1";"6";"1";"[2,5,8,10]";"2";"0";"1"
"541";"13";"148";"1";"8";"2";"1";"6";"2";"[2,3,4,6,10]";"1";"0";"1"
"542";"32";"14";"1";"6";"1";"1";"6";"1";"[2,5,8,10]";"2";"0";"1"
"543";"13";"149";"1";"8";"2";"1";"6";"2";"[2,3,4,6,10]";"1";"0";"1"
"544";"15";"151";"1";"4";"4";"1";"6";"1";"[7,8]";"1";"4";"1"
"545";"28";"152";"1";"9";"4";"1";"6";"2";"[2,7,10]";"1";"0";"1"
"546";"15";"152";"1";"4";"4";"1";"6";"1";"[7,8]";"1";"4";"1"
"547";"28";"153";"1";"9";"4";"1";"6";"2";"[2,7,10]";"1";"0";"1"
"548";"31";"153";"1";"1";"3";"1";"6";"2";"[5,10]";"2";"0";"1"
"549";"31";"154";"1";"1";"3";"1";"6";"2";"[5,10]";"2";"0";"1"
"550";"27";"155";"1";"3";"4";"1";"6";"1";"[8,10]";"1";"0";"1"
"551";"27";"156";"1";"3";"4";"1";"6";"1";"[8,10]";"1";"0";"1"
"552";"20";"23";"1";"7";"1";"1";"6";"1";"[2,4,9]";"2";"0";"1"
"553";"20";"24";"1";"7";"1";"1";"6";"1";"[2,4,9]";"2";"0";"1"
"554";"26";"165";"1";"7";"2";"1";"6";"1";"[2,4,9]";"0";"0";"1"
"555";"0";"30";"1";"7";"2";"1";"6";"1";"[2,4,9]";"2";"0";"0"
"556";"36";"2";"1";"2";"1";"1";"7";"1";"[6,7,8,9,10]";"1";"0";"1"
"557";"3";"167";"1";"8";"3";"1";"7";"2";"[2,3,4,6,10]";"2";"0";"1"
"558";"21";"167";"1";"8";"4";"1";"7";"1";"[2,3,4,6,10]";"1";"0";"1"
"559";"36";"3";"1";"2";"1";"1";"7";"1";"[6,7,8,9,10]";"1";"0";"1"
"560";"3";"168";"1";"8";"3";"1";"7";"2";"[2,3,4,6,10]";"2";"0";"1"
"561";"14";"168";"1";"5";"2";"1";"7";"2";"[1,6]";"1";"0";"1"
"562";"15";"168";"1";"4";"4";"1";"7";"1";"[7,8]";"1";"0";"1"
"563";"19";"168";"1";"1";"4";"1";"7";"1";"[5,10]";"1";"0";"1"
"564";"37";"168";"1";"10";"4";"1";"7";"1";"[1,2,3,6,8,9]";"1";"0";"1"
"565";"26";"168";"1";"7";"2";"1";"7";"1";"[2,4,9]";"2";"0";"1"
"566";"39";"3";"1";"10";"1";"1";"7";"1";"[1,2,3,6,8,9]";"2";"0";"1"
"567";"18";"168";"1";"2";"3";"1";"7";"1";"[6,7,8,9,10]";"2";"0";"1"
"568";"11";"3";"1";"8";"1";"1";"7";"2";"[2,3,4,6,10]";"2";"0";"1"
"569";"33";"3";"1";"9";"1";"1";"7";"1";"[2,7,10]";"2";"0";"1"
"570";"21";"168";"1";"8";"4";"1";"7";"1";"[2,3,4,6,10]";"1";"0";"1"
"571";"23";"168";"1";"6";"4";"1";"7";"1";"[2,5,8,10]";"1";"0";"1"
"572";"6";"169";"1";"6";"2";"1";"7";"1";"[2,5,8,10]";"1";"0";"1"
"573";"14";"169";"1";"5";"2";"1";"7";"2";"[1,6]";"1";"0";"1"
"574";"1";"169";"1";"7";"3";"1";"7";"2";"[2,4,9]";"2";"0";"1"
"575";"15";"169";"1";"4";"4";"1";"7";"1";"[7,8]";"1";"0";"1"
"576";"19";"169";"1";"1";"4";"1";"7";"1";"[5,10]";"1";"0";"1"
"577";"13";"169";"1";"8";"2";"1";"7";"2";"[2,3,4,6,10]";"1";"0";"1"
"578";"30";"169";"1";"6";"3";"1";"7";"2";"[2,5,8,10]";"2";"0";"1"
"579";"32";"4";"1";"6";"1";"1";"7";"1";"[2,5,8,10]";"0";"5";"1"
"580";"37";"169";"1";"10";"4";"1";"7";"1";"[1,2,3,6,8,9]";"1";"0";"1"
"581";"26";"169";"1";"7";"2";"1";"7";"1";"[2,4,9]";"2";"0";"1"
"582";"39";"4";"1";"10";"1";"1";"7";"1";"[1,2,3,6,8,9]";"2";"0";"1"
"583";"18";"169";"1";"2";"3";"1";"7";"1";"[6,7,8,9,10]";"2";"0";"1"
"584";"11";"4";"1";"8";"1";"1";"7";"2";"[2,3,4,6,10]";"2";"0";"1"
"585";"33";"4";"1";"9";"1";"1";"7";"1";"[2,7,10]";"2";"0";"1"
"586";"8";"169";"1";"3";"2";"1";"7";"1";"[8,10]";"1";"0";"1"
"587";"23";"169";"1";"6";"4";"1";"7";"1";"[2,5,8,10]";"1";"0";"1"
"588";"5";"5";"1";"3";"1";"1";"7";"2";"[8,10]";"2";"0";"1"
"589";"6";"170";"1";"6";"2";"1";"7";"1";"[2,5,8,10]";"1";"0";"1"
"590";"1";"170";"1";"7";"3";"1";"7";"2";"[2,4,9]";"2";"0";"1"
"591";"13";"170";"1";"8";"2";"1";"7";"2";"[2,3,4,6,10]";"1";"0";"1"
"592";"30";"170";"1";"6";"3";"1";"7";"2";"[2,5,8,10]";"2";"0";"1"
"593";"10";"170";"1";"9";"3";"1";"7";"2";"[2,7,10]";"2";"0";"1"
"594";"32";"5";"1";"6";"1";"1";"7";"1";"[2,5,8,10]";"0";"4";"1"
"595";"17";"5";"1";"4";"1";"1";"7";"2";"[7,8]";"2";"0";"1"
"596";"22";"5";"1";"5";"1";"1";"7";"1";"[1,6]";"1";"0";"1"
"597";"8";"170";"1";"3";"2";"1";"7";"1";"[8,10]";"1";"0";"1"
"598";"5";"6";"1";"3";"1";"1";"7";"2";"[8,10]";"2";"0";"1"
"599";"2";"171";"1";"10";"3";"1";"7";"2";"[1,2,3,6,8,9]";"1";"0";"1"
"600";"28";"171";"1";"9";"4";"1";"7";"2";"[2,7,10]";"1";"0";"1"
"601";"10";"171";"1";"9";"3";"1";"7";"2";"[2,7,10]";"2";"0";"1"
"602";"32";"6";"1";"6";"1";"1";"7";"1";"[2,5,8,10]";"0";"3";"1"
"603";"4";"171";"1";"3";"3";"1";"7";"1";"[8,10]";"2";"0";"1"
"604";"17";"6";"1";"4";"1";"1";"7";"2";"[7,8]";"2";"0";"1"
"605";"22";"6";"1";"5";"1";"1";"7";"1";"[1,6]";"1";"0";"1"
"606";"29";"7";"1";"1";"1";"1";"7";"2";"[5,10]";"2";"0";"1"
"607";"2";"172";"1";"10";"3";"1";"7";"2";"[1,2,3,6,8,9]";"1";"0";"1"
"608";"28";"172";"1";"9";"4";"1";"7";"2";"[2,7,10]";"1";"0";"1"
"609";"32";"7";"1";"6";"1";"1";"7";"1";"[2,5,8,10]";"0";"2";"1"
"610";"4";"172";"1";"3";"3";"1";"7";"1";"[8,10]";"2";"0";"1"
"611";"29";"8";"1";"1";"1";"1";"7";"2";"[5,10]";"2";"0";"1"
"612";"24";"173";"1";"4";"2";"1";"7";"2";"[7,8]";"2";"0";"1"
"613";"27";"173";"1";"3";"4";"1";"7";"1";"[8,10]";"1";"0";"1"
"614";"16";"173";"1";"9";"2";"1";"7";"1";"[2,7,10]";"2";"0";"1"
"615";"32";"8";"1";"6";"1";"1";"7";"1";"[2,5,8,10]";"0";"1";"1"
"616";"7";"173";"1";"2";"2";"1";"7";"1";"[6,7,8,9,10]";"1";"0";"1"
"617";"34";"174";"1";"5";"4";"1";"7";"1";"[1,6]";"1";"0";"1"
"618";"24";"174";"1";"4";"2";"1";"7";"2";"[7,8]";"2";"0";"1"
"619";"27";"174";"1";"3";"4";"1";"7";"1";"[8,10]";"1";"0";"1"
"620";"38";"174";"1";"2";"4";"1";"7";"1";"[6,7,8,9,10]";"1";"0";"1"
"621";"16";"174";"1";"9";"2";"1";"7";"1";"[2,7,10]";"2";"0";"1"
"622";"25";"174";"1";"7";"4";"1";"7";"1";"[2,4,9]";"1";"0";"1"
"623";"7";"174";"1";"2";"2";"1";"7";"1";"[6,7,8,9,10]";"1";"0";"1"
"624";"34";"175";"1";"5";"4";"1";"7";"1";"[1,6]";"1";"0";"1"
"625";"38";"175";"1";"2";"4";"1";"7";"1";"[6,7,8,9,10]";"1";"0";"1"
"626";"25";"175";"1";"7";"4";"1";"7";"1";"[2,4,9]";"1";"0";"1"
"627";"40";"175";"1";"4";"3";"1";"7";"2";"[7,8]";"2";"0";"1"
"628";"40";"176";"1";"4";"3";"1";"7";"2";"[7,8]";"2";"0";"1"
"629";"32";"12";"1";"6";"1";"1";"7";"1";"[2,5,8,10]";"0";"5";"1"
"630";"31";"178";"1";"1";"3";"1";"7";"2";"[5,10]";"2";"0";"1"
"631";"32";"13";"1";"6";"1";"1";"7";"1";"[2,5,8,10]";"0";"6";"1"
"632";"31";"179";"1";"1";"3";"1";"7";"2";"[5,10]";"2";"0";"1"
"633";"35";"179";"1";"1";"2";"1";"7";"2";"[5,10]";"1";"0";"1"
"634";"20";"14";"1";"7";"1";"1";"7";"1";"[2,4,9]";"2";"0";"1"
"635";"12";"180";"1";"5";"3";"1";"7";"2";"[1,6]";"2";"0";"1"
"636";"35";"180";"1";"1";"2";"1";"7";"2";"[5,10]";"1";"0";"1"
"637";"20";"15";"1";"7";"1";"1";"7";"1";"[2,4,9]";"2";"0";"1"
"638";"12";"181";"1";"5";"3";"1";"7";"2";"[1,6]";"2";"0";"1"
"639";"32";"16";"1";"6";"1";"1";"7";"1";"[2,5,8,10]";"0";"7";"1"
"640";"9";"181";"1";"10";"2";"1";"7";"2";"[1,2,3,6,8,9]";"1";"0";"1"
"641";"9";"182";"1";"10";"2";"1";"7";"2";"[1,2,3,6,8,9]";"1";"0";"1"
"642";"32";"18";"1";"6";"1";"1";"7";"1";"[2,5,8,10]";"2";"7";"1"
"643";"32";"19";"1";"6";"1";"1";"7";"1";"[2,5,8,10]";"2";"7";"1"
"644";"24";"185";"1";"4";"2";"1";"8";"2";"[7,8]";"2";"0";"1"
"645";"33";"1";"1";"9";"1";"1";"8";"1";"[2,7,10]";"2";"0";"1"
"646";"14";"185";"1";"5";"2";"1";"8";"2";"[1,6]";"1";"0";"1"
"647";"28";"186";"1";"9";"4";"1";"8";"2";"[2,7,10]";"1";"0";"1"
"648";"36";"2";"1";"2";"1";"1";"8";"1";"[6,7,8,9,10]";"0";"1";"1"
"649";"39";"2";"1";"10";"1";"1";"8";"1";"[1,2,3,6,8,9]";"2";"0";"1"
"650";"15";"186";"1";"4";"4";"1";"8";"1";"[7,8]";"1";"0";"1"
"651";"23";"186";"1";"6";"4";"1";"8";"1";"[2,5,8,10]";"1";"0";"1"
"652";"37";"186";"1";"10";"4";"1";"8";"1";"[1,2,3,6,8,9]";"1";"0";"1"
"653";"2";"186";"1";"10";"3";"1";"8";"2";"[1,2,3,6,8,9]";"2";"0";"1"
"654";"11";"2";"1";"8";"1";"1";"8";"2";"[2,3,4,6,10]";"2";"0";"1"
"655";"24";"186";"1";"4";"2";"1";"8";"2";"[7,8]";"2";"0";"1"
"656";"33";"2";"1";"9";"1";"1";"8";"1";"[2,7,10]";"2";"0";"1"
"657";"40";"186";"1";"4";"3";"1";"8";"2";"[7,8]";"2";"0";"1"
"658";"19";"186";"1";"1";"4";"1";"8";"1";"[5,10]";"1";"0";"1"
"659";"14";"186";"1";"5";"2";"1";"8";"2";"[1,6]";"1";"0";"1"
"660";"28";"187";"1";"9";"4";"1";"8";"2";"[2,7,10]";"1";"0";"1"
"661";"39";"3";"1";"10";"1";"1";"8";"1";"[1,2,3,6,8,9]";"2";"0";"1"
"662";"15";"187";"1";"4";"4";"1";"8";"1";"[7,8]";"1";"0";"1"
"663";"23";"187";"1";"6";"4";"1";"8";"1";"[2,5,8,10]";"1";"0";"1"
"664";"37";"187";"1";"10";"4";"1";"8";"1";"[1,2,3,6,8,9]";"1";"0";"1"
"665";"2";"187";"1";"10";"3";"1";"8";"2";"[1,2,3,6,8,9]";"2";"0";"1"
"666";"21";"187";"1";"8";"4";"1";"8";"1";"[2,3,4,6,10]";"1";"0";"1"
"667";"11";"3";"1";"8";"1";"1";"8";"2";"[2,3,4,6,10]";"2";"0";"1"
"668";"6";"187";"1";"6";"2";"1";"8";"1";"[2,5,8,10]";"1";"0";"1"
"669";"40";"187";"1";"4";"3";"1";"8";"2";"[7,8]";"2";"0";"1"
"670";"19";"187";"1";"1";"4";"1";"8";"1";"[5,10]";"1";"0";"1"
"671";"9";"188";"1";"10";"2";"1";"8";"2";"[1,2,3,6,8,9]";"1";"0";"1"
"672";"21";"188";"1";"8";"4";"1";"8";"1";"[2,3,4,6,10]";"1";"0";"1"
"673";"17";"4";"1";"4";"1";"1";"8";"2";"[7,8]";"2";"0";"1"
"674";"36";"4";"1";"2";"1";"1";"8";"1";"[6,7,8,9,10]";"0";"7";"1"
"675";"3";"188";"1";"8";"3";"1";"8";"2";"[2,3,4,6,10]";"2";"0";"1"
"676";"6";"188";"1";"6";"2";"1";"8";"1";"[2,5,8,10]";"1";"0";"1"
"677";"9";"189";"1";"10";"2";"1";"8";"2";"[1,2,3,6,8,9]";"1";"0";"1"
"678";"38";"189";"1";"2";"4";"1";"8";"1";"[6,7,8,9,10]";"1";"0";"1"
"679";"17";"5";"1";"4";"1";"1";"8";"2";"[7,8]";"2";"0";"1"
"680";"13";"189";"1";"8";"2";"1";"8";"2";"[2,3,4,6,10]";"1";"0";"1"
"681";"3";"189";"1";"8";"3";"1";"8";"2";"[2,3,4,6,10]";"2";"0";"1"
"682";"30";"189";"1";"6";"3";"1";"8";"2";"[2,5,8,10]";"2";"0";"1"
"683";"27";"189";"1";"3";"4";"1";"8";"1";"[8,10]";"1";"0";"1"
"684";"29";"6";"1";"1";"1";"1";"8";"2";"[5,10]";"2";"0";"1"
"685";"26";"190";"1";"7";"2";"1";"8";"1";"[2,4,9]";"2";"0";"1"
"686";"38";"190";"1";"2";"4";"1";"8";"1";"[6,7,8,9,10]";"1";"0";"1"
"687";"13";"190";"1";"8";"2";"1";"8";"2";"[2,3,4,6,10]";"1";"0";"1"
"688";"30";"190";"1";"6";"3";"1";"8";"2";"[2,5,8,10]";"2";"0";"1"
"689";"27";"190";"1";"3";"4";"1";"8";"1";"[8,10]";"1";"0";"1"
"690";"36";"7";"1";"2";"1";"1";"8";"1";"[6,7,8,9,10]";"1";"7";"1"
"691";"4";"191";"1";"3";"3";"1";"8";"1";"[8,10]";"1";"0";"1"
"692";"29";"7";"1";"1";"1";"1";"8";"2";"[5,10]";"2";"0";"1"
"693";"1";"191";"1";"7";"3";"1";"8";"2";"[2,4,9]";"2";"0";"1"
"694";"26";"191";"1";"7";"2";"1";"8";"1";"[2,4,9]";"2";"0";"1"
"695";"22";"7";"1";"5";"1";"1";"8";"1";"[1,6]";"0";"1";"1"
"696";"16";"191";"1";"9";"2";"1";"8";"1";"[2,7,10]";"1";"0";"1"
"697";"35";"191";"1";"1";"2";"1";"8";"2";"[5,10]";"1";"0";"1"
"698";"36";"8";"1";"2";"1";"1";"8";"1";"[6,7,8,9,10]";"1";"7";"1"
"699";"4";"192";"1";"3";"3";"1";"8";"1";"[8,10]";"1";"0";"1"
"700";"1";"192";"1";"7";"3";"1";"8";"2";"[2,4,9]";"2";"0";"1"
"701";"32";"8";"1";"6";"1";"1";"8";"1";"[2,5,8,10]";"0";"6";"1"
"702";"5";"8";"1";"3";"1";"1";"8";"2";"[8,10]";"2";"0";"1"
"703";"31";"192";"1";"1";"3";"1";"8";"2";"[5,10]";"2";"0";"1"
"704";"16";"192";"1";"9";"2";"1";"8";"1";"[2,7,10]";"1";"0";"1"
"705";"25";"192";"1";"7";"4";"1";"8";"1";"[2,4,9]";"1";"0";"1"
"706";"35";"193";"1";"1";"2";"1";"8";"2";"[5,10]";"1";"0";"1"
"707";"32";"9";"1";"6";"1";"1";"8";"1";"[2,5,8,10]";"0";"7";"1"
"708";"22";"9";"1";"5";"1";"1";"8";"1";"[1,6]";"0";"2";"1"
"709";"5";"9";"1";"3";"1";"1";"8";"2";"[8,10]";"2";"0";"1"
"710";"12";"193";"1";"5";"3";"1";"8";"2";"[1,6]";"2";"0";"1"
"711";"31";"193";"1";"1";"3";"1";"8";"2";"[5,10]";"2";"0";"1"
"712";"34";"193";"1";"5";"4";"1";"8";"1";"[1,6]";"1";"0";"1"
"713";"25";"193";"1";"7";"4";"1";"8";"1";"[2,4,9]";"1";"0";"1"
"714";"32";"10";"1";"6";"1";"1";"8";"1";"[2,5,8,10]";"1";"7";"1"
"715";"12";"194";"1";"5";"3";"1";"8";"2";"[1,6]";"2";"0";"1"
"716";"34";"194";"1";"5";"4";"1";"8";"1";"[1,6]";"1";"0";"1"
"717";"32";"11";"1";"6";"1";"1";"8";"1";"[2,5,8,10]";"1";"7";"1"
"718";"22";"11";"1";"5";"1";"1";"8";"1";"[1,6]";"0";"3";"1"
"719";"22";"12";"1";"5";"1";"1";"8";"1";"[1,6]";"0";"4";"1"
"720";"10";"197";"1";"9";"3";"1";"8";"2";"[2,7,10]";"2";"0";"1"
"721";"22";"13";"1";"5";"1";"1";"8";"1";"[1,6]";"0";"5";"1"
"722";"10";"198";"1";"9";"3";"1";"8";"2";"[2,7,10]";"2";"0";"1"
"723";"22";"15";"1";"5";"1";"1";"8";"1";"[1,6]";"0";"6";"1"
"724";"22";"16";"1";"5";"1";"1";"8";"1";"[1,6]";"0";"7";"1"
"725";"8";"201";"1";"3";"2";"1";"8";"1";"[8,10]";"1";"0";"1"
"726";"18";"201";"1";"2";"3";"1";"8";"1";"[6,7,8,9,10]";"2";"0";"1"
"727";"22";"18";"1";"5";"1";"1";"8";"1";"[1,6]";"0";"8";"1"
"728";"8";"202";"1";"3";"2";"1";"8";"1";"[8,10]";"1";"0";"1"
"729";"18";"202";"1";"2";"3";"1";"8";"1";"[6,7,8,9,10]";"2";"0";"1"
"730";"20";"19";"1";"7";"1";"1";"8";"1";"[2,4,9]";"1";"0";"1"
"731";"20";"20";"1";"7";"1";"1";"8";"1";"[2,4,9]";"1";"0";"1"
"732";"7";"204";"1";"2";"2";"1";"8";"1";"[6,7,8,9,10]";"1";"0";"1"
"733";"7";"205";"1";"2";"2";"1";"8";"1";"[6,7,8,9,10]";"1";"0";"1"
"734";"22";"24";"1";"5";"1";"1";"8";"1";"[1,6]";"0";"8";"1"
"735";"22";"25";"1";"5";"1";"1";"8";"1";"[1,6]";"2";"8";"1"
"736";"22";"26";"1";"5";"1";"1";"8";"1";"[1,6]";"2";"8";"1"
"737";"28";"211";"1";"9";"4";"1";"9";"2";"[2,7,10]";"1";"0";"1"
"738";"39";"1";"1";"10";"1";"1";"9";"1";"[1,2,3,6,8,9]";"2";"0";"1"
"739";"3";"211";"1";"8";"3";"1";"9";"2";"[2,3,4,6,10]";"2";"0";"1"
"740";"5";"1";"1";"3";"1";"1";"9";"2";"[8,10]";"2";"0";"1"
"741";"14";"212";"1";"5";"2";"1";"9";"2";"[1,6]";"1";"0";"1"
"742";"22";"2";"1";"5";"1";"1";"9";"1";"[1,6]";"0";"9";"1"
"743";"1";"212";"1";"7";"3";"1";"9";"2";"[2,4,9]";"2";"0";"1"
"744";"37";"212";"1";"10";"4";"1";"9";"1";"[1,2,3,6,8,9]";"1";"0";"1"
"745";"28";"212";"1";"9";"4";"1";"9";"2";"[2,7,10]";"1";"0";"1"
"746";"3";"212";"1";"8";"3";"1";"9";"2";"[2,3,4,6,10]";"2";"0";"1"
"747";"39";"2";"1";"10";"1";"1";"9";"1";"[1,2,3,6,8,9]";"2";"0";"1"
"748";"25";"212";"1";"7";"4";"1";"9";"1";"[2,4,9]";"1";"0";"1"
"749";"36";"2";"1";"2";"1";"1";"9";"1";"[6,7,8,9,10]";"1";"0";"1"
"750";"5";"2";"1";"3";"1";"1";"9";"2";"[8,10]";"2";"0";"1"
"751";"33";"2";"1";"9";"1";"1";"9";"1";"[2,7,10]";"2";"0";"1"
"752";"23";"212";"1";"6";"4";"1";"9";"1";"[2,5,8,10]";"1";"0";"1"
"753";"6";"212";"1";"6";"2";"1";"9";"1";"[2,5,8,10]";"1";"0";"1"
"754";"19";"212";"1";"1";"4";"1";"9";"1";"[5,10]";"1";"0";"1"
"755";"7";"212";"1";"2";"2";"1";"9";"1";"[6,7,8,9,10]";"1";"0";"1"
"756";"21";"212";"1";"8";"4";"1";"9";"1";"[2,3,4,6,10]";"1";"0";"1"
"757";"32";"3";"1";"6";"1";"1";"9";"1";"[2,5,8,10]";"2";"0";"1"
"758";"24";"213";"1";"4";"2";"1";"9";"2";"[7,8]";"2";"0";"1"
"759";"14";"213";"1";"5";"2";"1";"9";"2";"[1,6]";"1";"0";"1"
"760";"40";"213";"1";"4";"3";"1";"9";"2";"[7,8]";"2";"0";"1"
"761";"1";"213";"1";"7";"3";"1";"9";"2";"[2,4,9]";"2";"0";"1"
"762";"37";"213";"1";"10";"4";"1";"9";"1";"[1,2,3,6,8,9]";"1";"0";"1"
"763";"35";"213";"1";"1";"2";"1";"9";"2";"[5,10]";"2";"0";"1"
"764";"25";"213";"1";"7";"4";"1";"9";"1";"[2,4,9]";"1";"0";"1"
"765";"8";"213";"1";"3";"2";"1";"9";"1";"[8,10]";"1";"0";"1"
"766";"36";"3";"1";"2";"1";"1";"9";"1";"[6,7,8,9,10]";"1";"0";"1"
"767";"38";"213";"1";"2";"4";"1";"9";"1";"[6,7,8,9,10]";"1";"0";"1"
"768";"33";"3";"1";"9";"1";"1";"9";"1";"[2,7,10]";"2";"0";"1"
"769";"23";"213";"1";"6";"4";"1";"9";"1";"[2,5,8,10]";"1";"0";"1"
"770";"6";"213";"1";"6";"2";"1";"9";"1";"[2,5,8,10]";"1";"0";"1"
"771";"19";"213";"1";"1";"4";"1";"9";"1";"[5,10]";"1";"0";"1"
"772";"21";"213";"1";"8";"4";"1";"9";"1";"[2,3,4,6,10]";"1";"0";"1"
"773";"7";"213";"1";"2";"2";"1";"9";"1";"[6,7,8,9,10]";"1";"0";"1"
"774";"27";"213";"1";"3";"4";"1";"9";"1";"[8,10]";"1";"0";"1"
"775";"34";"214";"1";"5";"4";"1";"9";"1";"[1,6]";"1";"0";"1"
"776";"11";"4";"1";"8";"1";"1";"9";"2";"[2,3,4,6,10]";"2";"0";"1"
"777";"32";"4";"1";"6";"1";"1";"9";"1";"[2,5,8,10]";"2";"0";"1"
"778";"24";"214";"1";"4";"2";"1";"9";"2";"[7,8]";"2";"0";"1"
"779";"40";"214";"1";"4";"3";"1";"9";"2";"[7,8]";"2";"0";"1"
"780";"35";"214";"1";"1";"2";"1";"9";"2";"[5,10]";"2";"0";"1"
"781";"30";"214";"1";"6";"3";"1";"9";"2";"[2,5,8,10]";"2";"0";"1"
"782";"16";"214";"1";"9";"2";"1";"9";"1";"[2,7,10]";"1";"0";"1"
"783";"8";"214";"1";"3";"2";"1";"9";"1";"[8,10]";"1";"0";"1"
"784";"10";"214";"1";"9";"3";"1";"9";"2";"[2,7,10]";"2";"0";"1"
"785";"38";"214";"1";"2";"4";"1";"9";"1";"[6,7,8,9,10]";"1";"0";"1"
"786";"27";"214";"1";"3";"4";"1";"9";"1";"[8,10]";"1";"0";"1"
"787";"34";"215";"1";"5";"4";"1";"9";"1";"[1,6]";"1";"0";"1"
"788";"11";"5";"1";"8";"1";"1";"9";"2";"[2,3,4,6,10]";"2";"0";"1"
"789";"30";"215";"1";"6";"3";"1";"9";"2";"[2,5,8,10]";"2";"0";"1"
"790";"15";"215";"1";"4";"4";"1";"9";"1";"[7,8]";"1";"0";"1"
"791";"16";"215";"1";"9";"2";"1";"9";"1";"[2,7,10]";"1";"0";"1"
"792";"10";"215";"1";"9";"3";"1";"9";"2";"[2,7,10]";"2";"0";"1"
"793";"2";"216";"1";"10";"3";"1";"9";"2";"[1,2,3,6,8,9]";"2";"0";"1"
"794";"29";"6";"1";"1";"1";"1";"9";"2";"[5,10]";"2";"0";"1"
"795";"17";"6";"1";"4";"1";"1";"9";"2";"[7,8]";"2";"0";"1"
"796";"9";"216";"1";"10";"2";"1";"9";"2";"[1,2,3,6,8,9]";"1";"0";"1"
"797";"15";"216";"1";"4";"4";"1";"9";"1";"[7,8]";"1";"0";"1"
"798";"2";"217";"1";"10";"3";"1";"9";"2";"[1,2,3,6,8,9]";"2";"0";"1"
"799";"29";"7";"1";"1";"1";"1";"9";"2";"[5,10]";"2";"0";"1"
"800";"17";"7";"1";"4";"1";"1";"9";"2";"[7,8]";"2";"0";"1"
"801";"9";"217";"1";"10";"2";"1";"9";"2";"[1,2,3,6,8,9]";"1";"0";"1"
"802";"22";"7";"1";"5";"1";"1";"9";"1";"[1,6]";"2";"9";"1"
"803";"22";"8";"1";"5";"1";"1";"9";"1";"[1,6]";"2";"9";"1"
"804";"4";"218";"1";"3";"3";"1";"9";"1";"[8,10]";"1";"0";"1"
"805";"4";"219";"1";"3";"3";"1";"9";"1";"[8,10]";"1";"0";"1"
"806";"13";"220";"1";"8";"2";"1";"9";"2";"[2,3,4,6,10]";"1";"0";"1"
"807";"31";"221";"1";"1";"3";"1";"9";"2";"[5,10]";"2";"0";"1"
"808";"12";"221";"1";"5";"3";"1";"9";"2";"[1,6]";"2";"0";"1"
"809";"13";"221";"1";"8";"2";"1";"9";"2";"[2,3,4,6,10]";"1";"0";"1"
"810";"31";"222";"1";"1";"3";"1";"9";"2";"[5,10]";"2";"0";"1"
"811";"20";"12";"1";"7";"1";"1";"9";"1";"[2,4,9]";"1";"0";"1"
"812";"12";"222";"1";"5";"3";"1";"9";"2";"[1,6]";"2";"0";"1"
"813";"20";"13";"1";"7";"1";"1";"9";"1";"[2,4,9]";"1";"0";"1"
"814";"18";"227";"1";"2";"3";"1";"9";"1";"[6,7,8,9,10]";"2";"0";"1"
"815";"18";"228";"1";"2";"3";"1";"9";"1";"[6,7,8,9,10]";"2";"0";"1"
"816";"28";"237";"1";"9";"4";"1";"9";"2";"[2,7,10]";"1";"2";"1"
"817";"26";"237";"1";"7";"2";"1";"9";"1";"[2,4,9]";"1";"0";"1"
"818";"28";"238";"1";"9";"4";"1";"9";"2";"[2,7,10]";"1";"9";"1"
"819";"26";"238";"1";"7";"2";"1";"9";"1";"[2,4,9]";"1";"0";"1"
"820";"19";"240";"1";"1";"4";"1";"10";"1";"[5,10]";"1";"0";"1"
"821";"3";"240";"1";"8";"3";"1";"10";"2";"[2,3,4,6,10]";"2";"0";"1"
"822";"39";"2";"1";"10";"1";"1";"10";"1";"[1,2,3,6,8,9]";"2";"0";"1"
"823";"36";"2";"1";"2";"1";"1";"10";"1";"[6,7,8,9,10]";"1";"0";"1"
"824";"6";"240";"1";"6";"2";"1";"10";"1";"[2,5,8,10]";"1";"0";"1"
"825";"21";"240";"1";"8";"4";"1";"10";"1";"[2,3,4,6,10]";"1";"0";"1"
"826";"23";"240";"1";"6";"4";"1";"10";"1";"[2,5,8,10]";"1";"0";"1"
"827";"19";"241";"1";"1";"4";"1";"10";"1";"[5,10]";"1";"0";"1"
"828";"3";"241";"1";"8";"3";"1";"10";"2";"[2,3,4,6,10]";"2";"0";"1"
"829";"8";"241";"1";"3";"2";"1";"10";"1";"[8,10]";"1";"0";"1"
"830";"2";"241";"1";"10";"3";"1";"10";"2";"[1,2,3,6,8,9]";"2";"0";"1"
"831";"28";"241";"1";"9";"4";"1";"10";"2";"[2,7,10]";"1";"0";"1"
"832";"39";"3";"1";"10";"1";"1";"10";"1";"[1,2,3,6,8,9]";"2";"0";"1"
"833";"14";"241";"1";"5";"2";"1";"10";"2";"[1,6]";"1";"0";"1"
"834";"6";"241";"1";"6";"2";"1";"10";"1";"[2,5,8,10]";"1";"0";"1"
"835";"36";"3";"1";"2";"1";"1";"10";"1";"[6,7,8,9,10]";"1";"0";"1"
"836";"7";"241";"1";"2";"2";"1";"10";"1";"[6,7,8,9,10]";"1";"0";"1"
"837";"21";"241";"1";"8";"4";"1";"10";"1";"[2,3,4,6,10]";"1";"0";"1"
"838";"23";"241";"1";"6";"4";"1";"10";"1";"[2,5,8,10]";"1";"0";"1"
"839";"24";"241";"1";"4";"2";"1";"10";"2";"[7,8]";"2";"0";"1"
"840";"11";"3";"1";"8";"1";"1";"10";"2";"[2,3,4,6,10]";"2";"0";"1"
"841";"16";"241";"1";"9";"2";"1";"10";"1";"[2,7,10]";"1";"0";"1"
"842";"5";"3";"1";"3";"1";"1";"10";"2";"[8,10]";"2";"0";"1"
"843";"17";"4";"1";"4";"1";"1";"10";"2";"[7,8]";"2";"0";"1"
"844";"10";"242";"1";"9";"3";"1";"10";"2";"[2,7,10]";"2";"0";"1"
"845";"8";"242";"1";"3";"2";"1";"10";"1";"[8,10]";"1";"0";"1"
"846";"40";"242";"1";"4";"3";"1";"10";"2";"[7,8]";"2";"0";"1"
"847";"2";"242";"1";"10";"3";"1";"10";"2";"[1,2,3,6,8,9]";"2";"0";"1"
"848";"15";"242";"1";"4";"4";"1";"10";"1";"[7,8]";"1";"0";"1"
"849";"12";"242";"1";"5";"3";"1";"10";"2";"[1,6]";"2";"0";"1"
"850";"28";"242";"1";"9";"4";"1";"10";"2";"[2,7,10]";"1";"0";"1"
"851";"9";"242";"1";"10";"2";"1";"10";"2";"[1,2,3,6,8,9]";"1";"0";"1"
"852";"29";"4";"1";"1";"1";"1";"10";"2";"[5,10]";"2";"0";"1"
"853";"14";"242";"1";"5";"2";"1";"10";"2";"[1,6]";"1";"0";"1"
"854";"7";"242";"1";"2";"2";"1";"10";"1";"[6,7,8,9,10]";"1";"0";"1"
"855";"4";"242";"1";"3";"3";"1";"10";"1";"[8,10]";"2";"0";"1"
"856";"35";"242";"1";"1";"2";"1";"10";"2";"[5,10]";"2";"0";"1"
"857";"1";"242";"1";"7";"3";"1";"10";"2";"[2,4,9]";"2";"0";"1"
"858";"24";"242";"1";"4";"2";"1";"10";"2";"[7,8]";"2";"0";"1"
"859";"11";"4";"1";"8";"1";"1";"10";"2";"[2,3,4,6,10]";"2";"0";"1"
"860";"37";"242";"1";"10";"4";"1";"10";"1";"[1,2,3,6,8,9]";"1";"0";"1"
"861";"32";"4";"1";"6";"1";"1";"10";"1";"[2,5,8,10]";"2";"0";"1"
"862";"16";"242";"1";"9";"2";"1";"10";"1";"[2,7,10]";"1";"0";"1"
"863";"5";"4";"1";"3";"1";"1";"10";"2";"[8,10]";"2";"0";"1"
"864";"17";"5";"1";"4";"1";"1";"10";"2";"[7,8]";"2";"0";"1"
"865";"10";"243";"1";"9";"3";"1";"10";"2";"[2,7,10]";"2";"0";"1"
"866";"40";"243";"1";"4";"3";"1";"10";"2";"[7,8]";"2";"0";"1"
"867";"15";"243";"1";"4";"4";"1";"10";"1";"[7,8]";"1";"0";"1"
"868";"12";"243";"1";"5";"3";"1";"10";"2";"[1,6]";"2";"0";"1"
"869";"9";"243";"1";"10";"2";"1";"10";"2";"[1,2,3,6,8,9]";"1";"0";"1"
"870";"29";"5";"1";"1";"1";"1";"10";"2";"[5,10]";"2";"0";"1"
"871";"4";"243";"1";"3";"3";"1";"10";"1";"[8,10]";"2";"0";"1"
"872";"35";"243";"1";"1";"2";"1";"10";"2";"[5,10]";"2";"0";"1"
"873";"1";"243";"1";"7";"3";"1";"10";"2";"[2,4,9]";"2";"0";"1"
"874";"37";"243";"1";"10";"4";"1";"10";"1";"[1,2,3,6,8,9]";"1";"0";"1"
"875";"32";"5";"1";"6";"1";"1";"10";"1";"[2,5,8,10]";"2";"0";"1"
"876";"27";"244";"1";"3";"4";"1";"10";"1";"[8,10]";"1";"0";"1"
"877";"34";"244";"1";"5";"4";"1";"10";"1";"[1,6]";"1";"0";"1"
"878";"38";"244";"1";"2";"4";"1";"10";"1";"[6,7,8,9,10]";"1";"0";"1"
"879";"27";"245";"1";"3";"4";"1";"10";"1";"[8,10]";"1";"0";"1"
"880";"34";"245";"1";"5";"4";"1";"10";"1";"[1,6]";"1";"0";"1"
"881";"30";"245";"1";"6";"3";"1";"10";"2";"[2,5,8,10]";"2";"0";"1"
"882";"18";"245";"1";"2";"3";"1";"10";"1";"[6,7,8,9,10]";"2";"0";"1"
"883";"38";"245";"1";"2";"4";"1";"10";"1";"[6,7,8,9,10]";"1";"0";"1"
"884";"30";"246";"1";"6";"3";"1";"10";"2";"[2,5,8,10]";"2";"0";"1"
"885";"33";"8";"1";"9";"1";"1";"10";"1";"[2,7,10]";"2";"0";"1"
"886";"18";"246";"1";"2";"3";"1";"10";"1";"[6,7,8,9,10]";"2";"0";"1"
"887";"25";"247";"1";"7";"4";"1";"10";"1";"[2,4,9]";"1";"0";"1"
"888";"13";"247";"1";"8";"2";"1";"10";"2";"[2,3,4,6,10]";"1";"0";"1"
"889";"33";"9";"1";"9";"1";"1";"10";"1";"[2,7,10]";"2";"0";"1"
"890";"25";"248";"1";"7";"4";"1";"10";"1";"[2,4,9]";"1";"0";"1"
"891";"13";"248";"1";"8";"2";"1";"10";"2";"[2,3,4,6,10]";"1";"0";"1"
"892";"20";"13";"1";"7";"1";"1";"10";"1";"[2,4,9]";"1";"0";"1"
"893";"31";"252";"1";"1";"3";"1";"10";"2";"[5,10]";"2";"0";"1"
"894";"20";"14";"1";"7";"1";"1";"10";"1";"[2,4,9]";"1";"0";"1"
"895";"31";"253";"1";"1";"3";"1";"10";"2";"[5,10]";"2";"0";"1"
"896";"22";"17";"1";"5";"1";"1";"10";"1";"[1,6]";"2";"0";"1"
"897";"22";"18";"1";"5";"1";"1";"10";"1";"[1,6]";"2";"0";"1"
"898";"26";"256";"1";"7";"2";"1";"10";"1";"[2,4,9]";"1";"0";"1"
"899";"26";"257";"1";"7";"2";"1";"10";"1";"[2,4,9]";"1";"0";"1"
"900";"19";"258";"1";"1";"4";"1";"11";"1";"[5,10]";"1";"0";"1"
"901";"3";"258";"1";"8";"3";"1";"11";"2";"[2,3,4,6,10]";"2";"0";"1"
"902";"22";"2";"1";"5";"1";"1";"11";"1";"[1,6]";"2";"0";"1"
"903";"11";"2";"1";"8";"1";"1";"11";"2";"[2,3,4,6,10]";"2";"0";"1"
"904";"23";"259";"1";"6";"4";"1";"11";"1";"[2,5,8,10]";"1";"0";"1"
"905";"6";"259";"1";"6";"2";"1";"11";"1";"[2,5,8,10]";"1";"0";"1"
"906";"19";"259";"1";"1";"4";"1";"11";"1";"[5,10]";"1";"0";"1"
"907";"3";"259";"1";"8";"3";"1";"11";"2";"[2,3,4,6,10]";"2";"0";"1"
"908";"10";"260";"1";"9";"3";"1";"11";"2";"[2,7,10]";"2";"0";"1"
"909";"39";"3";"1";"10";"1";"1";"11";"1";"[1,2,3,6,8,9]";"2";"0";"1"
"910";"34";"260";"1";"5";"4";"1";"11";"1";"[1,6]";"1";"0";"1"
"911";"36";"3";"1";"2";"1";"1";"11";"1";"[6,7,8,9,10]";"0";"9";"1"
"912";"22";"3";"1";"5";"1";"1";"11";"1";"[1,6]";"2";"0";"1"
"913";"35";"260";"1";"1";"2";"1";"11";"2";"[5,10]";"1";"0";"1"
"914";"11";"3";"1";"8";"1";"1";"11";"2";"[2,3,4,6,10]";"2";"0";"1"
"915";"32";"3";"1";"6";"1";"1";"11";"1";"[2,5,8,10]";"2";"0";"1"
"916";"24";"260";"1";"4";"2";"1";"11";"2";"[7,8]";"2";"0";"1"
"917";"23";"260";"1";"6";"4";"1";"11";"1";"[2,5,8,10]";"1";"0";"1"
"918";"6";"260";"1";"6";"2";"1";"11";"1";"[2,5,8,10]";"1";"0";"1"
"919";"15";"260";"1";"4";"4";"1";"11";"1";"[7,8]";"1";"0";"1"
"920";"17";"3";"1";"4";"1";"1";"11";"2";"[7,8]";"2";"0";"1"
"921";"37";"260";"1";"10";"4";"1";"11";"1";"[1,2,3,6,8,9]";"1";"0";"1"
"922";"21";"260";"1";"8";"4";"1";"11";"1";"[2,3,4,6,10]";"1";"0";"1"
"923";"5";"3";"1";"3";"1";"1";"11";"2";"[8,10]";"2";"0";"1"
"924";"30";"260";"1";"6";"3";"1";"11";"2";"[2,5,8,10]";"2";"0";"1"
"925";"28";"260";"1";"9";"4";"1";"11";"2";"[2,7,10]";"1";"0";"1"
"926";"29";"3";"1";"1";"1";"1";"11";"2";"[5,10]";"2";"0";"1"
"927";"1";"261";"1";"7";"3";"1";"11";"2";"[2,4,9]";"2";"0";"1"
"928";"33";"4";"1";"9";"1";"1";"11";"1";"[2,7,10]";"2";"0";"1"
"929";"14";"261";"1";"5";"2";"1";"11";"2";"[1,6]";"1";"0";"1"
"930";"10";"261";"1";"9";"3";"1";"11";"2";"[2,7,10]";"2";"0";"1"
"931";"25";"261";"1";"7";"4";"1";"11";"1";"[2,4,9]";"1";"0";"1"
"932";"39";"4";"1";"10";"1";"1";"11";"1";"[1,2,3,6,8,9]";"2";"0";"1"
"933";"34";"261";"1";"5";"4";"1";"11";"1";"[1,6]";"1";"0";"1"
"934";"36";"4";"1";"2";"1";"1";"11";"1";"[6,7,8,9,10]";"0";"7";"1"
"935";"7";"261";"1";"2";"2";"1";"11";"1";"[6,7,8,9,10]";"1";"0";"1"
"936";"9";"261";"1";"10";"2";"1";"11";"2";"[1,2,3,6,8,9]";"1";"0";"1"
"937";"35";"261";"1";"1";"2";"1";"11";"2";"[5,10]";"1";"0";"1"
"938";"32";"4";"1";"6";"1";"1";"11";"1";"[2,5,8,10]";"2";"0";"1"
"939";"8";"261";"1";"3";"2";"1";"11";"1";"[8,10]";"1";"0";"1"
"940";"38";"261";"1";"2";"4";"1";"11";"1";"[6,7,8,9,10]";"1";"0";"1"
"941";"24";"261";"1";"4";"2";"1";"11";"2";"[7,8]";"2";"0";"1"
"942";"15";"261";"1";"4";"4";"1";"11";"1";"[7,8]";"1";"0";"1"
"943";"17";"4";"1";"4";"1";"1";"11";"2";"[7,8]";"2";"0";"1"
"944";"37";"261";"1";"10";"4";"1";"11";"1";"[1,2,3,6,8,9]";"1";"0";"1"
"945";"21";"261";"1";"8";"4";"1";"11";"1";"[2,3,4,6,10]";"1";"0";"1"
"946";"5";"4";"1";"3";"1";"1";"11";"2";"[8,10]";"2";"0";"1"
"947";"30";"261";"1";"6";"3";"1";"11";"2";"[2,5,8,10]";"2";"0";"1"
"948";"28";"261";"1";"9";"4";"1";"11";"2";"[2,7,10]";"1";"0";"1"
"949";"29";"4";"1";"1";"1";"1";"11";"2";"[5,10]";"2";"0";"1"
"950";"40";"261";"1";"4";"3";"1";"11";"2";"[7,8]";"2";"0";"1"
"951";"1";"262";"1";"7";"3";"1";"11";"2";"[2,4,9]";"2";"0";"1"
"952";"33";"5";"1";"9";"1";"1";"11";"1";"[2,7,10]";"2";"0";"1"
"953";"14";"262";"1";"5";"2";"1";"11";"2";"[1,6]";"1";"0";"1"
"954";"16";"262";"1";"9";"2";"1";"11";"1";"[2,7,10]";"1";"0";"1"
"955";"25";"262";"1";"7";"4";"1";"11";"1";"[2,4,9]";"1";"0";"1"
"956";"36";"5";"1";"2";"1";"1";"11";"1";"[6,7,8,9,10]";"0";"6";"1"
"957";"7";"262";"1";"2";"2";"1";"11";"1";"[6,7,8,9,10]";"1";"0";"1"
"958";"9";"262";"1";"10";"2";"1";"11";"2";"[1,2,3,6,8,9]";"1";"0";"1"
"959";"8";"262";"1";"3";"2";"1";"11";"1";"[8,10]";"1";"0";"1"
"960";"38";"262";"1";"2";"4";"1";"11";"1";"[6,7,8,9,10]";"1";"0";"1"
"961";"40";"262";"1";"4";"3";"1";"11";"2";"[7,8]";"2";"0";"1"
"962";"36";"6";"1";"2";"1";"1";"11";"1";"[6,7,8,9,10]";"0";"5";"1"
"963";"13";"263";"1";"8";"2";"1";"11";"2";"[2,3,4,6,10]";"1";"0";"1"
"964";"16";"263";"1";"9";"2";"1";"11";"1";"[2,7,10]";"1";"0";"1"
"965";"36";"6";"1";"2";"1";"1";"11";"1";"[6,7,8,9,10]";"0";"4";"1"
"966";"27";"263";"1";"3";"4";"1";"11";"1";"[8,10]";"1";"0";"1"
"967";"13";"264";"1";"8";"2";"1";"11";"2";"[2,3,4,6,10]";"1";"0";"1"
"968";"4";"264";"1";"3";"3";"1";"11";"1";"[8,10]";"2";"0";"1"
"969";"36";"7";"1";"2";"1";"1";"11";"1";"[6,7,8,9,10]";"0";"3";"1"
"970";"27";"264";"1";"3";"4";"1";"11";"1";"[8,10]";"1";"0";"1"
"971";"20";"8";"1";"7";"1";"1";"11";"1";"[2,4,9]";"1";"0";"1"
"972";"4";"265";"1";"3";"3";"1";"11";"1";"[8,10]";"2";"0";"1"
"973";"36";"8";"1";"2";"1";"1";"11";"1";"[6,7,8,9,10]";"0";"2";"1"
"974";"2";"265";"1";"10";"3";"1";"11";"2";"[1,2,3,6,8,9]";"2";"0";"1"
"975";"20";"9";"1";"7";"1";"1";"11";"1";"[2,4,9]";"1";"0";"1"
"976";"2";"266";"1";"10";"3";"1";"11";"2";"[1,2,3,6,8,9]";"2";"0";"1"
"977";"36";"10";"1";"2";"1";"1";"11";"1";"[6,7,8,9,10]";"0";"1";"1"
"978";"12";"267";"1";"5";"3";"1";"11";"2";"[1,6]";"2";"0";"1"
"979";"18";"267";"1";"2";"3";"1";"11";"1";"[6,7,8,9,10]";"2";"0";"1"
"980";"12";"268";"1";"5";"3";"1";"11";"2";"[1,6]";"2";"0";"1"
"981";"18";"268";"1";"2";"3";"1";"11";"1";"[6,7,8,9,10]";"2";"0";"1"
"982";"36";"11";"1";"2";"1";"1";"11";"1";"[6,7,8,9,10]";"0";"10";"1"
"983";"31";"269";"1";"1";"3";"1";"11";"2";"[5,10]";"2";"0";"1"
"984";"36";"13";"1";"2";"1";"1";"11";"1";"[6,7,8,9,10]";"2";"10";"1"
"985";"31";"270";"1";"1";"3";"1";"11";"2";"[5,10]";"2";"0";"1"
"986";"26";"270";"1";"7";"2";"1";"11";"1";"[2,4,9]";"1";"0";"1"
"987";"36";"14";"1";"2";"1";"1";"11";"1";"[6,7,8,9,10]";"2";"10";"1"
"988";"26";"271";"1";"7";"2";"1";"11";"1";"[2,4,9]";"1";"0";"1"
"989";"5";"1";"1";"3";"1";"1";"12";"2";"[8,10]";"2";"0";"1"
"990";"19";"272";"1";"1";"4";"1";"12";"1";"[5,10]";"1";"0";"1"
"991";"25";"272";"1";"7";"4";"1";"12";"1";"[2,4,9]";"1";"0";"1"
"992";"14";"272";"1";"5";"2";"1";"12";"2";"[1,6]";"1";"0";"1"
"993";"36";"1";"1";"2";"1";"1";"12";"1";"[6,7,8,9,10]";"1";"0";"1"
"994";"24";"273";"1";"4";"2";"1";"12";"2";"[7,8]";"2";"0";"1"
"995";"6";"273";"1";"6";"2";"1";"12";"1";"[2,5,8,10]";"1";"0";"1"
"996";"21";"273";"1";"8";"4";"1";"12";"1";"[2,3,4,6,10]";"1";"0";"1"
"997";"39";"2";"1";"10";"1";"1";"12";"1";"[1,2,3,6,8,9]";"2";"0";"1"
"998";"23";"273";"1";"6";"4";"1";"12";"1";"[2,5,8,10]";"1";"0";"1"
"999";"5";"2";"1";"3";"1";"1";"12";"2";"[8,10]";"2";"0";"1"
"1000";"38";"273";"1";"2";"4";"1";"12";"1";"[6,7,8,9,10]";"1";"0";"1"
"1001";"32";"2";"1";"6";"1";"1";"12";"1";"[2,5,8,10]";"2";"0";"1"
"1002";"19";"273";"1";"1";"4";"1";"12";"1";"[5,10]";"1";"0";"1"
"1003";"25";"273";"1";"7";"4";"1";"12";"1";"[2,4,9]";"1";"0";"1"
"1004";"11";"2";"1";"8";"1";"1";"12";"2";"[2,3,4,6,10]";"2";"0";"1"
"1005";"3";"273";"1";"8";"3";"1";"12";"2";"[2,3,4,6,10]";"2";"0";"1"
"1006";"1";"273";"1";"7";"3";"1";"12";"2";"[2,4,9]";"2";"0";"1"
"1007";"8";"273";"1";"3";"2";"1";"12";"1";"[8,10]";"1";"0";"1"
"1008";"22";"2";"1";"5";"1";"1";"12";"1";"[1,6]";"2";"0";"1"
"1009";"36";"2";"1";"2";"1";"1";"12";"1";"[6,7,8,9,10]";"1";"0";"1"
"1010";"14";"273";"1";"5";"2";"1";"12";"2";"[1,6]";"1";"0";"1"
"1011";"10";"273";"1";"9";"3";"1";"12";"2";"[2,7,10]";"2";"0";"1"
"1012";"30";"274";"1";"6";"3";"1";"12";"2";"[2,5,8,10]";"2";"0";"1"
"1013";"24";"274";"1";"4";"2";"1";"12";"2";"[7,8]";"2";"0";"1"
"1014";"7";"274";"1";"2";"2";"1";"12";"1";"[6,7,8,9,10]";"1";"0";"1"
"1015";"6";"274";"1";"6";"2";"1";"12";"1";"[2,5,8,10]";"1";"0";"1"
"1016";"33";"3";"1";"9";"1";"1";"12";"1";"[2,7,10]";"2";"0";"1"
"1017";"21";"274";"1";"8";"4";"1";"12";"1";"[2,3,4,6,10]";"1";"0";"1"
"1018";"39";"3";"1";"10";"1";"1";"12";"1";"[1,2,3,6,8,9]";"2";"0";"1"
"1019";"35";"274";"1";"1";"2";"1";"12";"2";"[5,10]";"1";"0";"1"
"1020";"23";"274";"1";"6";"4";"1";"12";"1";"[2,5,8,10]";"1";"0";"1"
"1021";"16";"274";"1";"9";"2";"1";"12";"1";"[2,7,10]";"1";"0";"1"
"1022";"9";"274";"1";"10";"2";"1";"12";"2";"[1,2,3,6,8,9]";"1";"0";"1"
"1023";"2";"274";"1";"10";"3";"1";"12";"2";"[1,2,3,6,8,9]";"2";"0";"1"
"1024";"38";"274";"1";"2";"4";"1";"12";"1";"[6,7,8,9,10]";"1";"0";"1"
"1025";"37";"274";"1";"10";"4";"1";"12";"1";"[1,2,3,6,8,9]";"1";"0";"1"
"1026";"32";"3";"1";"6";"1";"1";"12";"1";"[2,5,8,10]";"2";"0";"1"
"1027";"28";"274";"1";"9";"4";"1";"12";"2";"[2,7,10]";"2";"0";"1"
"1028";"29";"3";"1";"1";"1";"1";"12";"2";"[5,10]";"2";"0";"1"
"1029";"11";"3";"1";"8";"1";"1";"12";"2";"[2,3,4,6,10]";"2";"0";"1"
"1030";"3";"274";"1";"8";"3";"1";"12";"2";"[2,3,4,6,10]";"2";"0";"1"
"1031";"1";"274";"1";"7";"3";"1";"12";"2";"[2,4,9]";"2";"0";"1"
"1032";"8";"274";"1";"3";"2";"1";"12";"1";"[8,10]";"1";"0";"1"
"1033";"10";"274";"1";"9";"3";"1";"12";"2";"[2,7,10]";"2";"0";"1"
"1034";"22";"3";"1";"5";"1";"1";"12";"1";"[1,6]";"2";"0";"1"
"1035";"34";"275";"1";"5";"4";"1";"12";"1";"[1,6]";"1";"0";"1"
"1036";"30";"275";"1";"6";"3";"1";"12";"2";"[2,5,8,10]";"2";"0";"1"
"1037";"7";"275";"1";"2";"2";"1";"12";"1";"[6,7,8,9,10]";"1";"0";"1"
"1038";"33";"4";"1";"9";"1";"1";"12";"1";"[2,7,10]";"2";"0";"1"
"1039";"35";"275";"1";"1";"2";"1";"12";"2";"[5,10]";"1";"0";"1"
"1040";"16";"275";"1";"9";"2";"1";"12";"1";"[2,7,10]";"1";"0";"1"
"1041";"9";"275";"1";"10";"2";"1";"12";"2";"[1,2,3,6,8,9]";"1";"0";"1"
"1042";"2";"275";"1";"10";"3";"1";"12";"2";"[1,2,3,6,8,9]";"2";"0";"1"
"1043";"37";"275";"1";"10";"4";"1";"12";"1";"[1,2,3,6,8,9]";"1";"0";"1"
"1044";"28";"275";"1";"9";"4";"1";"12";"2";"[2,7,10]";"2";"0";"1"
"1045";"29";"4";"1";"1";"1";"1";"12";"2";"[5,10]";"2";"0";"1"
"1046";"34";"276";"1";"5";"4";"1";"12";"1";"[1,6]";"1";"0";"1"
"1047";"12";"276";"1";"5";"3";"1";"12";"2";"[1,6]";"2";"0";"1"
"1048";"20";"5";"1";"7";"1";"1";"12";"1";"[2,4,9]";"2";"0";"1"
"1049";"17";"5";"1";"4";"1";"1";"12";"2";"[7,8]";"2";"0";"1"
"1050";"12";"277";"1";"5";"3";"1";"12";"2";"[1,6]";"2";"0";"1"
"1051";"18";"277";"1";"2";"3";"1";"12";"1";"[6,7,8,9,10]";"2";"0";"1"
"1052";"31";"277";"1";"1";"3";"1";"12";"2";"[5,10]";"2";"0";"1"
"1053";"20";"6";"1";"7";"1";"1";"12";"1";"[2,4,9]";"2";"0";"1"
"1054";"17";"7";"1";"4";"1";"1";"12";"2";"[7,8]";"2";"0";"1"
"1055";"18";"278";"1";"2";"3";"1";"12";"1";"[6,7,8,9,10]";"2";"0";"1"
"1056";"5";"7";"1";"3";"1";"1";"12";"2";"[8,10]";"2";"1";"1"
"1057";"31";"278";"1";"1";"3";"1";"12";"2";"[5,10]";"2";"0";"1"
"1058";"15";"278";"1";"4";"4";"1";"12";"1";"[7,8]";"1";"0";"1"
"1059";"27";"279";"1";"3";"4";"1";"12";"1";"[8,10]";"1";"0";"1"
"1060";"15";"279";"1";"4";"4";"1";"12";"1";"[7,8]";"1";"0";"1"
"1061";"27";"280";"1";"3";"4";"1";"12";"1";"[8,10]";"1";"0";"1"
"1062";"40";"280";"1";"4";"3";"1";"12";"2";"[7,8]";"2";"0";"1"
"1063";"13";"280";"1";"8";"2";"1";"12";"2";"[2,3,4,6,10]";"1";"0";"1"
"1064";"4";"281";"1";"3";"3";"1";"12";"1";"[8,10]";"2";"0";"1"
"1065";"40";"281";"1";"4";"3";"1";"12";"2";"[7,8]";"2";"0";"1"
"1066";"13";"281";"1";"8";"2";"1";"12";"2";"[2,3,4,6,10]";"1";"0";"1"
"1067";"26";"282";"1";"7";"2";"1";"12";"1";"[2,4,9]";"1";"0";"1"
"1068";"4";"282";"1";"3";"3";"1";"12";"1";"[8,10]";"2";"0";"1"
"1069";"26";"283";"1";"7";"2";"1";"12";"1";"[2,4,9]";"1";"0";"1"
"1070";"34";"0";"1";"8";"4";"2";"12";"2";"[2,3,4,6,10]";"1";"0";"1"
"1071";"28";"0";"1";"9";"4";"2";"12";"1";"[2,7,10]";"2";"0";"1"
"1072";"23";"0";"1";"3";"4";"2";"12";"2";"[8,10]";"1";"0";"1"
"1073";"19";"0";"1";"6";"4";"2";"12";"1";"[2,5,8,10]";"1";"0";"1"
"1074";"36";"0";"1";"1";"1";"2";"12";"2";"[5,10]";"2";"0";"1"
"1075";"37";"0";"1";"4";"4";"2";"12";"2";"[7,8]";"1";"0";"1"
"1076";"24";"0";"1";"10";"2";"2";"12";"1";"[1,2,3,6,8,9]";"1";"0";"1"
"1077";"5";"0";"1";"9";"1";"2";"12";"2";"[2,7,10]";"2";"0";"1"
"1078";"3";"0";"1";"8";"3";"2";"12";"1";"[2,3,4,6,10]";"2";"0";"1"
"1079";"40";"0";"1";"6";"3";"2";"12";"2";"[2,5,8,10]";"2";"0";"1"
"1080";"7";"0";"1";"9";"2";"2";"12";"1";"[2,7,10]";"1";"0";"1"
"1081";"4";"0";"1";"4";"3";"2";"12";"1";"[7,8]";"2";"0";"1"
"1082";"26";"0";"1";"7";"2";"2";"12";"1";"[2,4,9]";"1";"0";"1"
"1083";"21";"0";"1";"2";"4";"2";"12";"2";"[6,7,8,9,10]";"1";"0";"1"
"1084";"30";"0";"1";"9";"3";"2";"12";"1";"[2,7,10]";"2";"0";"1"
"1085";"29";"0";"1";"6";"1";"2";"12";"2";"[2,5,8,10]";"2";"0";"1"
"1086";"18";"0";"1";"7";"3";"2";"12";"1";"[2,4,9]";"2";"0";"1"
"1087";"32";"0";"1";"8";"1";"2";"12";"2";"[2,3,4,6,10]";"2";"0";"1"
"1088";"25";"0";"1";"1";"4";"2";"12";"2";"[5,10]";"1";"0";"1"
"1089";"1";"0";"1";"3";"3";"2";"12";"1";"[8,10]";"2";"0";"1"
"1090";"27";"0";"1";"5";"4";"2";"12";"1";"[1,6]";"1";"0";"1"
"1091";"8";"0";"1";"6";"2";"2";"12";"1";"[2,5,8,10]";"1";"0";"1"
"1092";"13";"0";"1";"4";"2";"2";"12";"1";"[7,8]";"2";"0";"1"
"1093";"10";"0";"1";"1";"3";"2";"12";"1";"[5,10]";"2";"0";"1"
"1094";"11";"0";"1";"5";"1";"2";"12";"2";"[1,6]";"2";"0";"1"
"1095";"17";"0";"1";"2";"1";"2";"12";"2";"[6,7,8,9,10]";"1";"0";"1"
"1096";"20";"0";"1";"10";"1";"2";"12";"2";"[1,2,3,6,8,9]";"2";"0";"1"
"1097";"2";"0";"1";"10";"3";"2";"12";"1";"[1,2,3,6,8,9]";"2";"0";"1"
"1098";"31";"0";"1";"2";"3";"2";"12";"1";"[6,7,8,9,10]";"2";"0";"1"
"1099";"6";"0";"1";"5";"2";"2";"12";"1";"[1,6]";"1";"0";"1"
"1100";"38";"0";"1";"7";"4";"2";"12";"2";"[2,4,9]";"1";"0";"1"
"1101";"33";"0";"1";"4";"1";"2";"12";"2";"[7,8]";"2";"0";"1"
"1102";"15";"0";"1";"10";"4";"2";"12";"1";"[1,2,3,6,8,9]";"1";"0";"1"
"1103";"9";"0";"1";"1";"2";"2";"12";"1";"[5,10]";"1";"0";"1"
"1104";"16";"0";"1";"8";"2";"2";"12";"1";"[2,3,4,6,10]";"1";"0";"1"
"1105";"39";"0";"1";"7";"1";"2";"12";"1";"[2,4,9]";"2";"0";"1"
"1106";"22";"0";"1";"3";"1";"2";"12";"2";"[8,10]";"2";"1";"1"
"1107";"12";"0";"1";"5";"3";"2";"12";"1";"[1,6]";"2";"0";"1"
"1108";"35";"0";"1";"2";"2";"2";"12";"1";"[6,7,8,9,10]";"1";"0";"1"
"1109";"14";"0";"1";"3";"2";"2";"12";"2";"[8,10]";"1";"0";"1"
"1110";"8";"2";"1";"6";"2";"2";"1";"1";"[2,5,8,10]";"1";"0";"1"
"1111";"23";"2";"1";"3";"4";"2";"1";"2";"[8,10]";"2";"0";"1"
"1112";"7";"3";"1";"9";"2";"2";"1";"1";"[2,7,10]";"1";"0";"1"
"1113";"8";"3";"1";"6";"2";"2";"1";"1";"[2,5,8,10]";"1";"0";"1"
"1114";"6";"3";"1";"5";"2";"2";"1";"1";"[1,6]";"1";"0";"1"
"1115";"23";"3";"1";"3";"4";"2";"1";"2";"[8,10]";"2";"0";"1"
"1116";"4";"3";"1";"4";"3";"2";"1";"1";"[7,8]";"1";"0";"1"
"1117";"33";"3";"1";"4";"1";"2";"1";"2";"[7,8]";"2";"0";"1"
"1118";"17";"3";"1";"2";"1";"2";"1";"2";"[6,7,8,9,10]";"2";"0";"1"
"1119";"10";"4";"1";"1";"3";"2";"1";"1";"[5,10]";"1";"0";"1"
"1120";"29";"4";"1";"6";"1";"2";"1";"2";"[2,5,8,10]";"2";"0";"1"
"1121";"25";"4";"1";"1";"4";"2";"1";"2";"[5,10]";"2";"0";"1"
"1122";"9";"4";"1";"1";"2";"2";"1";"1";"[5,10]";"1";"0";"1"
"1123";"39";"4";"1";"7";"1";"2";"1";"1";"[2,4,9]";"1";"0";"1"
"1124";"19";"4";"1";"6";"4";"2";"1";"1";"[2,5,8,10]";"1";"0";"1"
"1125";"7";"4";"1";"9";"2";"2";"1";"1";"[2,7,10]";"1";"0";"1"
"1126";"6";"4";"1";"5";"2";"2";"1";"1";"[1,6]";"1";"0";"1"
"1127";"1";"4";"1";"3";"3";"2";"1";"1";"[8,10]";"1";"0";"1"
"1128";"4";"4";"1";"4";"3";"2";"1";"1";"[7,8]";"1";"0";"1"
"1129";"2";"4";"1";"10";"3";"2";"1";"1";"[1,2,3,6,8,9]";"1";"0";"1"
"1130";"33";"4";"1";"4";"1";"2";"1";"2";"[7,8]";"2";"0";"1"
"1131";"17";"4";"1";"2";"1";"2";"1";"2";"[6,7,8,9,10]";"2";"0";"1"
"1132";"14";"4";"1";"3";"2";"2";"1";"2";"[8,10]";"2";"0";"1"
"1133";"11";"4";"1";"5";"1";"2";"1";"2";"[1,6]";"2";"0";"1"
"1134";"29";"5";"1";"6";"1";"2";"1";"2";"[2,5,8,10]";"2";"0";"1"
"1135";"10";"5";"1";"1";"3";"2";"1";"1";"[5,10]";"1";"0";"1"
"1136";"25";"5";"1";"1";"4";"2";"1";"2";"[5,10]";"2";"0";"1"
"1137";"30";"5";"1";"9";"3";"2";"1";"1";"[2,7,10]";"1";"0";"1"
"1138";"39";"5";"1";"7";"1";"2";"1";"1";"[2,4,9]";"1";"0";"1"
"1139";"9";"5";"1";"1";"2";"2";"1";"1";"[5,10]";"1";"0";"1"
"1140";"21";"5";"1";"2";"4";"2";"1";"2";"[6,7,8,9,10]";"2";"0";"1"
"1141";"19";"5";"1";"6";"4";"2";"1";"1";"[2,5,8,10]";"1";"0";"1"
"1142";"32";"5";"1";"8";"1";"2";"1";"2";"[2,3,4,6,10]";"2";"0";"1"
"1143";"27";"5";"1";"5";"4";"2";"1";"1";"[1,6]";"1";"0";"1"
"1144";"1";"5";"1";"3";"3";"2";"1";"1";"[8,10]";"1";"0";"1"
"1145";"2";"5";"1";"10";"3";"2";"1";"1";"[1,2,3,6,8,9]";"1";"0";"1"
"1146";"37";"5";"1";"4";"4";"2";"1";"2";"[7,8]";"2";"0";"1"
"1147";"22";"5";"1";"3";"1";"2";"1";"2";"[8,10]";"2";"0";"1"
"1148";"14";"5";"1";"3";"2";"2";"1";"2";"[8,10]";"2";"0";"1"
"1149";"11";"6";"1";"5";"1";"2";"1";"2";"[1,6]";"2";"0";"1"
"1150";"5";"6";"1";"9";"1";"2";"1";"2";"[2,7,10]";"2";"0";"1"
"1151";"30";"6";"1";"9";"3";"2";"1";"1";"[2,7,10]";"1";"0";"1"
"1152";"21";"6";"1";"2";"4";"2";"1";"2";"[6,7,8,9,10]";"2";"0";"1"
"1153";"32";"6";"1";"8";"1";"2";"1";"2";"[2,3,4,6,10]";"2";"0";"1"
"1154";"27";"6";"1";"5";"4";"2";"1";"1";"[1,6]";"1";"0";"1"
"1155";"18";"6";"1";"7";"3";"2";"1";"1";"[2,4,9]";"1";"0";"1"
"1156";"37";"6";"1";"4";"4";"2";"1";"2";"[7,8]";"2";"0";"1"
"1157";"24";"6";"1";"10";"2";"2";"1";"1";"[1,2,3,6,8,9]";"1";"0";"1"
"1158";"22";"6";"1";"3";"1";"2";"1";"2";"[8,10]";"2";"0";"1"
"1159";"5";"7";"1";"9";"1";"2";"1";"2";"[2,7,10]";"2";"0";"1"
"1160";"40";"7";"1";"6";"3";"2";"1";"2";"[2,5,8,10]";"2";"0";"1"
"1161";"18";"7";"1";"7";"3";"2";"1";"1";"[2,4,9]";"1";"0";"1"
"1162";"24";"7";"1";"10";"2";"2";"1";"1";"[1,2,3,6,8,9]";"1";"0";"1"
"1163";"40";"8";"1";"6";"3";"2";"1";"2";"[2,5,8,10]";"2";"0";"1"
"1164";"13";"8";"1";"4";"2";"2";"1";"1";"[7,8]";"1";"0";"1"
"1165";"28";"8";"1";"9";"4";"2";"1";"1";"[2,7,10]";"1";"0";"1"
"1166";"20";"9";"1";"10";"1";"2";"1";"2";"[1,2,3,6,8,9]";"2";"0";"1"
"1167";"31";"9";"1";"2";"3";"2";"1";"1";"[6,7,8,9,10]";"1";"0";"1"
"1168";"13";"9";"1";"4";"2";"2";"1";"1";"[7,8]";"1";"0";"1"
"1169";"28";"9";"1";"9";"4";"2";"1";"1";"[2,7,10]";"1";"0";"1"
"1170";"15";"9";"1";"10";"4";"2";"1";"1";"[1,2,3,6,8,9]";"1";"0";"1"
"1171";"20";"10";"1";"10";"1";"2";"1";"2";"[1,2,3,6,8,9]";"2";"0";"1"
"1172";"35";"10";"1";"2";"2";"2";"1";"1";"[6,7,8,9,10]";"1";"0";"1"
"1173";"36";"10";"1";"1";"1";"2";"1";"2";"[5,10]";"2";"0";"1"
"1174";"31";"10";"1";"2";"3";"2";"1";"1";"[6,7,8,9,10]";"1";"0";"1"
"1175";"15";"10";"1";"10";"4";"2";"1";"1";"[1,2,3,6,8,9]";"1";"0";"1"
"1176";"34";"11";"1";"8";"4";"2";"1";"2";"[2,3,4,6,10]";"2";"0";"1"
"1177";"35";"11";"1";"2";"2";"2";"1";"1";"[6,7,8,9,10]";"1";"0";"1"
"1178";"36";"11";"1";"1";"1";"2";"1";"2";"[5,10]";"2";"0";"1"
"1179";"34";"12";"1";"8";"4";"2";"1";"2";"[2,3,4,6,10]";"2";"0";"1"
"1180";"16";"12";"1";"8";"2";"2";"1";"1";"[2,3,4,6,10]";"1";"0";"1"
"1181";"38";"12";"1";"7";"4";"2";"1";"2";"[2,4,9]";"2";"0";"1"
"1182";"16";"13";"1";"8";"2";"2";"1";"1";"[2,3,4,6,10]";"1";"0";"1"
"1183";"38";"13";"1";"7";"4";"2";"1";"2";"[2,4,9]";"2";"0";"1"
"1184";"3";"15";"1";"8";"3";"2";"1";"1";"[2,3,4,6,10]";"1";"0";"1"
"1185";"12";"15";"1";"5";"3";"2";"1";"1";"[1,6]";"1";"0";"1"
"1186";"3";"16";"1";"8";"3";"2";"1";"1";"[2,3,4,6,10]";"1";"0";"1"
"1187";"12";"16";"1";"5";"3";"2";"1";"1";"[1,6]";"1";"0";"1"
"1188";"26";"24";"1";"7";"2";"2";"1";"1";"[2,4,9]";"1";"0";"1"
"1189";"26";"25";"1";"7";"2";"2";"1";"1";"[2,4,9]";"1";"0";"1"
"1190";"6";"28";"1";"5";"2";"2";"2";"1";"[1,6]";"1";"0";"1"
"1191";"14";"28";"1";"3";"2";"2";"2";"2";"[8,10]";"2";"0";"1"
"1192";"9";"28";"1";"1";"2";"2";"2";"1";"[5,10]";"1";"0";"1"
"1193";"20";"3";"1";"10";"1";"2";"2";"2";"[1,2,3,6,8,9]";"2";"0";"1"
"1194";"2";"28";"1";"10";"3";"2";"2";"1";"[1,2,3,6,8,9]";"1";"0";"1"
"1195";"36";"4";"1";"1";"1";"2";"2";"2";"[5,10]";"2";"0";"1"
"1196";"24";"29";"1";"10";"2";"2";"2";"1";"[1,2,3,6,8,9]";"1";"0";"1"
"1197";"4";"29";"1";"4";"3";"2";"2";"1";"[7,8]";"1";"0";"1"
"1198";"10";"29";"1";"1";"3";"2";"2";"1";"[5,10]";"1";"0";"1"
"1199";"8";"29";"1";"6";"2";"2";"2";"1";"[2,5,8,10]";"1";"0";"1"
"1200";"6";"29";"1";"5";"2";"2";"2";"1";"[1,6]";"1";"0";"1"
"1201";"18";"29";"1";"7";"3";"2";"2";"1";"[2,4,9]";"1";"0";"1"
"1202";"1";"29";"1";"3";"3";"2";"2";"1";"[8,10]";"1";"0";"1"
"1203";"14";"29";"1";"3";"2";"2";"2";"2";"[8,10]";"2";"0";"1"
"1204";"9";"29";"1";"1";"2";"2";"2";"1";"[5,10]";"1";"0";"1"
"1205";"20";"4";"1";"10";"1";"2";"2";"2";"[1,2,3,6,8,9]";"2";"0";"1"
"1206";"32";"4";"1";"8";"1";"2";"2";"2";"[2,3,4,6,10]";"1";"0";"1"
"1207";"2";"29";"1";"10";"3";"2";"2";"1";"[1,2,3,6,8,9]";"1";"0";"1"
"1208";"24";"30";"1";"10";"2";"2";"2";"1";"[1,2,3,6,8,9]";"1";"0";"1"
"1209";"36";"5";"1";"1";"1";"2";"2";"2";"[5,10]";"2";"0";"1"
"1210";"4";"30";"1";"4";"3";"2";"2";"1";"[7,8]";"1";"0";"1"
"1211";"19";"30";"1";"6";"4";"2";"2";"1";"[2,5,8,10]";"1";"0";"1"
"1212";"10";"30";"1";"1";"3";"2";"2";"1";"[5,10]";"1";"0";"1"
"1213";"13";"30";"1";"4";"2";"2";"2";"1";"[7,8]";"1";"0";"1"
"1214";"8";"30";"1";"6";"2";"2";"2";"1";"[2,5,8,10]";"1";"0";"1"
"1215";"21";"30";"1";"2";"4";"2";"2";"2";"[6,7,8,9,10]";"2";"0";"1"
"1216";"18";"30";"1";"7";"3";"2";"2";"1";"[2,4,9]";"1";"0";"1"
"1217";"1";"30";"1";"3";"3";"2";"2";"1";"[8,10]";"1";"0";"1"
"1218";"30";"30";"1";"9";"3";"2";"2";"1";"[2,7,10]";"1";"0";"1"
"1219";"32";"5";"1";"8";"1";"2";"2";"2";"[2,3,4,6,10]";"1";"0";"1"
"1220";"19";"31";"1";"6";"4";"2";"2";"1";"[2,5,8,10]";"1";"0";"1"
"1221";"26";"31";"1";"7";"2";"2";"2";"1";"[2,4,9]";"1";"0";"1"
"1222";"13";"31";"1";"4";"2";"2";"2";"1";"[7,8]";"1";"0";"1"
"1223";"21";"31";"1";"2";"4";"2";"2";"2";"[6,7,8,9,10]";"2";"0";"1"
"1224";"7";"31";"1";"9";"2";"2";"2";"1";"[2,7,10]";"1";"0";"1"
"1225";"17";"6";"1";"2";"1";"2";"2";"2";"[6,7,8,9,10]";"2";"0";"1"
"1226";"30";"31";"1";"9";"3";"2";"2";"1";"[2,7,10]";"1";"0";"1"
"1227";"35";"31";"1";"2";"2";"2";"2";"1";"[6,7,8,9,10]";"1";"0";"1"
"1228";"23";"32";"1";"3";"4";"2";"2";"2";"[8,10]";"2";"0";"1"
"1229";"11";"7";"1";"5";"1";"2";"2";"2";"[1,6]";"2";"0";"1"
"1230";"26";"32";"1";"7";"2";"2";"2";"1";"[2,4,9]";"1";"0";"1"
"1231";"7";"32";"1";"9";"2";"2";"2";"1";"[2,7,10]";"1";"0";"1"
"1232";"17";"7";"1";"2";"1";"2";"2";"2";"[6,7,8,9,10]";"2";"0";"1"
"1233";"3";"32";"1";"8";"3";"2";"2";"1";"[2,3,4,6,10]";"1";"0";"1"
"1234";"35";"32";"1";"2";"2";"2";"2";"1";"[6,7,8,9,10]";"1";"0";"1"
"1235";"23";"33";"1";"3";"4";"2";"2";"2";"[8,10]";"2";"0";"1"
"1236";"11";"8";"1";"5";"1";"2";"2";"2";"[1,6]";"2";"0";"1"
"1237";"39";"8";"1";"7";"1";"2";"2";"1";"[2,4,9]";"2";"0";"1"
"1238";"3";"33";"1";"8";"3";"2";"2";"1";"[2,3,4,6,10]";"1";"0";"1"
"1239";"33";"9";"1";"4";"1";"2";"2";"2";"[7,8]";"2";"0";"1"
"1240";"39";"9";"1";"7";"1";"2";"2";"1";"[2,4,9]";"2";"0";"1"
"1241";"38";"34";"1";"7";"4";"2";"2";"2";"[2,4,9]";"2";"0";"1"
"1242";"31";"35";"1";"2";"3";"2";"2";"1";"[6,7,8,9,10]";"1";"0";"1"
"1243";"33";"10";"1";"4";"1";"2";"2";"2";"[7,8]";"2";"0";"1"
"1244";"38";"35";"1";"7";"4";"2";"2";"2";"[2,4,9]";"2";"0";"1"
"1245";"31";"36";"1";"2";"3";"2";"2";"1";"[6,7,8,9,10]";"1";"0";"1"
"1246";"28";"37";"1";"9";"4";"2";"2";"1";"[2,7,10]";"2";"0";"1"
"1247";"5";"12";"1";"9";"1";"2";"2";"2";"[2,7,10]";"2";"0";"1"
"1248";"22";"12";"1";"3";"1";"2";"2";"2";"[8,10]";"2";"0";"1"
"1249";"16";"38";"1";"8";"2";"2";"2";"1";"[2,3,4,6,10]";"1";"0";"1"
"1250";"28";"38";"1";"9";"4";"2";"2";"1";"[2,7,10]";"2";"0";"1"
"1251";"5";"13";"1";"9";"1";"2";"2";"2";"[2,7,10]";"2";"0";"1"
"1252";"22";"13";"1";"3";"1";"2";"2";"2";"[8,10]";"2";"0";"1"
"1253";"16";"39";"1";"8";"2";"2";"2";"1";"[2,3,4,6,10]";"1";"0";"1"
"1254";"29";"15";"1";"6";"1";"2";"2";"2";"[2,5,8,10]";"2";"0";"1"
"1255";"29";"16";"1";"6";"1";"2";"2";"2";"[2,5,8,10]";"2";"0";"1"
"1256";"40";"41";"1";"6";"3";"2";"2";"2";"[2,5,8,10]";"1";"0";"1"
"1257";"40";"42";"1";"6";"3";"2";"2";"2";"[2,5,8,10]";"1";"0";"1"
"1258";"12";"43";"1";"5";"3";"2";"2";"1";"[1,6]";"1";"0";"1"
"1259";"12";"44";"1";"5";"3";"2";"2";"1";"[1,6]";"1";"0";"1"
"1260";"37";"44";"1";"4";"4";"2";"2";"2";"[7,8]";"2";"0";"1"
"1261";"25";"44";"1";"1";"4";"2";"2";"2";"[5,10]";"1";"0";"1"
"1262";"37";"45";"1";"4";"4";"2";"2";"2";"[7,8]";"2";"0";"1"
"1263";"25";"45";"1";"1";"4";"2";"2";"2";"[5,10]";"1";"0";"1"
"1264";"34";"47";"1";"8";"4";"2";"2";"2";"[2,3,4,6,10]";"2";"0";"1"
"1265";"34";"48";"1";"8";"4";"2";"2";"2";"[2,3,4,6,10]";"2";"0";"1"
"1266";"15";"48";"1";"10";"4";"2";"2";"1";"[1,2,3,6,8,9]";"1";"0";"1"
"1267";"15";"49";"1";"10";"4";"2";"2";"1";"[1,2,3,6,8,9]";"1";"0";"1"
"1268";"27";"55";"1";"5";"4";"2";"2";"1";"[1,6]";"1";"0";"1"
"1269";"27";"56";"1";"5";"4";"2";"2";"1";"[1,6]";"1";"0";"1"
"1270";"20";"1";"1";"10";"1";"2";"3";"2";"[1,2,3,6,8,9]";"2";"0";"1"
"1271";"6";"57";"1";"5";"2";"2";"3";"1";"[1,6]";"1";"0";"1"
"1272";"14";"57";"1";"3";"2";"2";"3";"2";"[8,10]";"1";"0";"1"
"1273";"24";"58";"1";"10";"2";"2";"3";"1";"[1,2,3,6,8,9]";"1";"0";"1"
"1274";"19";"58";"1";"6";"4";"2";"3";"1";"[2,5,8,10]";"1";"0";"1"
"1275";"9";"58";"1";"1";"2";"2";"3";"1";"[5,10]";"1";"0";"1"
"1276";"4";"58";"1";"4";"3";"2";"3";"1";"[7,8]";"1";"0";"1"
"1277";"10";"58";"1";"1";"3";"2";"3";"1";"[5,10]";"1";"0";"1"
"1278";"7";"58";"1";"9";"2";"2";"3";"1";"[2,7,10]";"1";"0";"1"
"1279";"20";"2";"1";"10";"1";"2";"3";"2";"[1,2,3,6,8,9]";"2";"0";"1"
"1280";"21";"58";"1";"2";"4";"2";"3";"2";"[6,7,8,9,10]";"2";"0";"1"
"1281";"36";"2";"1";"1";"1";"2";"3";"2";"[5,10]";"2";"0";"1"
"1282";"6";"58";"1";"5";"2";"2";"3";"1";"[1,6]";"1";"0";"1"
"1283";"14";"58";"1";"3";"2";"2";"3";"2";"[8,10]";"1";"0";"1"
"1284";"24";"59";"1";"10";"2";"2";"3";"1";"[1,2,3,6,8,9]";"1";"0";"1"
"1285";"5";"3";"1";"9";"1";"2";"3";"2";"[2,7,10]";"2";"0";"1"
"1286";"16";"59";"1";"8";"2";"2";"3";"1";"[2,3,4,6,10]";"1";"0";"1"
"1287";"19";"59";"1";"6";"4";"2";"3";"1";"[2,5,8,10]";"1";"0";"1"
"1288";"9";"59";"1";"1";"2";"2";"3";"1";"[5,10]";"1";"0";"1"
"1289";"40";"59";"1";"6";"3";"2";"3";"2";"[2,5,8,10]";"1";"0";"1"
"1290";"4";"59";"1";"4";"3";"2";"3";"1";"[7,8]";"1";"0";"1"
"1291";"10";"59";"1";"1";"3";"2";"3";"1";"[5,10]";"1";"0";"1"
"1292";"2";"59";"1";"10";"3";"2";"3";"1";"[1,2,3,6,8,9]";"1";"0";"1"
"1293";"7";"59";"1";"9";"2";"2";"3";"1";"[2,7,10]";"1";"0";"1"
"1294";"30";"59";"1";"9";"3";"2";"3";"1";"[2,7,10]";"1";"0";"1"
"1295";"21";"59";"1";"2";"4";"2";"3";"2";"[6,7,8,9,10]";"2";"0";"1"
"1296";"36";"3";"1";"1";"1";"2";"3";"2";"[5,10]";"2";"0";"1"
"1297";"12";"59";"1";"5";"3";"2";"3";"1";"[1,6]";"1";"0";"1"
"1298";"1";"60";"1";"3";"3";"2";"3";"1";"[8,10]";"1";"0";"1"
"1299";"16";"60";"1";"8";"2";"2";"3";"1";"[2,3,4,6,10]";"1";"0";"1"
"1300";"5";"4";"1";"9";"1";"2";"3";"2";"[2,7,10]";"2";"0";"1"
"1301";"40";"60";"1";"6";"3";"2";"3";"2";"[2,5,8,10]";"1";"0";"1"
"1302";"28";"60";"1";"9";"4";"2";"3";"1";"[2,7,10]";"1";"0";"1"
"1303";"38";"60";"1";"7";"4";"2";"3";"2";"[2,4,9]";"2";"0";"1"
"1304";"2";"60";"1";"10";"3";"2";"3";"1";"[1,2,3,6,8,9]";"1";"0";"1"
"1305";"30";"60";"1";"9";"3";"2";"3";"1";"[2,7,10]";"1";"0";"1"
"1306";"12";"60";"1";"5";"3";"2";"3";"1";"[1,6]";"1";"0";"1"
"1307";"35";"60";"1";"2";"2";"2";"3";"1";"[6,7,8,9,10]";"1";"0";"1"
"1308";"1";"61";"1";"3";"3";"2";"3";"1";"[8,10]";"1";"0";"1"
"1309";"15";"61";"1";"10";"4";"2";"3";"1";"[1,2,3,6,8,9]";"1";"0";"1"
"1310";"34";"61";"1";"8";"4";"2";"3";"2";"[2,3,4,6,10]";"2";"0";"1"
"1311";"28";"61";"1";"9";"4";"2";"3";"1";"[2,7,10]";"1";"0";"1"
"1312";"38";"61";"1";"7";"4";"2";"3";"2";"[2,4,9]";"2";"0";"1"
"1313";"8";"61";"1";"6";"2";"2";"3";"1";"[2,5,8,10]";"1";"0";"1"
"1314";"39";"5";"1";"7";"1";"2";"3";"1";"[2,4,9]";"2";"0";"1"
"1315";"26";"61";"1";"7";"2";"2";"3";"1";"[2,4,9]";"1";"0";"1"
"1316";"11";"5";"1";"5";"1";"2";"3";"2";"[1,6]";"2";"0";"1"
"1317";"37";"61";"1";"4";"4";"2";"3";"2";"[7,8]";"1";"0";"1"
"1318";"35";"61";"1";"2";"2";"2";"3";"1";"[6,7,8,9,10]";"1";"0";"1"
"1319";"15";"62";"1";"10";"4";"2";"3";"1";"[1,2,3,6,8,9]";"1";"0";"1"
"1320";"34";"62";"1";"8";"4";"2";"3";"2";"[2,3,4,6,10]";"2";"0";"1"
"1321";"3";"62";"1";"8";"3";"2";"3";"1";"[2,3,4,6,10]";"1";"0";"1"
"1322";"8";"62";"1";"6";"2";"2";"3";"1";"[2,5,8,10]";"1";"0";"1"
"1323";"39";"6";"1";"7";"1";"2";"3";"1";"[2,4,9]";"2";"0";"1"
"1324";"26";"62";"1";"7";"2";"2";"3";"1";"[2,4,9]";"1";"0";"1"
"1325";"11";"6";"1";"5";"1";"2";"3";"2";"[1,6]";"2";"0";"1"
"1326";"37";"62";"1";"4";"4";"2";"3";"2";"[7,8]";"1";"0";"1"
"1327";"18";"63";"1";"7";"3";"2";"3";"1";"[2,4,9]";"1";"0";"1"
"1328";"27";"63";"1";"5";"4";"2";"3";"1";"[1,6]";"1";"0";"1"
"1329";"13";"63";"1";"4";"2";"2";"3";"1";"[7,8]";"1";"0";"1"
"1330";"3";"63";"1";"8";"3";"2";"3";"1";"[2,3,4,6,10]";"1";"0";"1"
"1331";"17";"7";"1";"2";"1";"2";"3";"2";"[6,7,8,9,10]";"2";"0";"1"
"1332";"25";"63";"1";"1";"4";"2";"3";"2";"[5,10]";"1";"0";"1"
"1333";"18";"64";"1";"7";"3";"2";"3";"1";"[2,4,9]";"1";"0";"1"
"1334";"27";"64";"1";"5";"4";"2";"3";"1";"[1,6]";"1";"0";"1"
"1335";"13";"64";"1";"4";"2";"2";"3";"1";"[7,8]";"1";"0";"1"
"1336";"17";"8";"1";"2";"1";"2";"3";"2";"[6,7,8,9,10]";"2";"0";"1"
"1337";"25";"64";"1";"1";"4";"2";"3";"2";"[5,10]";"1";"0";"1"
"1338";"32";"9";"1";"8";"1";"2";"3";"2";"[2,3,4,6,10]";"2";"0";"1"
"1339";"32";"10";"1";"8";"1";"2";"3";"2";"[2,3,4,6,10]";"2";"0";"1"
"1340";"31";"68";"1";"2";"3";"2";"3";"1";"[6,7,8,9,10]";"1";"0";"1"
"1341";"29";"12";"1";"6";"1";"2";"3";"2";"[2,5,8,10]";"2";"0";"1"
"1342";"31";"69";"1";"2";"3";"2";"3";"1";"[6,7,8,9,10]";"1";"0";"1"
"1343";"23";"69";"1";"3";"4";"2";"3";"2";"[8,10]";"1";"0";"1"
"1344";"29";"13";"1";"6";"1";"2";"3";"2";"[2,5,8,10]";"2";"0";"1"
"1345";"33";"14";"1";"4";"1";"2";"3";"2";"[7,8]";"2";"0";"1"
"1346";"23";"70";"1";"3";"4";"2";"3";"2";"[8,10]";"1";"0";"1"
"1347";"33";"15";"1";"4";"1";"2";"3";"2";"[7,8]";"2";"0";"1"
"1348";"22";"17";"1";"3";"1";"2";"3";"2";"[8,10]";"2";"0";"1"
"1349";"22";"18";"1";"3";"1";"2";"3";"2";"[8,10]";"2";"0";"1"
"1350";"14";"75";"1";"3";"2";"2";"4";"2";"[8,10]";"1";"0";"1"
"1351";"24";"75";"1";"10";"2";"2";"4";"1";"[1,2,3,6,8,9]";"1";"0";"1"
"1352";"36";"1";"1";"1";"1";"2";"4";"2";"[5,10]";"2";"0";"1"
"1353";"19";"76";"1";"6";"4";"2";"4";"1";"[2,5,8,10]";"1";"0";"1"
"1354";"4";"76";"1";"4";"3";"2";"4";"1";"[7,8]";"1";"0";"1"
"1355";"28";"76";"1";"9";"4";"2";"4";"1";"[2,7,10]";"2";"0";"1"
"1356";"33";"2";"1";"4";"1";"2";"4";"2";"[7,8]";"2";"0";"1"
"1357";"21";"76";"1";"2";"4";"2";"4";"2";"[6,7,8,9,10]";"2";"0";"1"
"1358";"20";"2";"1";"10";"1";"2";"4";"2";"[1,2,3,6,8,9]";"2";"0";"1"
"1359";"8";"76";"1";"6";"2";"2";"4";"1";"[2,5,8,10]";"1";"0";"1"
"1360";"7";"76";"1";"9";"2";"2";"4";"1";"[2,7,10]";"1";"0";"1"
"1361";"14";"76";"1";"3";"2";"2";"4";"2";"[8,10]";"1";"0";"1"
"1362";"24";"76";"1";"10";"2";"2";"4";"1";"[1,2,3,6,8,9]";"1";"0";"1"
"1363";"36";"2";"1";"1";"1";"2";"4";"2";"[5,10]";"2";"0";"1"
"1364";"5";"2";"1";"9";"1";"2";"4";"2";"[2,7,10]";"2";"0";"1"
"1365";"2";"76";"1";"10";"3";"2";"4";"1";"[1,2,3,6,8,9]";"1";"0";"1"
"1366";"1";"76";"1";"3";"3";"2";"4";"1";"[8,10]";"1";"0";"1"
"1367";"17";"3";"1";"2";"1";"2";"4";"2";"[6,7,8,9,10]";"2";"0";"1"
"1368";"9";"77";"1";"1";"2";"2";"4";"1";"[5,10]";"1";"0";"1"
"1369";"19";"77";"1";"6";"4";"2";"4";"1";"[2,5,8,10]";"1";"0";"1"
"1370";"4";"77";"1";"4";"3";"2";"4";"1";"[7,8]";"1";"0";"1"
"1371";"28";"77";"1";"9";"4";"2";"4";"1";"[2,7,10]";"2";"0";"1"
"1372";"33";"3";"1";"4";"1";"2";"4";"2";"[7,8]";"2";"0";"1"
"1373";"21";"77";"1";"2";"4";"2";"4";"2";"[6,7,8,9,10]";"2";"0";"1"
"1374";"20";"3";"1";"10";"1";"2";"4";"2";"[1,2,3,6,8,9]";"2";"0";"1"
"1375";"8";"77";"1";"6";"2";"2";"4";"1";"[2,5,8,10]";"1";"0";"1"
"1376";"7";"77";"1";"9";"2";"2";"4";"1";"[2,7,10]";"1";"0";"1"
"1377";"35";"77";"1";"2";"2";"2";"4";"1";"[6,7,8,9,10]";"1";"0";"1"
"1378";"5";"3";"1";"9";"1";"2";"4";"2";"[2,7,10]";"2";"0";"1"
"1379";"2";"77";"1";"10";"3";"2";"4";"1";"[1,2,3,6,8,9]";"1";"0";"1"
"1380";"1";"77";"1";"3";"3";"2";"4";"1";"[8,10]";"1";"0";"1"
"1381";"17";"4";"1";"2";"1";"2";"4";"2";"[6,7,8,9,10]";"2";"0";"1"
"1382";"9";"78";"1";"1";"2";"2";"4";"1";"[5,10]";"1";"0";"1"
"1383";"6";"78";"1";"5";"2";"2";"4";"1";"[1,6]";"1";"0";"1"
"1384";"31";"78";"1";"2";"3";"2";"4";"1";"[6,7,8,9,10]";"1";"0";"1"
"1385";"39";"4";"1";"7";"1";"2";"4";"1";"[2,4,9]";"2";"0";"1"
"1386";"25";"78";"1";"1";"4";"2";"4";"2";"[5,10]";"1";"0";"1"
"1387";"10";"78";"1";"1";"3";"2";"4";"1";"[5,10]";"1";"0";"1"
"1388";"40";"78";"1";"6";"3";"2";"4";"2";"[2,5,8,10]";"1";"0";"1"
"1389";"35";"78";"1";"2";"2";"2";"4";"1";"[6,7,8,9,10]";"1";"0";"1"
"1390";"30";"78";"1";"9";"3";"2";"4";"1";"[2,7,10]";"1";"0";"1"
"1391";"6";"79";"1";"5";"2";"2";"4";"1";"[1,6]";"1";"0";"1"
"1392";"29";"5";"1";"6";"1";"2";"4";"2";"[2,5,8,10]";"2";"0";"1"
"1393";"13";"79";"1";"4";"2";"2";"4";"1";"[7,8]";"1";"0";"1"
"1394";"32";"5";"1";"8";"1";"2";"4";"2";"[2,3,4,6,10]";"2";"0";"1"
"1395";"31";"79";"1";"2";"3";"2";"4";"1";"[6,7,8,9,10]";"1";"0";"1"
"1396";"39";"5";"1";"7";"1";"2";"4";"1";"[2,4,9]";"2";"0";"1"
"1397";"25";"79";"1";"1";"4";"2";"4";"2";"[5,10]";"1";"0";"1"
"1398";"16";"79";"1";"8";"2";"2";"4";"1";"[2,3,4,6,10]";"1";"0";"1"
"1399";"10";"79";"1";"1";"3";"2";"4";"1";"[5,10]";"1";"0";"1"
"1400";"40";"79";"1";"6";"3";"2";"4";"2";"[2,5,8,10]";"1";"0";"1"
"1401";"18";"79";"1";"7";"3";"2";"4";"1";"[2,4,9]";"1";"0";"1"
"1402";"22";"5";"1";"3";"1";"2";"4";"2";"[8,10]";"2";"0";"1"
"1403";"30";"79";"1";"9";"3";"2";"4";"1";"[2,7,10]";"1";"0";"1"
"1404";"11";"6";"1";"5";"1";"2";"4";"2";"[1,6]";"2";"0";"1"
"1405";"29";"6";"1";"6";"1";"2";"4";"2";"[2,5,8,10]";"2";"0";"1"
"1406";"13";"80";"1";"4";"2";"2";"4";"1";"[7,8]";"1";"0";"1"
"1407";"32";"6";"1";"8";"1";"2";"4";"2";"[2,3,4,6,10]";"2";"0";"1"
"1408";"16";"80";"1";"8";"2";"2";"4";"1";"[2,3,4,6,10]";"1";"0";"1"
"1409";"18";"80";"1";"7";"3";"2";"4";"1";"[2,4,9]";"1";"0";"1"
"1410";"22";"6";"1";"3";"1";"2";"4";"2";"[8,10]";"2";"0";"1"
"1411";"11";"7";"1";"5";"1";"2";"4";"2";"[1,6]";"2";"0";"1"
"1412";"26";"82";"1";"7";"2";"2";"4";"1";"[2,4,9]";"1";"0";"1"
"1413";"23";"82";"1";"3";"4";"2";"4";"2";"[8,10]";"1";"0";"1"
"1414";"26";"83";"1";"7";"2";"2";"4";"1";"[2,4,9]";"1";"0";"1"
"1415";"23";"83";"1";"3";"4";"2";"4";"2";"[8,10]";"1";"0";"1"
"1416";"3";"83";"1";"8";"3";"2";"4";"1";"[2,3,4,6,10]";"1";"0";"1"
"1417";"3";"84";"1";"8";"3";"2";"4";"1";"[2,3,4,6,10]";"1";"0";"1"
"1418";"5";"12";"1";"9";"1";"2";"4";"2";"[2,7,10]";"2";"1";"1"
"1419";"27";"87";"1";"5";"4";"2";"4";"1";"[1,6]";"1";"0";"1"
"1420";"5";"13";"1";"9";"1";"2";"4";"2";"[2,7,10]";"2";"4";"1"
"1421";"27";"88";"1";"5";"4";"2";"4";"1";"[1,6]";"1";"0";"1"
"1422";"15";"91";"1";"10";"4";"2";"4";"1";"[1,2,3,6,8,9]";"1";"0";"1"
"1423";"15";"92";"1";"10";"4";"2";"4";"1";"[1,2,3,6,8,9]";"1";"0";"1"
"1424";"38";"93";"1";"7";"4";"2";"4";"2";"[2,4,9]";"1";"0";"1"
"1425";"38";"94";"1";"7";"4";"2";"4";"2";"[2,4,9]";"1";"0";"1"
"1426";"37";"96";"1";"4";"4";"2";"4";"2";"[7,8]";"2";"0";"1"
"1427";"37";"97";"1";"4";"4";"2";"4";"2";"[7,8]";"2";"0";"1"
"1428";"34";"98";"1";"8";"4";"2";"4";"2";"[2,3,4,6,10]";"2";"0";"1"
"1429";"34";"99";"1";"8";"4";"2";"4";"2";"[2,3,4,6,10]";"2";"0";"1"
"1430";"12";"104";"1";"5";"3";"2";"4";"1";"[1,6]";"0";"0";"1"
"1431";"0";"30";"1";"5";"3";"2";"4";"1";"[1,6]";"1";"0";"0"
"1432";"36";"1";"1";"1";"1";"2";"5";"2";"[5,10]";"2";"0";"1"
"1433";"6";"106";"1";"5";"2";"2";"5";"1";"[1,6]";"1";"0";"1"
"1434";"3";"106";"1";"8";"3";"2";"5";"1";"[2,3,4,6,10]";"1";"0";"1"
"1435";"7";"106";"1";"9";"2";"2";"5";"1";"[2,7,10]";"1";"0";"1"
"1436";"24";"106";"1";"10";"2";"2";"5";"1";"[1,2,3,6,8,9]";"1";"0";"1"
"1437";"4";"106";"1";"4";"3";"2";"5";"1";"[7,8]";"1";"0";"1"
"1438";"21";"106";"1";"2";"4";"2";"5";"2";"[6,7,8,9,10]";"2";"0";"1"
"1439";"17";"2";"1";"2";"1";"2";"5";"2";"[6,7,8,9,10]";"2";"0";"1"
"1440";"36";"2";"1";"1";"1";"2";"5";"2";"[5,10]";"2";"0";"1"
"1441";"28";"106";"1";"9";"4";"2";"5";"1";"[2,7,10]";"1";"0";"1"
"1442";"14";"107";"1";"3";"2";"2";"5";"2";"[8,10]";"1";"0";"1"
"1443";"19";"107";"1";"6";"4";"2";"5";"1";"[2,5,8,10]";"1";"0";"1"
"1444";"20";"3";"1";"10";"1";"2";"5";"2";"[1,2,3,6,8,9]";"2";"0";"1"
"1445";"16";"107";"1";"8";"2";"2";"5";"1";"[2,3,4,6,10]";"1";"0";"1"
"1446";"6";"107";"1";"5";"2";"2";"5";"1";"[1,6]";"1";"0";"1"
"1447";"10";"107";"1";"1";"3";"2";"5";"1";"[5,10]";"1";"0";"1"
"1448";"3";"107";"1";"8";"3";"2";"5";"1";"[2,3,4,6,10]";"1";"0";"1"
"1449";"7";"107";"1";"9";"2";"2";"5";"1";"[2,7,10]";"1";"0";"1"
"1450";"24";"107";"1";"10";"2";"2";"5";"1";"[1,2,3,6,8,9]";"1";"0";"1"
"1451";"22";"3";"1";"3";"1";"2";"5";"2";"[8,10]";"2";"0";"1"
"1452";"39";"3";"1";"7";"1";"2";"5";"1";"[2,4,9]";"2";"0";"1"
"1453";"8";"107";"1";"6";"2";"2";"5";"1";"[2,5,8,10]";"1";"0";"1"
"1454";"4";"107";"1";"4";"3";"2";"5";"1";"[7,8]";"1";"0";"1"
"1455";"21";"107";"1";"2";"4";"2";"5";"2";"[6,7,8,9,10]";"2";"0";"1"
"1456";"17";"3";"1";"2";"1";"2";"5";"2";"[6,7,8,9,10]";"2";"0";"1"
"1457";"2";"107";"1";"10";"3";"2";"5";"1";"[1,2,3,6,8,9]";"1";"0";"1"
"1458";"13";"107";"1";"4";"2";"2";"5";"1";"[7,8]";"1";"0";"1"
"1459";"40";"107";"1";"6";"3";"2";"5";"2";"[2,5,8,10]";"1";"0";"1"
"1460";"28";"107";"1";"9";"4";"2";"5";"1";"[2,7,10]";"1";"0";"1"
"1461";"14";"108";"1";"3";"2";"2";"5";"2";"[8,10]";"1";"0";"1"
"1462";"19";"108";"1";"6";"4";"2";"5";"1";"[2,5,8,10]";"1";"0";"1"
"1463";"20";"4";"1";"10";"1";"2";"5";"2";"[1,2,3,6,8,9]";"2";"0";"1"
"1464";"16";"108";"1";"8";"2";"2";"5";"1";"[2,3,4,6,10]";"1";"0";"1"
"1465";"10";"108";"1";"1";"3";"2";"5";"1";"[5,10]";"1";"0";"1"
"1466";"22";"4";"1";"3";"1";"2";"5";"2";"[8,10]";"2";"0";"1"
"1467";"39";"4";"1";"7";"1";"2";"5";"1";"[2,4,9]";"2";"0";"1"
"1468";"31";"108";"1";"2";"3";"2";"5";"1";"[6,7,8,9,10]";"1";"0";"1"
"1469";"35";"108";"1";"2";"2";"2";"5";"1";"[6,7,8,9,10]";"1";"0";"1"
"1470";"18";"108";"1";"7";"3";"2";"5";"1";"[2,4,9]";"1";"0";"1"
"1471";"8";"108";"1";"6";"2";"2";"5";"1";"[2,5,8,10]";"1";"0";"1"
"1472";"32";"4";"1";"8";"1";"2";"5";"2";"[2,3,4,6,10]";"2";"0";"1"
"1473";"1";"108";"1";"3";"3";"2";"5";"1";"[8,10]";"1";"0";"1"
"1474";"30";"108";"1";"9";"3";"2";"5";"1";"[2,7,10]";"1";"0";"1"
"1475";"2";"108";"1";"10";"3";"2";"5";"1";"[1,2,3,6,8,9]";"1";"0";"1"
"1476";"13";"108";"1";"4";"2";"2";"5";"1";"[7,8]";"1";"0";"1"
"1477";"33";"4";"1";"4";"1";"2";"5";"2";"[7,8]";"2";"0";"1"
"1478";"40";"108";"1";"6";"3";"2";"5";"2";"[2,5,8,10]";"1";"0";"1"
"1479";"11";"5";"1";"5";"1";"2";"5";"2";"[1,6]";"2";"0";"1"
"1480";"23";"109";"1";"3";"4";"2";"5";"2";"[8,10]";"1";"0";"1"
"1481";"31";"109";"1";"2";"3";"2";"5";"1";"[6,7,8,9,10]";"1";"0";"1"
"1482";"12";"109";"1";"5";"3";"2";"5";"1";"[1,6]";"1";"0";"1"
"1483";"35";"109";"1";"2";"2";"2";"5";"1";"[6,7,8,9,10]";"1";"0";"1"
"1484";"18";"109";"1";"7";"3";"2";"5";"1";"[2,4,9]";"1";"0";"1"
"1485";"32";"5";"1";"8";"1";"2";"5";"2";"[2,3,4,6,10]";"2";"0";"1"
"1486";"29";"5";"1";"6";"1";"2";"5";"2";"[2,5,8,10]";"2";"0";"1"
"1487";"1";"109";"1";"3";"3";"2";"5";"1";"[8,10]";"1";"0";"1"
"1488";"30";"109";"1";"9";"3";"2";"5";"1";"[2,7,10]";"1";"0";"1"
"1489";"33";"5";"1";"4";"1";"2";"5";"2";"[7,8]";"2";"0";"1"
"1490";"9";"109";"1";"1";"2";"2";"5";"1";"[5,10]";"1";"0";"1"
"1491";"11";"6";"1";"5";"1";"2";"5";"2";"[1,6]";"2";"0";"1"
"1492";"23";"110";"1";"3";"4";"2";"5";"2";"[8,10]";"1";"0";"1"
"1493";"12";"110";"1";"5";"3";"2";"5";"1";"[1,6]";"1";"0";"1"
"1494";"38";"110";"1";"7";"4";"2";"5";"2";"[2,4,9]";"2";"0";"1"
"1495";"29";"6";"1";"6";"1";"2";"5";"2";"[2,5,8,10]";"2";"0";"1"
"1496";"9";"110";"1";"1";"2";"2";"5";"1";"[5,10]";"1";"0";"1"
"1497";"38";"111";"1";"7";"4";"2";"5";"2";"[2,4,9]";"2";"0";"1"
"1498";"34";"112";"1";"8";"4";"2";"5";"2";"[2,3,4,6,10]";"2";"0";"1"
"1499";"27";"113";"1";"5";"4";"2";"5";"1";"[1,6]";"1";"0";"1"
"1500";"15";"113";"1";"10";"4";"2";"5";"1";"[1,2,3,6,8,9]";"1";"0";"1"
"1501";"34";"113";"1";"8";"4";"2";"5";"2";"[2,3,4,6,10]";"2";"0";"1"
"1502";"27";"114";"1";"5";"4";"2";"5";"1";"[1,6]";"1";"0";"1"
"1503";"15";"114";"1";"10";"4";"2";"5";"1";"[1,2,3,6,8,9]";"1";"0";"1"
"1504";"37";"114";"1";"4";"4";"2";"5";"2";"[7,8]";"0";"3";"1"
"1505";"37";"117";"1";"4";"4";"2";"5";"2";"[7,8]";"0";"2";"1"
"1506";"25";"118";"1";"1";"4";"2";"5";"2";"[5,10]";"1";"0";"1"
"1507";"25";"119";"1";"1";"4";"2";"5";"2";"[5,10]";"1";"0";"1"
"1508";"5";"17";"1";"9";"1";"2";"5";"2";"[2,7,10]";"2";"0";"1"
"1509";"37";"122";"1";"4";"4";"2";"5";"2";"[7,8]";"0";"1";"1"
"1510";"5";"18";"1";"9";"1";"2";"5";"2";"[2,7,10]";"2";"0";"1"
"1511";"37";"123";"1";"4";"4";"2";"5";"2";"[7,8]";"0";"2";"1"
"1512";"37";"124";"1";"4";"4";"2";"5";"2";"[7,8]";"0";"3";"1"
"1513";"37";"126";"1";"4";"4";"2";"5";"2";"[7,8]";"0";"4";"1"
"1514";"26";"128";"1";"7";"2";"2";"5";"1";"[2,4,9]";"1";"0";"1"
"1515";"26";"129";"1";"7";"2";"2";"5";"1";"[2,4,9]";"1";"0";"1"
"1516";"37";"130";"1";"4";"4";"2";"5";"2";"[7,8]";"2";"4";"1"
"1517";"37";"131";"1";"4";"4";"2";"5";"2";"[7,8]";"2";"4";"1"
"1518";"5";"1";"1";"9";"1";"2";"6";"2";"[2,7,10]";"2";"0";"1"
"1519";"24";"132";"1";"10";"2";"2";"6";"1";"[1,2,3,6,8,9]";"1";"0";"1"
"1520";"36";"1";"1";"1";"1";"2";"6";"2";"[5,10]";"2";"0";"1"
"1521";"17";"1";"1";"2";"1";"2";"6";"2";"[6,7,8,9,10]";"2";"0";"1"
"1522";"1";"133";"1";"3";"3";"2";"6";"1";"[8,10]";"1";"0";"1"
"1523";"18";"133";"1";"7";"3";"2";"6";"1";"[2,4,9]";"1";"0";"1"
"1524";"6";"133";"1";"5";"2";"2";"6";"1";"[1,6]";"1";"0";"1"
"1525";"33";"2";"1";"4";"1";"2";"6";"2";"[7,8]";"2";"0";"1"
"1526";"40";"133";"1";"6";"3";"2";"6";"2";"[2,5,8,10]";"1";"0";"1"
"1527";"22";"2";"1";"3";"1";"2";"6";"2";"[8,10]";"2";"0";"1"
"1528";"3";"133";"1";"8";"3";"2";"6";"1";"[2,3,4,6,10]";"1";"0";"1"
"1529";"5";"2";"1";"9";"1";"2";"6";"2";"[2,7,10]";"2";"0";"1"
"1530";"24";"133";"1";"10";"2";"2";"6";"1";"[1,2,3,6,8,9]";"1";"0";"1"
"1531";"36";"2";"1";"1";"1";"2";"6";"2";"[5,10]";"2";"0";"1"
"1532";"25";"133";"1";"1";"4";"2";"6";"2";"[5,10]";"1";"0";"1"
"1533";"14";"133";"1";"3";"2";"2";"6";"2";"[8,10]";"1";"0";"1"
"1534";"7";"133";"1";"9";"2";"2";"6";"1";"[2,7,10]";"1";"0";"1"
"1535";"21";"133";"1";"2";"4";"2";"6";"2";"[6,7,8,9,10]";"2";"0";"1"
"1536";"17";"2";"1";"2";"1";"2";"6";"2";"[6,7,8,9,10]";"2";"0";"1"
"1537";"19";"133";"1";"6";"4";"2";"6";"1";"[2,5,8,10]";"1";"0";"1"
"1538";"4";"133";"1";"4";"3";"2";"6";"1";"[7,8]";"1";"0";"1"
"1539";"1";"134";"1";"3";"3";"2";"6";"1";"[8,10]";"1";"0";"1"
"1540";"6";"134";"1";"5";"2";"2";"6";"1";"[1,6]";"1";"0";"1"
