"id";"id_subj";"time";"session";"id_grp";"grp";"round";"period";"sig";"links";"choice";"hist";"active"
"1";"29";"0";"1";"7";"2";"1";"1";"1";"[1,2,3,8]";"0";"0";"1"
"2";"3";"0";"1";"1";"4";"1";"1";"1";"[2,3]";"0";"0";"1"
"3";"38";"0";"1";"2";"2";"1";"1";"1";"[1,3]";"0";"0";"1"
"4";"32";"0";"1";"3";"2";"1";"1";"1";"[1,2,4]";"0";"0";"1"
"5";"15";"0";"1";"3";"3";"1";"1";"1";"[1,2,4]";"0";"0";"1"
"6";"37";"0";"1";"1";"3";"1";"1";"2";"[2,3]";"0";"0";"1"
"7";"11";"0";"1";"7";"3";"1";"1";"2";"[1,2,3,8]";"0";"0";"1"
"8";"36";"0";"1";"9";"3";"1";"1";"2";"[1,2,3,10]";"0";"0";"1"
"9";"19";"0";"1";"10";"2";"1";"1";"2";"[1,2,3]";"0";"0";"1"
"10";"9";"0";"1";"4";"4";"1";"1";"1";"[1,2,3,5]";"0";"0";"1"
"11";"31";"0";"1";"4";"2";"1";"1";"2";"[1,2,3,5]";"0";"0";"1"
"12";"34";"0";"1";"5";"4";"1";"1";"1";"[1,2,3,6]";"0";"0";"1"
"13";"25";"0";"1";"10";"4";"1";"1";"1";"[1,2,3]";"0";"0";"1"
"14";"21";"0";"1";"4";"3";"1";"1";"2";"[1,2,3,5]";"0";"0";"1"
"15";"14";"0";"1";"8";"1";"1";"1";"2";"[1,2,3,9]";"0";"0";"1"
"16";"17";"0";"1";"6";"3";"1";"1";"2";"[1,2,3,7]";"0";"0";"1"
"17";"22";"0";"1";"7";"4";"1";"1";"1";"[1,2,3,8]";"0";"0";"1"
"18";"26";"0";"1";"6";"4";"1";"1";"1";"[1,2,3,7]";"0";"0";"1"
"19";"6";"0";"1";"9";"2";"1";"1";"1";"[1,2,3,10]";"0";"0";"1"
"20";"10";"0";"1";"9";"4";"1";"1";"2";"[1,2,3,10]";"0";"0";"1"
"21";"40";"0";"1";"10";"1";"1";"1";"1";"[1,2,3]";"0";"0";"1"
"22";"30";"0";"1";"7";"1";"1";"1";"1";"[1,2,3,8]";"0";"0";"1"
"23";"23";"0";"1";"5";"1";"1";"1";"1";"[1,2,3,6]";"0";"0";"1"
"24";"33";"0";"1";"9";"1";"1";"1";"1";"[1,2,3,10]";"0";"0";"1"
"25";"8";"0";"1";"5";"2";"1";"1";"2";"[1,2,3,6]";"0";"0";"1"
"26";"2";"0";"1";"1";"2";"1";"1";"2";"[2,3]";"0";"0";"1"
"27";"39";"0";"1";"1";"1";"1";"1";"2";"[2,3]";"0";"0";"1"
"28";"13";"0";"1";"2";"4";"1";"1";"1";"[1,3]";"0";"0";"1"
"29";"24";"0";"1";"8";"3";"1";"1";"2";"[1,2,3,9]";"0";"0";"1"
"30";"1";"0";"1";"8";"4";"1";"1";"1";"[1,2,3,9]";"0";"0";"1"
"31";"35";"0";"1";"2";"3";"1";"1";"1";"[1,3]";"0";"0";"1"
"32";"5";"0";"1";"3";"1";"1";"1";"2";"[1,2,4]";"0";"0";"1"
"33";"28";"0";"1";"10";"3";"1";"1";"2";"[1,2,3]";"0";"0";"1"
"34";"18";"0";"1";"2";"1";"1";"1";"1";"[1,3]";"0";"0";"1"
"35";"20";"0";"1";"5";"3";"1";"1";"2";"[1,2,3,6]";"0";"0";"1"
"36";"16";"0";"1";"6";"2";"1";"1";"1";"[1,2,3,7]";"0";"0";"1"
"37";"12";"0";"1";"4";"1";"1";"1";"2";"[1,2,3,5]";"0";"0";"1"
"38";"27";"0";"1";"8";"2";"1";"1";"2";"[1,2,3,9]";"0";"0";"1"
"39";"4";"0";"1";"3";"4";"1";"1";"1";"[1,2,4]";"0";"0";"1"
"40";"7";"0";"1";"6";"1";"1";"1";"1";"[1,2,3,7]";"0";"0";"1"
"41";"28";"4";"1";"10";"3";"1";"1";"2";"[1,2,3]";"2";"0";"1"
"42";"26";"5";"1";"6";"4";"1";"1";"1";"[1,2,3,7]";"1";"0";"1"
"43";"19";"5";"1";"10";"2";"1";"1";"2";"[1,2,3]";"2";"0";"1"
"44";"28";"5";"1";"10";"3";"1";"1";"2";"[1,2,3]";"2";"0";"1"
"45";"29";"6";"1";"7";"2";"1";"1";"1";"[1,2,3,8]";"1";"0";"1"
"46";"26";"6";"1";"6";"4";"1";"1";"1";"[1,2,3,7]";"1";"0";"1"
"47";"19";"6";"1";"10";"2";"1";"1";"2";"[1,2,3]";"2";"0";"1"
"48";"33";"6";"1";"9";"1";"1";"1";"1";"[1,2,3,10]";"1";"0";"1"
"49";"30";"6";"1";"7";"1";"1";"1";"1";"[1,2,3,8]";"1";"0";"1"
"50";"40";"6";"1";"10";"1";"1";"1";"1";"[1,2,3]";"1";"0";"1"
"51";"34";"6";"1";"5";"4";"1";"1";"1";"[1,2,3,6]";"1";"0";"1"
"52";"18";"6";"1";"2";"1";"1";"1";"1";"[1,3]";"1";"0";"1"
"53";"9";"6";"1";"4";"4";"1";"1";"1";"[1,2,3,5]";"1";"0";"1"
"54";"6";"6";"1";"9";"2";"1";"1";"1";"[1,2,3,10]";"1";"0";"1"
"55";"10";"7";"1";"9";"4";"1";"1";"2";"[1,2,3,10]";"2";"0";"1"
"56";"35";"7";"1";"2";"3";"1";"1";"1";"[1,3]";"1";"0";"1"
"57";"29";"7";"1";"7";"2";"1";"1";"1";"[1,2,3,8]";"1";"0";"1"
"58";"33";"7";"1";"9";"1";"1";"1";"1";"[1,2,3,10]";"1";"0";"1"
"59";"5";"7";"1";"3";"1";"1";"1";"2";"[1,2,4]";"2";"0";"1"
"60";"30";"7";"1";"7";"1";"1";"1";"1";"[1,2,3,8]";"1";"0";"1"
"61";"40";"7";"1";"10";"1";"1";"1";"1";"[1,2,3]";"1";"0";"1"
"62";"34";"7";"1";"5";"4";"1";"1";"1";"[1,2,3,6]";"1";"0";"1"
"63";"18";"7";"1";"2";"1";"1";"1";"1";"[1,3]";"1";"0";"1"
"64";"9";"7";"1";"4";"4";"1";"1";"1";"[1,2,3,5]";"1";"0";"1"
"65";"6";"7";"1";"9";"2";"1";"1";"1";"[1,2,3,10]";"1";"0";"1"
"66";"10";"8";"1";"9";"4";"1";"1";"2";"[1,2,3,10]";"2";"0";"1"
"67";"35";"8";"1";"2";"3";"1";"1";"1";"[1,3]";"1";"0";"1"
"68";"31";"8";"1";"4";"2";"1";"1";"2";"[1,2,3,5]";"2";"0";"1"
"69";"23";"8";"1";"5";"1";"1";"1";"1";"[1,2,3,6]";"1";"0";"1"
"70";"5";"8";"1";"3";"1";"1";"1";"2";"[1,2,4]";"2";"0";"1"
"71";"3";"8";"1";"1";"4";"1";"1";"1";"[2,3]";"1";"0";"1"
"72";"39";"8";"1";"1";"1";"1";"1";"2";"[2,3]";"2";"0";"1"
"73";"21";"8";"1";"4";"3";"1";"1";"2";"[1,2,3,5]";"2";"0";"1"
"74";"11";"8";"1";"7";"3";"1";"1";"2";"[1,2,3,8]";"2";"0";"1"
"75";"16";"8";"1";"6";"2";"1";"1";"1";"[1,2,3,7]";"1";"0";"1"
"76";"31";"9";"1";"4";"2";"1";"1";"2";"[1,2,3,5]";"2";"0";"1"
"77";"38";"9";"1";"2";"2";"1";"1";"1";"[1,3]";"1";"0";"1"
"78";"14";"9";"1";"8";"1";"1";"1";"2";"[1,2,3,9]";"1";"0";"1"
"79";"23";"9";"1";"5";"1";"1";"1";"1";"[1,2,3,6]";"1";"0";"1"
"80";"3";"9";"1";"1";"4";"1";"1";"1";"[2,3]";"1";"0";"1"
"81";"39";"9";"1";"1";"1";"1";"1";"2";"[2,3]";"2";"0";"1"
"82";"21";"9";"1";"4";"3";"1";"1";"2";"[1,2,3,5]";"2";"0";"1"
"83";"11";"9";"1";"7";"3";"1";"1";"2";"[1,2,3,8]";"2";"0";"1"
"84";"16";"9";"1";"6";"2";"1";"1";"1";"[1,2,3,7]";"1";"0";"1"
"85";"7";"10";"1";"6";"1";"1";"1";"1";"[1,2,3,7]";"1";"0";"1"
"86";"14";"10";"1";"8";"1";"1";"1";"2";"[1,2,3,9]";"1";"0";"1"
"87";"38";"10";"1";"2";"2";"1";"1";"1";"[1,3]";"1";"0";"1"
"88";"2";"10";"1";"1";"2";"1";"1";"2";"[2,3]";"2";"0";"1"
"89";"7";"11";"1";"6";"1";"1";"1";"1";"[1,2,3,7]";"1";"0";"1"
"90";"12";"11";"1";"4";"1";"1";"1";"2";"[1,2,3,5]";"2";"0";"1"
"91";"13";"11";"1";"2";"4";"1";"1";"1";"[1,3]";"1";"0";"1"
"92";"1";"11";"1";"8";"4";"1";"1";"1";"[1,2,3,9]";"1";"0";"1"
"93";"24";"11";"1";"8";"3";"1";"1";"2";"[1,2,3,9]";"2";"0";"1"
"94";"2";"11";"1";"1";"2";"1";"1";"2";"[2,3]";"2";"0";"1"
"95";"12";"12";"1";"4";"1";"1";"1";"2";"[1,2,3,5]";"2";"0";"1"
"96";"13";"12";"1";"2";"4";"1";"1";"1";"[1,3]";"1";"0";"1"
"97";"22";"12";"1";"7";"4";"1";"1";"1";"[1,2,3,8]";"1";"0";"1"
"98";"1";"12";"1";"8";"4";"1";"1";"1";"[1,2,3,9]";"1";"0";"1"
"99";"24";"12";"1";"8";"3";"1";"1";"2";"[1,2,3,9]";"2";"0";"1"
"100";"4";"12";"1";"3";"4";"1";"1";"1";"[1,2,4]";"1";"0";"1"
"101";"25";"13";"1";"10";"4";"1";"1";"1";"[1,2,3]";"1";"0";"1"
"102";"20";"13";"1";"5";"3";"1";"1";"2";"[1,2,3,6]";"2";"0";"1"
"103";"22";"13";"1";"7";"4";"1";"1";"1";"[1,2,3,8]";"1";"0";"1"
"104";"32";"13";"1";"3";"2";"1";"1";"1";"[1,2,4]";"2";"0";"1"
"105";"37";"13";"1";"1";"3";"1";"1";"2";"[2,3]";"2";"0";"1"
"106";"4";"13";"1";"3";"4";"1";"1";"1";"[1,2,4]";"1";"0";"1"
"107";"36";"14";"1";"9";"3";"1";"1";"2";"[1,2,3,10]";"2";"0";"1"
"108";"17";"14";"1";"6";"3";"1";"1";"2";"[1,2,3,7]";"2";"0";"1"
"109";"25";"14";"1";"10";"4";"1";"1";"1";"[1,2,3]";"1";"0";"1"
"110";"20";"14";"1";"5";"3";"1";"1";"2";"[1,2,3,6]";"2";"0";"1"
"111";"32";"14";"1";"3";"2";"1";"1";"1";"[1,2,4]";"2";"0";"1"
"112";"37";"14";"1";"1";"3";"1";"1";"2";"[2,3]";"2";"0";"1"
"113";"36";"15";"1";"9";"3";"1";"1";"2";"[1,2,3,10]";"2";"0";"1"
"114";"17";"15";"1";"6";"3";"1";"1";"2";"[1,2,3,7]";"2";"0";"1"
"115";"27";"18";"1";"8";"2";"1";"1";"2";"[1,2,3,9]";"2";"0";"1"
"116";"27";"19";"1";"8";"2";"1";"1";"2";"[1,2,3,9]";"2";"0";"1"
"117";"8";"22";"1";"5";"2";"1";"1";"2";"[1,2,3,6]";"2";"0";"1"
"118";"8";"23";"1";"5";"2";"1";"1";"2";"[1,2,3,6]";"2";"0";"1"
"119";"15";"27";"1";"3";"3";"1";"1";"1";"[1,2,4]";"1";"0";"1"
"120";"15";"28";"1";"3";"3";"1";"1";"1";"[1,2,4]";"1";"0";"1"
"121";"10";"32";"1";"9";"4";"1";"2";"2";"[1,2,3,10]";"1";"0";"1"
"122";"30";"5";"1";"7";"1";"1";"2";"1";"[1,2,3,8]";"1";"0";"1"
"123";"16";"33";"1";"6";"2";"1";"2";"1";"[1,2,3,7]";"1";"0";"1"
"124";"10";"33";"1";"9";"4";"1";"2";"2";"[1,2,3,10]";"1";"0";"1"
"125";"23";"6";"1";"5";"1";"1";"2";"1";"[1,2,3,6]";"1";"0";"1"
"126";"25";"34";"1";"10";"4";"1";"2";"1";"[1,2,3]";"1";"0";"1"
"127";"26";"34";"1";"6";"4";"1";"2";"1";"[1,2,3,7]";"1";"0";"1"
"128";"30";"6";"1";"7";"1";"1";"2";"1";"[1,2,3,8]";"1";"0";"1"
"129";"22";"34";"1";"7";"4";"1";"2";"1";"[1,2,3,8]";"1";"0";"1"
"130";"19";"34";"1";"10";"2";"1";"2";"2";"[1,2,3]";"2";"0";"1"
"131";"16";"34";"1";"6";"2";"1";"2";"1";"[1,2,3,7]";"1";"0";"1"
"132";"15";"34";"1";"3";"3";"1";"2";"1";"[1,2,4]";"1";"0";"1"
"133";"23";"7";"1";"5";"1";"1";"2";"1";"[1,2,3,6]";"1";"0";"1"
"134";"25";"35";"1";"10";"4";"1";"2";"1";"[1,2,3]";"1";"0";"1"
"135";"26";"35";"1";"6";"4";"1";"2";"1";"[1,2,3,7]";"1";"0";"1"
"136";"22";"35";"1";"7";"4";"1";"2";"1";"[1,2,3,8]";"1";"0";"1"
"137";"5";"7";"1";"3";"1";"1";"2";"2";"[1,2,4]";"2";"0";"1"
"138";"19";"35";"1";"10";"2";"1";"2";"2";"[1,2,3]";"2";"0";"1"
"139";"15";"35";"1";"3";"3";"1";"2";"1";"[1,2,4]";"1";"0";"1"
"140";"13";"36";"1";"2";"4";"1";"2";"1";"[1,3]";"1";"0";"1"
"141";"5";"8";"1";"3";"1";"1";"2";"2";"[1,2,4]";"2";"0";"1"
"142";"33";"8";"1";"9";"1";"1";"2";"1";"[1,2,3,10]";"1";"0";"1"
"143";"32";"37";"1";"3";"2";"1";"2";"1";"[1,2,4]";"2";"0";"1"
"144";"13";"37";"1";"2";"4";"1";"2";"1";"[1,3]";"1";"0";"1"
"145";"3";"37";"1";"1";"4";"1";"2";"1";"[2,3]";"1";"0";"1"
"146";"9";"37";"1";"4";"4";"1";"2";"1";"[1,2,3,5]";"1";"0";"1"
"147";"38";"37";"1";"2";"2";"1";"2";"1";"[1,3]";"2";"0";"1"
"148";"34";"37";"1";"5";"4";"1";"2";"1";"[1,2,3,6]";"1";"0";"1"
"149";"33";"9";"1";"9";"1";"1";"2";"1";"[1,2,3,10]";"1";"0";"1"
"150";"12";"10";"1";"4";"1";"1";"2";"2";"[1,2,3,5]";"2";"0";"1"
"151";"32";"38";"1";"3";"2";"1";"2";"1";"[1,2,4]";"2";"0";"1"
"152";"3";"38";"1";"1";"4";"1";"2";"1";"[2,3]";"1";"0";"1"
"153";"9";"38";"1";"4";"4";"1";"2";"1";"[1,2,3,5]";"1";"0";"1"
"154";"29";"38";"1";"7";"2";"1";"2";"1";"[1,2,3,8]";"1";"0";"1"
"155";"38";"38";"1";"2";"2";"1";"2";"1";"[1,3]";"2";"0";"1"
"156";"34";"38";"1";"5";"4";"1";"2";"1";"[1,2,3,6]";"1";"0";"1"
"157";"8";"38";"1";"5";"2";"1";"2";"2";"[1,2,3,6]";"2";"0";"1"
"158";"14";"10";"1";"8";"1";"1";"2";"2";"[1,2,3,9]";"1";"0";"1"
"159";"6";"39";"1";"9";"2";"1";"2";"1";"[1,2,3,10]";"2";"0";"1"
"160";"12";"11";"1";"4";"1";"1";"2";"2";"[1,2,3,5]";"2";"0";"1"
"161";"39";"11";"1";"1";"1";"1";"2";"2";"[2,3]";"2";"0";"1"
"162";"29";"39";"1";"7";"2";"1";"2";"1";"[1,2,3,8]";"1";"0";"1"
"163";"8";"39";"1";"5";"2";"1";"2";"2";"[1,2,3,6]";"2";"0";"1"
"164";"14";"11";"1";"8";"1";"1";"2";"2";"[1,2,3,9]";"1";"0";"1"
"165";"4";"40";"1";"3";"4";"1";"2";"1";"[1,2,4]";"1";"0";"1"
"166";"6";"40";"1";"9";"2";"1";"2";"1";"[1,2,3,10]";"2";"0";"1"
"167";"40";"12";"1";"10";"1";"1";"2";"1";"[1,2,3]";"1";"0";"1"
"168";"11";"40";"1";"7";"3";"1";"2";"2";"[1,2,3,8]";"2";"0";"1"
"169";"39";"12";"1";"1";"1";"1";"2";"2";"[2,3]";"2";"0";"1"
"170";"28";"40";"1";"10";"3";"1";"2";"2";"[1,2,3]";"2";"0";"1"
"171";"4";"41";"1";"3";"4";"1";"2";"1";"[1,2,4]";"1";"0";"1"
"172";"40";"13";"1";"10";"1";"1";"2";"1";"[1,2,3]";"1";"0";"1"
"173";"11";"41";"1";"7";"3";"1";"2";"2";"[1,2,3,8]";"2";"0";"1"
"174";"28";"41";"1";"10";"3";"1";"2";"2";"[1,2,3]";"2";"0";"1"
"175";"17";"41";"1";"6";"3";"1";"2";"2";"[1,2,3,7]";"2";"0";"1"
"176";"35";"42";"1";"2";"3";"1";"2";"1";"[1,3]";"1";"0";"1"
"177";"36";"42";"1";"9";"3";"1";"2";"2";"[1,2,3,10]";"2";"0";"1"
"178";"17";"42";"1";"6";"3";"1";"2";"2";"[1,2,3,7]";"2";"0";"1"
"179";"35";"43";"1";"2";"3";"1";"2";"1";"[1,3]";"1";"0";"1"
"180";"36";"43";"1";"9";"3";"1";"2";"2";"[1,2,3,10]";"2";"0";"1"
"181";"18";"15";"1";"2";"1";"1";"2";"1";"[1,3]";"2";"0";"1"
"182";"37";"44";"1";"1";"3";"1";"2";"2";"[2,3]";"2";"0";"1"
"183";"18";"16";"1";"2";"1";"1";"2";"1";"[1,3]";"2";"0";"1"
"184";"1";"45";"1";"8";"4";"1";"2";"1";"[1,2,3,9]";"1";"0";"1"
"185";"20";"45";"1";"5";"3";"1";"2";"2";"[1,2,3,6]";"2";"0";"1"
"186";"7";"17";"1";"6";"1";"1";"2";"1";"[1,2,3,7]";"1";"0";"1"
"187";"37";"45";"1";"1";"3";"1";"2";"2";"[2,3]";"2";"0";"1"
"188";"1";"46";"1";"8";"4";"1";"2";"1";"[1,2,3,9]";"1";"0";"1"
"189";"31";"46";"1";"4";"2";"1";"2";"2";"[1,2,3,5]";"2";"0";"1"
"190";"20";"46";"1";"5";"3";"1";"2";"2";"[1,2,3,6]";"2";"0";"1"
"191";"21";"46";"1";"4";"3";"1";"2";"2";"[1,2,3,5]";"2";"0";"1"
"192";"7";"18";"1";"6";"1";"1";"2";"1";"[1,2,3,7]";"1";"0";"1"
"193";"31";"47";"1";"4";"2";"1";"2";"2";"[1,2,3,5]";"2";"0";"1"
"194";"21";"47";"1";"4";"3";"1";"2";"2";"[1,2,3,5]";"2";"0";"1"
"195";"2";"47";"1";"1";"2";"1";"2";"2";"[2,3]";"2";"0";"1"
"196";"2";"48";"1";"1";"2";"1";"2";"2";"[2,3]";"2";"0";"1"
"197";"29";"51";"1";"7";"2";"1";"2";"1";"[1,2,3,8]";"1";"2";"1"
"198";"24";"53";"1";"8";"3";"1";"2";"2";"[1,2,3,9]";"2";"0";"1"
"199";"24";"54";"1";"8";"3";"1";"2";"2";"[1,2,3,9]";"2";"0";"1"
"200";"27";"57";"1";"8";"2";"1";"2";"2";"[1,2,3,9]";"2";"0";"1"
"201";"27";"58";"1";"8";"2";"1";"2";"2";"[1,2,3,9]";"2";"0";"1"
"202";"29";"59";"1";"7";"2";"1";"3";"1";"[1,2,3,8]";"2";"0";"1"
"203";"9";"60";"1";"4";"4";"1";"3";"1";"[1,2,3,5]";"1";"0";"1"
"204";"29";"60";"1";"7";"2";"1";"3";"1";"[1,2,3,8]";"2";"0";"1"
"205";"19";"60";"1";"10";"2";"1";"3";"2";"[1,2,3]";"2";"0";"1"
"206";"34";"61";"1";"5";"4";"1";"3";"1";"[1,2,3,6]";"1";"0";"1"
"207";"9";"61";"1";"4";"4";"1";"3";"1";"[1,2,3,5]";"1";"0";"1"
"208";"19";"61";"1";"10";"2";"1";"3";"2";"[1,2,3]";"2";"0";"1"
"209";"16";"62";"1";"6";"2";"1";"3";"1";"[1,2,3,7]";"1";"0";"1"
"210";"34";"62";"1";"5";"4";"1";"3";"1";"[1,2,3,6]";"1";"0";"1"
"211";"25";"62";"1";"10";"4";"1";"3";"1";"[1,2,3]";"1";"0";"1"
"212";"1";"62";"1";"8";"4";"1";"3";"1";"[1,2,3,9]";"1";"0";"1"
"213";"11";"62";"1";"7";"3";"1";"3";"2";"[1,2,3,8]";"2";"0";"1"
"214";"13";"63";"1";"2";"4";"1";"3";"1";"[1,3]";"1";"0";"1"
"215";"16";"63";"1";"6";"2";"1";"3";"1";"[1,2,3,7]";"1";"0";"1"
"216";"31";"63";"1";"4";"2";"1";"3";"2";"[1,2,3,5]";"2";"0";"1"
"217";"25";"63";"1";"10";"4";"1";"3";"1";"[1,2,3]";"1";"0";"1"
"218";"26";"63";"1";"6";"4";"1";"3";"1";"[1,2,3,7]";"1";"0";"1"
"219";"14";"5";"1";"8";"1";"1";"3";"2";"[1,2,3,9]";"1";"0";"1"
"220";"1";"63";"1";"8";"4";"1";"3";"1";"[1,2,3,9]";"1";"0";"1"
"221";"11";"63";"1";"7";"3";"1";"3";"2";"[1,2,3,8]";"2";"0";"1"
"222";"27";"63";"1";"8";"2";"1";"3";"2";"[1,2,3,9]";"2";"0";"1"
"223";"3";"63";"1";"1";"4";"1";"3";"1";"[2,3]";"2";"0";"1"
"224";"38";"64";"1";"2";"2";"1";"3";"1";"[1,3]";"2";"0";"1"
"225";"13";"64";"1";"2";"4";"1";"3";"1";"[1,3]";"1";"0";"1"
"226";"22";"64";"1";"7";"4";"1";"3";"1";"[1,2,3,8]";"1";"0";"1"
"227";"31";"64";"1";"4";"2";"1";"3";"2";"[1,2,3,5]";"2";"0";"1"
"228";"6";"64";"1";"9";"2";"1";"3";"1";"[1,2,3,10]";"2";"0";"1"
"229";"26";"64";"1";"6";"4";"1";"3";"1";"[1,2,3,7]";"1";"0";"1"
"230";"14";"6";"1";"8";"1";"1";"3";"2";"[1,2,3,9]";"1";"0";"1"
"231";"27";"64";"1";"8";"2";"1";"3";"2";"[1,2,3,9]";"2";"0";"1"
"232";"3";"64";"1";"1";"4";"1";"3";"1";"[2,3]";"2";"0";"1"
"233";"38";"65";"1";"2";"2";"1";"3";"1";"[1,3]";"2";"0";"1"
"234";"22";"65";"1";"7";"4";"1";"3";"1";"[1,2,3,8]";"1";"0";"1"
"235";"8";"65";"1";"5";"2";"1";"3";"2";"[1,2,3,6]";"2";"0";"1"
"236";"6";"65";"1";"9";"2";"1";"3";"1";"[1,2,3,10]";"2";"0";"1"
"237";"33";"7";"1";"9";"1";"1";"3";"1";"[1,2,3,10]";"2";"0";"1"
"238";"40";"7";"1";"10";"1";"1";"3";"1";"[1,2,3]";"2";"0";"1"
"239";"39";"7";"1";"1";"1";"1";"3";"2";"[2,3]";"2";"0";"1"
"240";"35";"66";"1";"2";"3";"1";"3";"1";"[1,3]";"1";"0";"1"
"241";"15";"66";"1";"3";"3";"1";"3";"1";"[1,2,4]";"1";"0";"1"
"242";"7";"8";"1";"6";"1";"1";"3";"1";"[1,2,3,7]";"2";"0";"1"
"243";"8";"66";"1";"5";"2";"1";"3";"2";"[1,2,3,6]";"2";"0";"1"
"244";"37";"66";"1";"1";"3";"1";"3";"2";"[2,3]";"2";"0";"1"
"245";"33";"8";"1";"9";"1";"1";"3";"1";"[1,2,3,10]";"2";"0";"1"
"246";"40";"8";"1";"10";"1";"1";"3";"1";"[1,2,3]";"2";"0";"1"
"247";"39";"8";"1";"1";"1";"1";"3";"2";"[2,3]";"2";"0";"1"
"248";"4";"66";"1";"3";"4";"1";"3";"1";"[1,2,4]";"1";"0";"1"
"249";"10";"67";"1";"9";"4";"1";"3";"2";"[1,2,3,10]";"1";"0";"1"
"250";"2";"67";"1";"1";"2";"1";"3";"2";"[2,3]";"2";"0";"1"
"251";"35";"67";"1";"2";"3";"1";"3";"1";"[1,3]";"1";"0";"1"
"252";"15";"67";"1";"3";"3";"1";"3";"1";"[1,2,4]";"1";"0";"1"
"253";"7";"9";"1";"6";"1";"1";"3";"1";"[1,2,3,7]";"2";"0";"1"
"254";"12";"9";"1";"4";"1";"1";"3";"2";"[1,2,3,5]";"2";"0";"1"
"255";"23";"9";"1";"5";"1";"1";"3";"1";"[1,2,3,6]";"1";"0";"1"
"256";"37";"67";"1";"1";"3";"1";"3";"2";"[2,3]";"2";"0";"1"
"257";"4";"67";"1";"3";"4";"1";"3";"1";"[1,2,4]";"1";"0";"1"
"258";"10";"68";"1";"9";"4";"1";"3";"2";"[1,2,3,10]";"1";"0";"1"
"259";"2";"68";"1";"1";"2";"1";"3";"2";"[2,3]";"2";"0";"1"
"260";"12";"10";"1";"4";"1";"1";"3";"2";"[1,2,3,5]";"2";"0";"1"
"261";"23";"10";"1";"5";"1";"1";"3";"1";"[1,2,3,6]";"1";"0";"1"
"262";"28";"68";"1";"10";"3";"1";"3";"2";"[1,2,3]";"2";"0";"1"
"263";"28";"69";"1";"10";"3";"1";"3";"2";"[1,2,3]";"2";"0";"1"
"264";"5";"11";"1";"3";"1";"1";"3";"2";"[1,2,4]";"2";"0";"1"
"265";"30";"11";"1";"7";"1";"1";"3";"1";"[1,2,3,8]";"1";"0";"1"
"266";"18";"11";"1";"2";"1";"1";"3";"1";"[1,3]";"2";"0";"1"
"267";"5";"12";"1";"3";"1";"1";"3";"2";"[1,2,4]";"2";"0";"1"
"268";"30";"12";"1";"7";"1";"1";"3";"1";"[1,2,3,8]";"1";"0";"1"
"269";"18";"12";"1";"2";"1";"1";"3";"1";"[1,3]";"2";"0";"1"
"270";"36";"71";"1";"9";"3";"1";"3";"2";"[1,2,3,10]";"2";"0";"1"
"271";"36";"72";"1";"9";"3";"1";"3";"2";"[1,2,3,10]";"2";"0";"1"
"272";"21";"72";"1";"4";"3";"1";"3";"2";"[1,2,3,5]";"2";"0";"1"
"273";"21";"73";"1";"4";"3";"1";"3";"2";"[1,2,3,5]";"2";"0";"1"
"274";"20";"76";"1";"5";"3";"1";"3";"2";"[1,2,3,6]";"2";"0";"1"
"275";"20";"77";"1";"5";"3";"1";"3";"2";"[1,2,3,6]";"2";"0";"1"
"276";"17";"77";"1";"6";"3";"1";"3";"2";"[1,2,3,7]";"2";"0";"1"
"277";"17";"78";"1";"6";"3";"1";"3";"2";"[1,2,3,7]";"2";"0";"1"
"278";"32";"80";"1";"3";"2";"1";"3";"1";"[1,2,4]";"2";"0";"1"
"279";"32";"81";"1";"3";"2";"1";"3";"1";"[1,2,4]";"2";"0";"1"
"280";"24";"82";"1";"8";"3";"1";"3";"2";"[1,2,3,9]";"2";"0";"1"
"281";"24";"83";"1";"8";"3";"1";"3";"2";"[1,2,3,9]";"2";"0";"1"
"282";"9";"85";"1";"4";"4";"1";"4";"1";"[1,2,3,5]";"1";"0";"1"
"283";"29";"85";"1";"7";"2";"1";"4";"1";"[1,2,3,8]";"2";"0";"1"
"284";"9";"86";"1";"4";"4";"1";"4";"1";"[1,2,3,5]";"1";"0";"1"
"285";"5";"3";"1";"3";"1";"1";"4";"2";"[1,2,4]";"2";"0";"1"
"286";"29";"86";"1";"7";"2";"1";"4";"1";"[1,2,3,8]";"2";"0";"1"
"287";"23";"4";"1";"5";"1";"1";"4";"1";"[1,2,3,6]";"2";"0";"1"
"288";"6";"87";"1";"9";"2";"1";"4";"1";"[1,2,3,10]";"2";"0";"1"
"289";"16";"87";"1";"6";"2";"1";"4";"1";"[1,2,3,7]";"1";"0";"1"
"290";"5";"4";"1";"3";"1";"1";"4";"2";"[1,2,4]";"2";"0";"1"
"291";"33";"4";"1";"9";"1";"1";"4";"1";"[1,2,3,10]";"2";"0";"1"
"292";"3";"88";"1";"1";"4";"1";"4";"1";"[2,3]";"1";"0";"1"
"293";"23";"5";"1";"5";"1";"1";"4";"1";"[1,2,3,6]";"2";"0";"1"
"294";"6";"88";"1";"9";"2";"1";"4";"1";"[1,2,3,10]";"2";"0";"1"
"295";"2";"88";"1";"1";"2";"1";"4";"2";"[2,3]";"2";"0";"1"
"296";"16";"88";"1";"6";"2";"1";"4";"1";"[1,2,3,7]";"1";"0";"1"
"297";"27";"88";"1";"8";"2";"1";"4";"2";"[1,2,3,9]";"2";"0";"1"
"298";"33";"5";"1";"9";"1";"1";"4";"1";"[1,2,3,10]";"2";"0";"1"
"299";"3";"89";"1";"1";"4";"1";"4";"1";"[2,3]";"1";"0";"1"
"300";"31";"89";"1";"4";"2";"1";"4";"2";"[1,2,3,5]";"2";"0";"1"
"301";"10";"89";"1";"9";"4";"1";"4";"2";"[1,2,3,10]";"2";"0";"1"
"302";"14";"6";"1";"8";"1";"1";"4";"2";"[1,2,3,9]";"1";"0";"1"
"303";"2";"89";"1";"1";"2";"1";"4";"2";"[2,3]";"2";"0";"1"
"304";"27";"89";"1";"8";"2";"1";"4";"2";"[1,2,3,9]";"2";"0";"1"
"305";"1";"89";"1";"8";"4";"1";"4";"1";"[1,2,3,9]";"1";"0";"1"
"306";"31";"90";"1";"4";"2";"1";"4";"2";"[1,2,3,5]";"2";"0";"1"
"307";"34";"90";"1";"5";"4";"1";"4";"1";"[1,2,3,6]";"1";"0";"1"
"308";"10";"90";"1";"9";"4";"1";"4";"2";"[1,2,3,10]";"2";"0";"1"
"309";"14";"7";"1";"8";"1";"1";"4";"2";"[1,2,3,9]";"1";"0";"1"
"310";"15";"90";"1";"3";"3";"1";"4";"1";"[1,2,4]";"1";"0";"1"
"311";"1";"90";"1";"8";"4";"1";"4";"1";"[1,2,3,9]";"1";"0";"1"
"312";"26";"90";"1";"6";"4";"1";"4";"1";"[1,2,3,7]";"1";"0";"1"
"313";"22";"90";"1";"7";"4";"1";"4";"1";"[1,2,3,8]";"1";"0";"1"
"314";"28";"90";"1";"10";"3";"1";"4";"2";"[1,2,3]";"2";"0";"1"
"315";"34";"91";"1";"5";"4";"1";"4";"1";"[1,2,3,6]";"1";"0";"1"
"316";"8";"91";"1";"5";"2";"1";"4";"2";"[1,2,3,6]";"2";"0";"1"
"317";"19";"91";"1";"10";"2";"1";"4";"2";"[1,2,3]";"2";"0";"1"
"318";"15";"91";"1";"3";"3";"1";"4";"1";"[1,2,4]";"1";"0";"1"
"319";"36";"91";"1";"9";"3";"1";"4";"2";"[1,2,3,10]";"2";"0";"1"
"320";"26";"91";"1";"6";"4";"1";"4";"1";"[1,2,3,7]";"1";"0";"1"
"321";"22";"91";"1";"7";"4";"1";"4";"1";"[1,2,3,8]";"1";"0";"1"
"322";"28";"91";"1";"10";"3";"1";"4";"2";"[1,2,3]";"2";"0";"1"
"323";"17";"92";"1";"6";"3";"1";"4";"2";"[1,2,3,7]";"2";"0";"1"
"324";"8";"92";"1";"5";"2";"1";"4";"2";"[1,2,3,6]";"2";"0";"1"
"325";"19";"92";"1";"10";"2";"1";"4";"2";"[1,2,3]";"2";"0";"1"
"326";"36";"92";"1";"9";"3";"1";"4";"2";"[1,2,3,10]";"2";"0";"1"
"327";"4";"92";"1";"3";"4";"1";"4";"1";"[1,2,4]";"1";"0";"1"
"328";"17";"93";"1";"6";"3";"1";"4";"2";"[1,2,3,7]";"2";"0";"1"
"329";"4";"93";"1";"3";"4";"1";"4";"1";"[1,2,4]";"1";"0";"1"
"330";"21";"94";"1";"4";"3";"1";"4";"2";"[1,2,3,5]";"2";"0";"1"
"331";"30";"11";"1";"7";"1";"1";"4";"1";"[1,2,3,8]";"1";"0";"1"
"332";"37";"94";"1";"1";"3";"1";"4";"2";"[2,3]";"1";"0";"1"
"333";"11";"95";"1";"7";"3";"1";"4";"2";"[1,2,3,8]";"2";"0";"1"
"334";"12";"12";"1";"4";"1";"1";"4";"2";"[1,2,3,5]";"2";"0";"1"
"335";"21";"95";"1";"4";"3";"1";"4";"2";"[1,2,3,5]";"2";"0";"1"
"336";"39";"12";"1";"1";"1";"1";"4";"2";"[2,3]";"2";"0";"1"
"337";"30";"12";"1";"7";"1";"1";"4";"1";"[1,2,3,8]";"1";"0";"1"
"338";"37";"95";"1";"1";"3";"1";"4";"2";"[2,3]";"1";"0";"1"
"339";"11";"96";"1";"7";"3";"1";"4";"2";"[1,2,3,8]";"2";"0";"1"
"340";"12";"13";"1";"4";"1";"1";"4";"2";"[1,2,3,5]";"2";"0";"1"
"341";"39";"13";"1";"1";"1";"1";"4";"2";"[2,3]";"2";"0";"1"
"342";"25";"98";"1";"10";"4";"1";"4";"1";"[1,2,3]";"1";"0";"1"
"343";"20";"98";"1";"5";"3";"1";"4";"2";"[1,2,3,6]";"2";"0";"1"
"344";"13";"98";"1";"2";"4";"1";"4";"1";"[1,3]";"1";"0";"1"
"345";"25";"99";"1";"10";"4";"1";"4";"1";"[1,2,3]";"1";"0";"1"
"346";"40";"16";"1";"10";"1";"1";"4";"1";"[1,2,3]";"2";"0";"1"
"347";"20";"99";"1";"5";"3";"1";"4";"2";"[1,2,3,6]";"2";"0";"1"
"348";"13";"99";"1";"2";"4";"1";"4";"1";"[1,3]";"1";"0";"1"
"349";"5";"17";"1";"3";"1";"1";"4";"2";"[1,2,4]";"2";"1";"1"
"350";"40";"17";"1";"10";"1";"1";"4";"1";"[1,2,3]";"2";"0";"1"
"351";"7";"19";"1";"6";"1";"1";"4";"1";"[1,2,3,7]";"0";"2";"1"
"352";"18";"19";"1";"2";"1";"1";"4";"1";"[1,3]";"1";"0";"1"
"353";"24";"102";"1";"8";"3";"1";"4";"2";"[1,2,3,9]";"2";"0";"1"
"354";"18";"20";"1";"2";"1";"1";"4";"1";"[1,3]";"1";"0";"1"
"355";"24";"103";"1";"8";"3";"1";"4";"2";"[1,2,3,9]";"2";"0";"1"
"356";"7";"21";"1";"6";"1";"1";"4";"1";"[1,2,3,7]";"0";"1";"1"
"357";"7";"22";"1";"6";"1";"1";"4";"1";"[1,2,3,7]";"0";"3";"1"
"358";"32";"107";"1";"3";"2";"1";"4";"1";"[1,2,4]";"2";"0";"1"
"359";"7";"24";"1";"6";"1";"1";"4";"1";"[1,2,3,7]";"2";"3";"1"
"360";"32";"108";"1";"3";"2";"1";"4";"1";"[1,2,4]";"2";"0";"1"
"361";"7";"25";"1";"6";"1";"1";"4";"1";"[1,2,3,7]";"2";"3";"1"
"362";"38";"113";"1";"2";"2";"1";"4";"1";"[1,3]";"0";"0";"1"
"363";"35";"114";"1";"2";"3";"1";"4";"1";"[1,3]";"0";"0";"1"
"364";"0";"30";"1";"2";"2";"1";"4";"1";"[1,3]";"2";"0";"0"
"365";"0";"30";"1";"2";"3";"1";"4";"1";"[1,3]";"1";"0";"0"
"366";"22";"116";"1";"7";"4";"1";"5";"1";"[1,2,3,8]";"1";"0";"1"
"367";"6";"116";"1";"9";"2";"1";"5";"1";"[1,2,3,10]";"2";"0";"1"
"368";"3";"116";"1";"1";"4";"1";"5";"1";"[2,3]";"1";"0";"1"
"369";"29";"117";"1";"7";"2";"1";"5";"1";"[1,2,3,8]";"2";"0";"1"
"370";"38";"117";"1";"2";"2";"1";"5";"1";"[1,3]";"2";"0";"1"
"371";"22";"117";"1";"7";"4";"1";"5";"1";"[1,2,3,8]";"1";"0";"1"
"372";"6";"117";"1";"9";"2";"1";"5";"1";"[1,2,3,10]";"2";"0";"1"
"373";"3";"117";"1";"1";"4";"1";"5";"1";"[2,3]";"1";"0";"1"
"374";"34";"117";"1";"5";"4";"1";"5";"1";"[1,2,3,6]";"1";"0";"1"
"375";"19";"117";"1";"10";"2";"1";"5";"2";"[1,2,3]";"2";"0";"1"
"376";"26";"117";"1";"6";"4";"1";"5";"1";"[1,2,3,7]";"1";"0";"1"
"377";"14";"3";"1";"8";"1";"1";"5";"2";"[1,2,3,9]";"1";"0";"1"
"378";"29";"118";"1";"7";"2";"1";"5";"1";"[1,2,3,8]";"2";"0";"1"
"379";"13";"118";"1";"2";"4";"1";"5";"1";"[1,3]";"1";"0";"1"
"380";"9";"118";"1";"4";"4";"1";"5";"1";"[1,2,3,5]";"1";"0";"1"
"381";"38";"118";"1";"2";"2";"1";"5";"1";"[1,3]";"2";"0";"1"
"382";"5";"4";"1";"3";"1";"1";"5";"2";"[1,2,4]";"2";"0";"1"
"383";"37";"118";"1";"1";"3";"1";"5";"2";"[2,3]";"1";"0";"1"
"384";"2";"118";"1";"1";"2";"1";"5";"2";"[2,3]";"2";"0";"1"
"385";"34";"118";"1";"5";"4";"1";"5";"1";"[1,2,3,6]";"1";"0";"1"
"386";"23";"4";"1";"5";"1";"1";"5";"1";"[1,2,3,6]";"2";"0";"1"
"387";"7";"4";"1";"6";"1";"1";"5";"1";"[1,2,3,7]";"1";"0";"1"
"388";"19";"118";"1";"10";"2";"1";"5";"2";"[1,2,3]";"2";"0";"1"
"389";"14";"4";"1";"8";"1";"1";"5";"2";"[1,2,3,9]";"1";"0";"1"
"390";"26";"118";"1";"6";"4";"1";"5";"1";"[1,2,3,7]";"1";"0";"1"
"391";"25";"119";"1";"10";"4";"1";"5";"1";"[1,2,3]";"1";"0";"1"
"392";"13";"119";"1";"2";"4";"1";"5";"1";"[1,3]";"1";"0";"1"
"393";"4";"119";"1";"3";"4";"1";"5";"1";"[1,2,4]";"1";"0";"1"
"394";"9";"119";"1";"4";"4";"1";"5";"1";"[1,2,3,5]";"1";"0";"1"
"395";"8";"119";"1";"5";"2";"1";"5";"2";"[1,2,3,6]";"2";"0";"1"
"396";"5";"5";"1";"3";"1";"1";"5";"2";"[1,2,4]";"2";"0";"1"
"397";"16";"119";"1";"6";"2";"1";"5";"1";"[1,2,3,7]";"1";"0";"1"
"398";"5";"5";"1";"3";"1";"1";"5";"2";"[1,2,4]";"2";"5";"1"
"399";"37";"119";"1";"1";"3";"1";"5";"2";"[2,3]";"1";"0";"1"
"400";"35";"119";"1";"2";"3";"1";"5";"1";"[1,3]";"1";"0";"1"
"401";"2";"119";"1";"1";"2";"1";"5";"2";"[2,3]";"2";"0";"1"
"402";"23";"5";"1";"5";"1";"1";"5";"1";"[1,2,3,6]";"2";"0";"1"
"403";"7";"5";"1";"6";"1";"1";"5";"1";"[1,2,3,7]";"1";"0";"1"
"404";"25";"120";"1";"10";"4";"1";"5";"1";"[1,2,3]";"1";"0";"1"
"405";"4";"120";"1";"3";"4";"1";"5";"1";"[1,2,4]";"1";"0";"1"
"406";"8";"120";"1";"5";"2";"1";"5";"2";"[1,2,3,6]";"2";"0";"1"
"407";"16";"120";"1";"6";"2";"1";"5";"1";"[1,2,3,7]";"1";"0";"1"
"408";"35";"120";"1";"2";"3";"1";"5";"1";"[1,3]";"1";"0";"1"
"409";"27";"120";"1";"8";"2";"1";"5";"2";"[1,2,3,9]";"2";"0";"1"
"410";"15";"120";"1";"3";"3";"1";"5";"1";"[1,2,4]";"1";"0";"1"
"411";"31";"121";"1";"4";"2";"1";"5";"2";"[1,2,3,5]";"2";"0";"1"
"412";"27";"121";"1";"8";"2";"1";"5";"2";"[1,2,3,9]";"2";"0";"1"
"413";"15";"121";"1";"3";"3";"1";"5";"1";"[1,2,4]";"1";"0";"1"
"414";"31";"122";"1";"4";"2";"1";"5";"2";"[1,2,3,5]";"2";"0";"1"
"415";"10";"123";"1";"9";"4";"1";"5";"2";"[1,2,3,10]";"1";"0";"1"
"416";"12";"10";"1";"4";"1";"1";"5";"2";"[1,2,3,5]";"2";"0";"1"
"417";"10";"124";"1";"9";"4";"1";"5";"2";"[1,2,3,10]";"1";"0";"1"
"418";"30";"11";"1";"7";"1";"1";"5";"1";"[1,2,3,8]";"1";"0";"1"
"419";"12";"11";"1";"4";"1";"1";"5";"2";"[1,2,3,5]";"2";"0";"1"
"420";"28";"125";"1";"10";"3";"1";"5";"2";"[1,2,3]";"1";"0";"1"
"421";"30";"12";"1";"7";"1";"1";"5";"1";"[1,2,3,8]";"1";"0";"1"
"422";"28";"126";"1";"10";"3";"1";"5";"2";"[1,2,3]";"1";"0";"1"
"423";"36";"127";"1";"9";"3";"1";"5";"2";"[1,2,3,10]";"2";"0";"1"
"424";"40";"14";"1";"10";"1";"1";"5";"1";"[1,2,3]";"2";"0";"1"
"425";"36";"128";"1";"9";"3";"1";"5";"2";"[1,2,3,10]";"2";"0";"1"
"426";"17";"128";"1";"6";"3";"1";"5";"2";"[1,2,3,7]";"1";"0";"1"
"427";"40";"15";"1";"10";"1";"1";"5";"1";"[1,2,3]";"2";"0";"1"
"428";"24";"129";"1";"8";"3";"1";"5";"2";"[1,2,3,9]";"1";"0";"1"
"429";"17";"129";"1";"6";"3";"1";"5";"2";"[1,2,3,7]";"1";"0";"1"
"430";"24";"130";"1";"8";"3";"1";"5";"2";"[1,2,3,9]";"1";"0";"1"
"431";"1";"131";"1";"8";"4";"1";"5";"1";"[1,2,3,9]";"1";"0";"1"
"432";"11";"131";"1";"7";"3";"1";"5";"2";"[1,2,3,8]";"2";"0";"1"
"433";"23";"18";"1";"5";"1";"1";"5";"1";"[1,2,3,6]";"2";"2";"1"
"434";"1";"132";"1";"8";"4";"1";"5";"1";"[1,2,3,9]";"1";"0";"1"
"435";"11";"132";"1";"7";"3";"1";"5";"2";"[1,2,3,8]";"2";"0";"1"
"436";"20";"132";"1";"5";"3";"1";"5";"2";"[1,2,3,6]";"2";"0";"1"
"437";"20";"133";"1";"5";"3";"1";"5";"2";"[1,2,3,6]";"2";"0";"1"
"438";"39";"22";"1";"1";"1";"1";"5";"2";"[2,3]";"1";"0";"1"
"439";"32";"137";"1";"3";"2";"1";"5";"1";"[1,2,4]";"2";"0";"1"
"440";"39";"23";"1";"1";"1";"1";"5";"2";"[2,3]";"1";"0";"1"
"441";"33";"23";"1";"9";"1";"1";"5";"1";"[1,2,3,10]";"2";"0";"1"
"442";"23";"23";"1";"5";"1";"1";"5";"1";"[1,2,3,6]";"2";"3";"1"
"443";"18";"24";"1";"2";"1";"1";"5";"1";"[1,3]";"2";"0";"1"
"444";"32";"138";"1";"3";"2";"1";"5";"1";"[1,2,4]";"2";"0";"1"
"445";"33";"24";"1";"9";"1";"1";"5";"1";"[1,2,3,10]";"2";"0";"1"
"446";"21";"138";"1";"4";"3";"1";"5";"2";"[1,2,3,5]";"1";"0";"1"
"447";"18";"25";"1";"2";"1";"1";"5";"1";"[1,3]";"2";"0";"1"
"448";"21";"139";"1";"4";"3";"1";"5";"2";"[1,2,3,5]";"1";"0";"1"
"449";"6";"141";"1";"9";"2";"1";"6";"1";"[1,2,3,10]";"2";"0";"1"
"450";"9";"141";"1";"4";"4";"1";"6";"1";"[1,2,3,5]";"1";"0";"1"
"451";"28";"141";"1";"10";"3";"1";"6";"2";"[1,2,3]";"2";"0";"1"
"452";"6";"142";"1";"9";"2";"1";"6";"1";"[1,2,3,10]";"2";"0";"1"
"453";"38";"142";"1";"2";"2";"1";"6";"1";"[1,3]";"2";"0";"1"
"454";"9";"142";"1";"4";"4";"1";"6";"1";"[1,2,3,5]";"1";"0";"1"
"455";"1";"142";"1";"8";"4";"1";"6";"1";"[1,2,3,9]";"1";"0";"1"
"456";"15";"142";"1";"3";"3";"1";"6";"1";"[1,2,4]";"1";"0";"1"
"457";"28";"142";"1";"10";"3";"1";"6";"2";"[1,2,3]";"2";"0";"1"
"458";"26";"142";"1";"6";"4";"1";"6";"1";"[1,2,3,7]";"1";"0";"1"
"459";"29";"142";"1";"7";"2";"1";"6";"1";"[1,2,3,8]";"2";"0";"1"
"460";"13";"143";"1";"2";"4";"1";"6";"1";"[1,3]";"1";"0";"1"
"461";"38";"143";"1";"2";"2";"1";"6";"1";"[1,3]";"2";"0";"1"
"462";"1";"143";"1";"8";"4";"1";"6";"1";"[1,2,3,9]";"1";"0";"1"
"463";"15";"143";"1";"3";"3";"1";"6";"1";"[1,2,4]";"1";"0";"1"
"464";"22";"143";"1";"7";"4";"1";"6";"1";"[1,2,3,8]";"1";"0";"1"
"465";"26";"143";"1";"6";"4";"1";"6";"1";"[1,2,3,7]";"1";"0";"1"
"466";"29";"143";"1";"7";"2";"1";"6";"1";"[1,2,3,8]";"2";"0";"1"
"467";"17";"144";"1";"6";"3";"1";"6";"2";"[1,2,3,7]";"1";"0";"1"
"468";"10";"144";"1";"9";"4";"1";"6";"2";"[1,2,3,10]";"1";"0";"1"
"469";"13";"144";"1";"2";"4";"1";"6";"1";"[1,3]";"1";"0";"1"
"470";"34";"144";"1";"5";"4";"1";"6";"1";"[1,2,3,6]";"1";"0";"1"
"471";"16";"144";"1";"6";"2";"1";"6";"1";"[1,2,3,7]";"1";"0";"1"
"472";"22";"144";"1";"7";"4";"1";"6";"1";"[1,2,3,8]";"1";"0";"1"
"473";"31";"144";"1";"4";"2";"1";"6";"2";"[1,2,3,5]";"2";"0";"1"
"474";"23";"5";"1";"5";"1";"1";"6";"1";"[1,2,3,6]";"2";"0";"1"
"475";"37";"145";"1";"1";"3";"1";"6";"2";"[2,3]";"1";"0";"1"
"476";"25";"145";"1";"10";"4";"1";"6";"1";"[1,2,3]";"1";"0";"1"
"477";"5";"6";"1";"3";"1";"1";"6";"2";"[1,2,4]";"2";"0";"1"
"478";"17";"145";"1";"6";"3";"1";"6";"2";"[1,2,3,7]";"1";"0";"1"
"479";"10";"145";"1";"9";"4";"1";"6";"2";"[1,2,3,10]";"1";"0";"1"
"480";"12";"6";"1";"4";"1";"1";"6";"2";"[1,2,3,5]";"2";"0";"1"
"481";"34";"145";"1";"5";"4";"1";"6";"1";"[1,2,3,6]";"1";"0";"1"
"482";"16";"145";"1";"6";"2";"1";"6";"1";"[1,2,3,7]";"1";"0";"1"
"483";"31";"145";"1";"4";"2";"1";"6";"2";"[1,2,3,5]";"2";"0";"1"
"484";"23";"6";"1";"5";"1";"1";"6";"1";"[1,2,3,6]";"2";"0";"1"
"485";"8";"145";"1";"5";"2";"1";"6";"2";"[1,2,3,6]";"2";"0";"1"
"486";"37";"146";"1";"1";"3";"1";"6";"2";"[2,3]";"1";"0";"1"
"487";"25";"146";"1";"10";"4";"1";"6";"1";"[1,2,3]";"1";"0";"1"
"488";"5";"7";"1";"3";"1";"1";"6";"2";"[1,2,4]";"2";"0";"1"
"489";"26";"146";"1";"6";"4";"1";"6";"1";"[1,2,3,7]";"1";"3";"1"
"490";"12";"7";"1";"4";"1";"1";"6";"2";"[1,2,3,5]";"2";"0";"1"
"491";"32";"146";"1";"3";"2";"1";"6";"1";"[1,2,4]";"2";"0";"1"
"492";"9";"146";"1";"4";"4";"1";"6";"1";"[1,2,3,5]";"1";"3";"1"
"493";"19";"146";"1";"10";"2";"1";"6";"2";"[1,2,3]";"2";"0";"1"
"494";"8";"146";"1";"5";"2";"1";"6";"2";"[1,2,3,6]";"2";"0";"1"
"495";"35";"147";"1";"2";"3";"1";"6";"1";"[1,3]";"1";"0";"1"
"496";"30";"8";"1";"7";"1";"1";"6";"1";"[1,2,3,8]";"1";"0";"1"
"497";"2";"147";"1";"1";"2";"1";"6";"2";"[2,3]";"2";"0";"1"
"498";"26";"147";"1";"6";"4";"1";"6";"1";"[1,2,3,7]";"1";"6";"1"
"499";"3";"147";"1";"1";"4";"1";"6";"1";"[2,3]";"2";"0";"1"
"500";"32";"147";"1";"3";"2";"1";"6";"1";"[1,2,4]";"2";"0";"1"
"501";"27";"147";"1";"8";"2";"1";"6";"2";"[1,2,3,9]";"2";"0";"1"
"502";"19";"147";"1";"10";"2";"1";"6";"2";"[1,2,3]";"2";"0";"1"
"503";"35";"148";"1";"2";"3";"1";"6";"1";"[1,3]";"1";"0";"1"
"504";"30";"9";"1";"7";"1";"1";"6";"1";"[1,2,3,8]";"1";"0";"1"
"505";"39";"9";"1";"1";"1";"1";"6";"2";"[2,3]";"2";"0";"1"
"506";"2";"148";"1";"1";"2";"1";"6";"2";"[2,3]";"2";"0";"1"
"507";"3";"148";"1";"1";"4";"1";"6";"1";"[2,3]";"2";"0";"1"
"508";"27";"148";"1";"8";"2";"1";"6";"2";"[1,2,3,9]";"2";"0";"1"
"509";"9";"148";"1";"4";"4";"1";"6";"1";"[1,2,3,5]";"1";"5";"1"
"510";"7";"9";"1";"6";"1";"1";"6";"1";"[1,2,3,7]";"1";"0";"1"
"511";"21";"148";"1";"4";"3";"1";"6";"2";"[1,2,3,5]";"1";"0";"1"
"512";"14";"10";"1";"8";"1";"1";"6";"2";"[1,2,3,9]";"2";"0";"1"
"513";"39";"10";"1";"1";"1";"1";"6";"2";"[2,3]";"2";"0";"1"
"514";"4";"149";"1";"3";"4";"1";"6";"1";"[1,2,4]";"1";"0";"1"
"515";"7";"10";"1";"6";"1";"1";"6";"1";"[1,2,3,7]";"1";"0";"1"
"516";"21";"150";"1";"4";"3";"1";"6";"2";"[1,2,3,5]";"1";"0";"1"
"517";"14";"11";"1";"8";"1";"1";"6";"2";"[1,2,3,9]";"2";"0";"1"
"518";"9";"150";"1";"4";"4";"1";"6";"1";"[1,2,3,5]";"1";"7";"1"
"519";"4";"150";"1";"3";"4";"1";"6";"1";"[1,2,4]";"1";"0";"1"
"520";"24";"150";"1";"8";"3";"1";"6";"2";"[1,2,3,9]";"1";"0";"1"
"521";"11";"151";"1";"7";"3";"1";"6";"2";"[1,2,3,8]";"2";"0";"1"
"522";"24";"151";"1";"8";"3";"1";"6";"2";"[1,2,3,9]";"1";"0";"1"
"523";"11";"152";"1";"7";"3";"1";"6";"2";"[1,2,3,8]";"2";"0";"1"
"524";"20";"152";"1";"5";"3";"1";"6";"2";"[1,2,3,6]";"2";"0";"1"
"525";"20";"153";"1";"5";"3";"1";"6";"2";"[1,2,3,6]";"2";"0";"1"
"526";"36";"155";"1";"9";"3";"1";"6";"2";"[1,2,3,10]";"2";"0";"1"
"527";"36";"156";"1";"9";"3";"1";"6";"2";"[1,2,3,10]";"2";"0";"1"
"528";"18";"17";"1";"2";"1";"1";"6";"1";"[1,3]";"1";"0";"1"
"529";"18";"18";"1";"2";"1";"1";"6";"1";"[1,3]";"1";"0";"1"
"530";"33";"19";"1";"9";"1";"1";"6";"1";"[1,2,3,10]";"1";"0";"1"
"531";"33";"20";"1";"9";"1";"1";"6";"1";"[1,2,3,10]";"1";"0";"1"
"532";"40";"23";"1";"10";"1";"1";"6";"1";"[1,2,3]";"2";"0";"1"
"533";"40";"24";"1";"10";"1";"1";"6";"1";"[1,2,3]";"2";"0";"1"
"534";"6";"164";"1";"9";"2";"1";"7";"1";"[1,2,3,10]";"2";"0";"1"
"535";"6";"165";"1";"9";"2";"1";"7";"1";"[1,2,3,10]";"2";"0";"1"
"536";"15";"166";"1";"3";"3";"1";"7";"1";"[1,2,4]";"1";"0";"1"
"537";"31";"166";"1";"4";"2";"1";"7";"2";"[1,2,3,5]";"2";"0";"1"
"538";"12";"3";"1";"4";"1";"1";"7";"2";"[1,2,3,5]";"1";"0";"1"
"539";"23";"3";"1";"5";"1";"1";"7";"1";"[1,2,3,6]";"2";"0";"1"
"540";"35";"166";"1";"2";"3";"1";"7";"1";"[1,3]";"1";"0";"1"
"541";"9";"166";"1";"4";"4";"1";"7";"1";"[1,2,3,5]";"1";"0";"1"
"542";"15";"167";"1";"3";"3";"1";"7";"1";"[1,2,4]";"1";"0";"1"
"543";"16";"167";"1";"6";"2";"1";"7";"1";"[1,2,3,7]";"1";"0";"1"
"544";"5";"4";"1";"3";"1";"1";"7";"2";"[1,2,4]";"2";"0";"1"
"545";"34";"167";"1";"5";"4";"1";"7";"1";"[1,2,3,6]";"1";"0";"1"
"546";"31";"167";"1";"4";"2";"1";"7";"2";"[1,2,3,5]";"2";"0";"1"
"547";"12";"4";"1";"4";"1";"1";"7";"2";"[1,2,3,5]";"1";"0";"1"
"548";"26";"167";"1";"6";"4";"1";"7";"1";"[1,2,3,7]";"1";"0";"1"
"549";"23";"4";"1";"5";"1";"1";"7";"1";"[1,2,3,6]";"2";"0";"1"
"550";"35";"167";"1";"2";"3";"1";"7";"1";"[1,3]";"1";"0";"1"
"551";"9";"167";"1";"4";"4";"1";"7";"1";"[1,2,3,5]";"1";"0";"1"
"552";"29";"167";"1";"7";"2";"1";"7";"1";"[1,2,3,8]";"0";"2";"1"
"553";"16";"168";"1";"6";"2";"1";"7";"1";"[1,2,3,7]";"1";"0";"1"
"554";"5";"5";"1";"3";"1";"1";"7";"2";"[1,2,4]";"2";"0";"1"
"555";"34";"168";"1";"5";"4";"1";"7";"1";"[1,2,3,6]";"1";"0";"1"
"556";"26";"168";"1";"6";"4";"1";"7";"1";"[1,2,3,7]";"1";"0";"1"
"557";"2";"168";"1";"1";"2";"1";"7";"2";"[2,3]";"2";"0";"1"
"558";"30";"5";"1";"7";"1";"1";"7";"1";"[1,2,3,8]";"1";"0";"1"
"559";"36";"168";"1";"9";"3";"1";"7";"2";"[1,2,3,10]";"2";"0";"1"
"560";"14";"5";"1";"8";"1";"1";"7";"2";"[1,2,3,9]";"0";"4";"1"
"561";"29";"169";"1";"7";"2";"1";"7";"1";"[1,2,3,8]";"0";"1";"1"
"562";"2";"169";"1";"1";"2";"1";"7";"2";"[2,3]";"2";"0";"1"
"563";"19";"169";"1";"10";"2";"1";"7";"2";"[1,2,3]";"2";"0";"1"
"564";"17";"169";"1";"6";"3";"1";"7";"2";"[1,2,3,7]";"1";"0";"1"
"565";"30";"6";"1";"7";"1";"1";"7";"1";"[1,2,3,8]";"1";"0";"1"
"566";"21";"169";"1";"4";"3";"1";"7";"2";"[1,2,3,5]";"1";"0";"1"
"567";"36";"169";"1";"9";"3";"1";"7";"2";"[1,2,3,10]";"2";"0";"1"
"568";"10";"169";"1";"9";"4";"1";"7";"2";"[1,2,3,10]";"1";"0";"1"
"569";"4";"169";"1";"3";"4";"1";"7";"1";"[1,2,4]";"1";"0";"1"
"570";"37";"170";"1";"1";"3";"1";"7";"2";"[2,3]";"0";"1";"1"
"571";"22";"170";"1";"7";"4";"1";"7";"1";"[1,2,3,8]";"1";"0";"1"
"572";"14";"7";"1";"8";"1";"1";"7";"2";"[1,2,3,9]";"0";"7";"1"
"573";"19";"170";"1";"10";"2";"1";"7";"2";"[1,2,3]";"2";"0";"1"
"574";"17";"170";"1";"6";"3";"1";"7";"2";"[1,2,3,7]";"1";"0";"1"
"575";"21";"170";"1";"4";"3";"1";"7";"2";"[1,2,3,5]";"1";"0";"1"
"576";"10";"170";"1";"9";"4";"1";"7";"2";"[1,2,3,10]";"1";"0";"1"
"577";"4";"170";"1";"3";"4";"1";"7";"1";"[1,2,4]";"1";"0";"1"
"578";"8";"170";"1";"5";"2";"1";"7";"2";"[1,2,3,6]";"2";"0";"1"
"579";"37";"171";"1";"1";"3";"1";"7";"2";"[2,3]";"0";"2";"1"
"580";"22";"171";"1";"7";"4";"1";"7";"1";"[1,2,3,8]";"1";"0";"1"
"581";"29";"171";"1";"7";"2";"1";"7";"1";"[1,2,3,8]";"0";"2";"1"
"582";"28";"171";"1";"10";"3";"1";"7";"2";"[1,2,3]";"1";"0";"1"
"583";"27";"171";"1";"8";"2";"1";"7";"2";"[1,2,3,9]";"2";"0";"1"
"584";"3";"171";"1";"1";"4";"1";"7";"1";"[2,3]";"1";"0";"1"
"585";"29";"171";"1";"7";"2";"1";"7";"1";"[1,2,3,8]";"0";"3";"1"
"586";"8";"171";"1";"5";"2";"1";"7";"2";"[1,2,3,6]";"2";"0";"1"
"587";"37";"171";"1";"1";"3";"1";"7";"2";"[2,3]";"0";"3";"1"
"588";"28";"172";"1";"10";"3";"1";"7";"2";"[1,2,3]";"1";"0";"1"
"589";"1";"172";"1";"8";"4";"1";"7";"1";"[1,2,3,9]";"1";"0";"1"
"590";"27";"172";"1";"8";"2";"1";"7";"2";"[1,2,3,9]";"2";"0";"1"
"591";"3";"172";"1";"1";"4";"1";"7";"1";"[2,3]";"1";"0";"1"
"592";"32";"172";"1";"3";"2";"1";"7";"1";"[1,2,4]";"2";"0";"1"
"593";"29";"172";"1";"7";"2";"1";"7";"1";"[1,2,3,8]";"0";"6";"1"
"594";"37";"173";"1";"1";"3";"1";"7";"2";"[2,3]";"0";"4";"1"
"595";"7";"10";"1";"6";"1";"1";"7";"1";"[1,2,3,7]";"0";"5";"1"
"596";"29";"173";"1";"7";"2";"1";"7";"1";"[1,2,3,8]";"0";"7";"1"
"597";"38";"173";"1";"2";"2";"1";"7";"1";"[1,3]";"2";"0";"1"
"598";"1";"173";"1";"8";"4";"1";"7";"1";"[1,2,3,9]";"1";"0";"1"
"599";"32";"173";"1";"3";"2";"1";"7";"1";"[1,2,4]";"2";"0";"1"
"600";"37";"173";"1";"1";"3";"1";"7";"2";"[2,3]";"0";"5";"1"
"601";"29";"174";"1";"7";"2";"1";"7";"1";"[1,2,3,8]";"2";"7";"1"
"602";"38";"174";"1";"2";"2";"1";"7";"1";"[1,3]";"2";"0";"1"
"603";"25";"174";"1";"10";"4";"1";"7";"1";"[1,2,3]";"1";"0";"1"
"604";"37";"174";"1";"1";"3";"1";"7";"2";"[2,3]";"0";"6";"1"
"605";"13";"175";"1";"2";"4";"1";"7";"1";"[1,3]";"1";"0";"1"
"606";"29";"175";"1";"7";"2";"1";"7";"1";"[1,2,3,8]";"2";"7";"1"
"607";"25";"175";"1";"10";"4";"1";"7";"1";"[1,2,3]";"1";"0";"1"
"608";"7";"12";"1";"6";"1";"1";"7";"1";"[1,2,3,7]";"0";"6";"1"
"609";"33";"12";"1";"9";"1";"1";"7";"1";"[1,2,3,10]";"1";"0";"1"
"610";"13";"176";"1";"2";"4";"1";"7";"1";"[1,3]";"1";"0";"1"
"611";"33";"13";"1";"9";"1";"1";"7";"1";"[1,2,3,10]";"1";"0";"1"
"612";"40";"13";"1";"10";"1";"1";"7";"1";"[1,2,3]";"2";"0";"1"
"613";"7";"14";"1";"6";"1";"1";"7";"1";"[1,2,3,7]";"1";"6";"1"
"614";"37";"177";"1";"1";"3";"1";"7";"2";"[2,3]";"1";"6";"1"
"615";"40";"14";"1";"10";"1";"1";"7";"1";"[1,2,3]";"2";"0";"1"
"616";"14";"15";"1";"8";"1";"1";"7";"2";"[1,2,3,9]";"2";"7";"1"
"617";"7";"15";"1";"6";"1";"1";"7";"1";"[1,2,3,7]";"1";"6";"1"
"618";"37";"178";"1";"1";"3";"1";"7";"2";"[2,3]";"1";"6";"1"
"619";"20";"178";"1";"5";"3";"1";"7";"2";"[1,2,3,6]";"2";"0";"1"
"620";"14";"16";"1";"8";"1";"1";"7";"2";"[1,2,3,9]";"2";"7";"1"
"621";"20";"179";"1";"5";"3";"1";"7";"2";"[1,2,3,6]";"2";"0";"1"
"622";"11";"179";"1";"7";"3";"1";"7";"2";"[1,2,3,8]";"2";"0";"1"
"623";"11";"180";"1";"7";"3";"1";"7";"2";"[1,2,3,8]";"2";"0";"1"
"624";"39";"17";"1";"1";"1";"1";"7";"2";"[2,3]";"2";"0";"1"
"625";"39";"18";"1";"1";"1";"1";"7";"2";"[2,3]";"2";"0";"1"
"626";"24";"184";"1";"8";"3";"1";"7";"2";"[1,2,3,9]";"2";"0";"1"
"627";"18";"22";"1";"2";"1";"1";"7";"1";"[1,3]";"1";"0";"1"
"628";"24";"185";"1";"8";"3";"1";"7";"2";"[1,2,3,9]";"2";"0";"1"
"629";"18";"23";"1";"2";"1";"1";"7";"1";"[1,3]";"1";"0";"1"
"630";"2";"187";"1";"1";"2";"1";"8";"2";"[2,3]";"2";"0";"1"
"631";"36";"187";"1";"9";"3";"1";"8";"2";"[1,2,3,10]";"2";"0";"1"
"632";"37";"188";"1";"1";"3";"1";"8";"2";"[2,3]";"1";"0";"1"
"633";"23";"2";"1";"5";"1";"1";"8";"1";"[1,2,3,6]";"2";"0";"1"
"634";"6";"188";"1";"9";"2";"1";"8";"1";"[1,2,3,10]";"2";"0";"1"
"635";"28";"188";"1";"10";"3";"1";"8";"2";"[1,2,3]";"1";"0";"1"
"636";"2";"188";"1";"1";"2";"1";"8";"2";"[2,3]";"2";"0";"1"
"637";"8";"188";"1";"5";"2";"1";"8";"2";"[1,2,3,6]";"2";"0";"1"
"638";"9";"188";"1";"4";"4";"1";"8";"1";"[1,2,3,5]";"1";"0";"1"
"639";"38";"188";"1";"2";"2";"1";"8";"1";"[1,3]";"2";"0";"1"
"640";"15";"188";"1";"3";"3";"1";"8";"1";"[1,2,4]";"1";"0";"1"
"641";"36";"188";"1";"9";"3";"1";"8";"2";"[1,2,3,10]";"2";"0";"1"
"642";"13";"189";"1";"2";"4";"1";"8";"1";"[1,3]";"1";"0";"1"
"643";"26";"189";"1";"6";"4";"1";"8";"1";"[1,2,3,7]";"1";"0";"1"
"644";"17";"189";"1";"6";"3";"1";"8";"2";"[1,2,3,7]";"1";"0";"1"
"645";"37";"189";"1";"1";"3";"1";"8";"2";"[2,3]";"1";"0";"1"
"646";"6";"189";"1";"9";"2";"1";"8";"1";"[1,2,3,10]";"2";"0";"1"
"647";"22";"189";"1";"7";"4";"1";"8";"1";"[1,2,3,8]";"1";"0";"1"
"648";"23";"3";"1";"5";"1";"1";"8";"1";"[1,2,3,6]";"2";"0";"1"
"649";"28";"189";"1";"10";"3";"1";"8";"2";"[1,2,3]";"1";"0";"1"
"650";"34";"189";"1";"5";"4";"1";"8";"1";"[1,2,3,6]";"1";"0";"1"
"651";"12";"3";"1";"4";"1";"1";"8";"2";"[1,2,3,5]";"2";"0";"1"
"652";"8";"189";"1";"5";"2";"1";"8";"2";"[1,2,3,6]";"2";"0";"1"
"653";"29";"189";"1";"7";"2";"1";"8";"1";"[1,2,3,8]";"2";"0";"1"
"654";"9";"189";"1";"4";"4";"1";"8";"1";"[1,2,3,5]";"1";"0";"1"
"655";"27";"189";"1";"8";"2";"1";"8";"2";"[1,2,3,9]";"2";"0";"1"
"656";"38";"189";"1";"2";"2";"1";"8";"1";"[1,3]";"2";"0";"1"
"657";"15";"189";"1";"3";"3";"1";"8";"1";"[1,2,4]";"1";"0";"1"
"658";"5";"3";"1";"3";"1";"1";"8";"2";"[1,2,4]";"2";"0";"1"
"659";"13";"190";"1";"2";"4";"1";"8";"1";"[1,3]";"1";"0";"1"
"660";"35";"190";"1";"2";"3";"1";"8";"1";"[1,3]";"1";"0";"1"
"661";"26";"190";"1";"6";"4";"1";"8";"1";"[1,2,3,7]";"1";"0";"1"
"662";"17";"190";"1";"6";"3";"1";"8";"2";"[1,2,3,7]";"1";"0";"1"
"663";"1";"190";"1";"8";"4";"1";"8";"1";"[1,2,3,9]";"1";"0";"1"
"664";"3";"190";"1";"1";"4";"1";"8";"1";"[2,3]";"1";"0";"1"
"665";"22";"190";"1";"7";"4";"1";"8";"1";"[1,2,3,8]";"1";"0";"1"
"666";"12";"4";"1";"4";"1";"1";"8";"2";"[1,2,3,5]";"2";"0";"1"
"667";"34";"190";"1";"5";"4";"1";"8";"1";"[1,2,3,6]";"1";"0";"1"
"668";"29";"190";"1";"7";"2";"1";"8";"1";"[1,2,3,8]";"2";"0";"1"
"669";"27";"190";"1";"8";"2";"1";"8";"2";"[1,2,3,9]";"2";"0";"1"
"670";"5";"4";"1";"3";"1";"1";"8";"2";"[1,2,4]";"2";"0";"1"
"671";"35";"191";"1";"2";"3";"1";"8";"1";"[1,3]";"1";"0";"1"
"672";"1";"191";"1";"8";"4";"1";"8";"1";"[1,2,3,9]";"1";"0";"1"
"673";"3";"191";"1";"1";"4";"1";"8";"1";"[2,3]";"1";"0";"1"
"674";"25";"191";"1";"10";"4";"1";"8";"1";"[1,2,3]";"1";"0";"1"
"675";"19";"192";"1";"10";"2";"1";"8";"2";"[1,2,3]";"2";"0";"1"
"676";"25";"192";"1";"10";"4";"1";"8";"1";"[1,2,3]";"1";"0";"1"
"677";"21";"192";"1";"4";"3";"1";"8";"2";"[1,2,3,5]";"1";"0";"1"
"678";"14";"6";"1";"8";"1";"1";"8";"2";"[1,2,3,9]";"2";"0";"1"
"679";"40";"6";"1";"10";"1";"1";"8";"1";"[1,2,3]";"2";"0";"1"
"680";"10";"193";"1";"9";"4";"1";"8";"2";"[1,2,3,10]";"1";"0";"1"
"681";"19";"193";"1";"10";"2";"1";"8";"2";"[1,2,3]";"2";"0";"1"
"682";"31";"193";"1";"4";"2";"1";"8";"2";"[1,2,3,5]";"2";"0";"1"
"683";"21";"193";"1";"4";"3";"1";"8";"2";"[1,2,3,5]";"1";"0";"1"
"684";"14";"7";"1";"8";"1";"1";"8";"2";"[1,2,3,9]";"2";"0";"1"
"685";"40";"7";"1";"10";"1";"1";"8";"1";"[1,2,3]";"2";"0";"1"
"686";"10";"194";"1";"9";"4";"1";"8";"2";"[1,2,3,10]";"1";"0";"1"
"687";"30";"8";"1";"7";"1";"1";"8";"1";"[1,2,3,8]";"1";"0";"1"
"688";"31";"194";"1";"4";"2";"1";"8";"2";"[1,2,3,5]";"2";"0";"1"
"689";"30";"9";"1";"7";"1";"1";"8";"1";"[1,2,3,8]";"1";"0";"1"
"690";"4";"195";"1";"3";"4";"1";"8";"1";"[1,2,4]";"2";"0";"1"
"691";"32";"196";"1";"3";"2";"1";"8";"1";"[1,2,4]";"2";"0";"1"
"692";"4";"196";"1";"3";"4";"1";"8";"1";"[1,2,4]";"2";"0";"1"
"693";"32";"197";"1";"3";"2";"1";"8";"1";"[1,2,4]";"2";"0";"1"
"694";"16";"199";"1";"6";"2";"1";"8";"1";"[1,2,3,7]";"1";"0";"1"
"695";"7";"14";"1";"6";"1";"1";"8";"1";"[1,2,3,7]";"1";"0";"1"
"696";"16";"200";"1";"6";"2";"1";"8";"1";"[1,2,3,7]";"1";"0";"1"
"697";"20";"200";"1";"5";"3";"1";"8";"2";"[1,2,3,6]";"2";"0";"1"
"698";"7";"15";"1";"6";"1";"1";"8";"1";"[1,2,3,7]";"1";"0";"1"
"699";"20";"201";"1";"5";"3";"1";"8";"2";"[1,2,3,6]";"2";"0";"1"
"700";"11";"203";"1";"7";"3";"1";"8";"2";"[1,2,3,8]";"2";"0";"1"
"701";"39";"17";"1";"1";"1";"1";"8";"2";"[2,3]";"2";"0";"1"
"702";"11";"204";"1";"7";"3";"1";"8";"2";"[1,2,3,8]";"2";"0";"1"
"703";"39";"18";"1";"1";"1";"1";"8";"2";"[2,3]";"2";"0";"1"
"704";"19";"205";"1";"10";"2";"1";"8";"2";"[1,2,3]";"2";"1";"1"
"705";"18";"21";"1";"2";"1";"1";"8";"1";"[1,3]";"1";"0";"1"
"706";"19";"207";"1";"10";"2";"1";"8";"2";"[1,2,3]";"2";"2";"1"
"707";"18";"22";"1";"2";"1";"1";"8";"1";"[1,3]";"1";"0";"1"
"708";"24";"208";"1";"8";"3";"1";"8";"2";"[1,2,3,9]";"2";"0";"1"
"709";"19";"209";"1";"10";"2";"1";"8";"2";"[1,2,3]";"2";"11";"1"
"710";"24";"209";"1";"8";"3";"1";"8";"2";"[1,2,3,9]";"2";"0";"1"
"711";"33";"26";"1";"9";"1";"1";"8";"1";"[1,2,3,10]";"2";"0";"1"
"712";"33";"27";"1";"9";"1";"1";"8";"1";"[1,2,3,10]";"2";"0";"1"
"713";"28";"214";"1";"10";"3";"1";"9";"2";"[1,2,3]";"1";"0";"1"
"714";"38";"215";"1";"2";"2";"1";"9";"1";"[1,3]";"2";"0";"1"
"715";"6";"215";"1";"9";"2";"1";"9";"1";"[1,2,3,10]";"2";"0";"1"
"716";"23";"2";"1";"5";"1";"1";"9";"1";"[1,2,3,6]";"2";"0";"1"
"717";"35";"215";"1";"2";"3";"1";"9";"1";"[1,3]";"1";"0";"1"
"718";"7";"2";"1";"6";"1";"1";"9";"1";"[1,2,3,7]";"0";"7";"1"
"719";"28";"215";"1";"10";"3";"1";"9";"2";"[1,2,3]";"1";"0";"1"
"720";"3";"216";"1";"1";"4";"1";"9";"1";"[2,3]";"2";"0";"1"
"721";"38";"216";"1";"2";"2";"1";"9";"1";"[1,3]";"2";"0";"1"
"722";"15";"216";"1";"3";"3";"1";"9";"1";"[1,2,4]";"1";"0";"1"
"723";"6";"216";"1";"9";"2";"1";"9";"1";"[1,2,3,10]";"2";"0";"1"
"724";"23";"3";"1";"5";"1";"1";"9";"1";"[1,2,3,6]";"2";"0";"1"
"725";"35";"216";"1";"2";"3";"1";"9";"1";"[1,3]";"1";"0";"1"
"726";"17";"216";"1";"6";"3";"1";"9";"2";"[1,2,3,7]";"1";"0";"1"
"727";"10";"216";"1";"9";"4";"1";"9";"2";"[1,2,3,10]";"2";"0";"1"
"728";"7";"3";"1";"6";"1";"1";"9";"1";"[1,2,3,7]";"0";"6";"1"
"729";"35";"217";"1";"2";"3";"1";"9";"1";"[1,3]";"1";"1";"1"
"730";"3";"217";"1";"1";"4";"1";"9";"1";"[2,3]";"2";"0";"1"
"731";"36";"217";"1";"9";"3";"1";"9";"2";"[1,2,3,10]";"2";"0";"1"
"732";"34";"217";"1";"5";"4";"1";"9";"1";"[1,2,3,6]";"1";"0";"1"
"733";"15";"217";"1";"3";"3";"1";"9";"1";"[1,2,4]";"1";"0";"1"
"734";"5";"4";"1";"3";"1";"1";"9";"2";"[1,2,4]";"2";"0";"1"
"735";"26";"217";"1";"6";"4";"1";"9";"1";"[1,2,3,7]";"1";"0";"1"
"736";"12";"4";"1";"4";"1";"1";"9";"2";"[1,2,3,5]";"2";"0";"1"
"737";"16";"217";"1";"6";"2";"1";"9";"1";"[1,2,3,7]";"2";"0";"1"
"738";"7";"4";"1";"6";"1";"1";"9";"1";"[1,2,3,7]";"0";"4";"1"
"739";"17";"217";"1";"6";"3";"1";"9";"2";"[1,2,3,7]";"1";"0";"1"
"740";"10";"217";"1";"9";"4";"1";"9";"2";"[1,2,3,10]";"2";"0";"1"
"741";"14";"4";"1";"8";"1";"1";"9";"2";"[1,2,3,9]";"1";"0";"1"
"742";"35";"218";"1";"2";"3";"1";"9";"1";"[1,3]";"1";"2";"1"
"743";"27";"218";"1";"8";"2";"1";"9";"2";"[1,2,3,9]";"2";"0";"1"
"744";"36";"218";"1";"9";"3";"1";"9";"2";"[1,2,3,10]";"2";"0";"1"
"745";"34";"218";"1";"5";"4";"1";"9";"1";"[1,2,3,6]";"1";"0";"1"
"746";"19";"218";"1";"10";"2";"1";"9";"2";"[1,2,3]";"2";"0";"1"
"747";"5";"5";"1";"3";"1";"1";"9";"2";"[1,2,4]";"2";"0";"1"
"748";"18";"5";"1";"2";"1";"1";"9";"1";"[1,3]";"2";"0";"1"
"749";"26";"218";"1";"6";"4";"1";"9";"1";"[1,2,3,7]";"1";"0";"1"
"750";"37";"218";"1";"1";"3";"1";"9";"2";"[2,3]";"1";"0";"1"
"751";"12";"5";"1";"4";"1";"1";"9";"2";"[1,2,3,5]";"2";"0";"1"
"752";"16";"218";"1";"6";"2";"1";"9";"1";"[1,2,3,7]";"2";"0";"1"
"753";"35";"218";"1";"2";"3";"1";"9";"1";"[1,3]";"1";"3";"1"
"754";"14";"5";"1";"8";"1";"1";"9";"2";"[1,2,3,9]";"1";"0";"1"
"755";"7";"6";"1";"6";"1";"1";"9";"1";"[1,2,3,7]";"0";"2";"1"
"756";"27";"219";"1";"8";"2";"1";"9";"2";"[1,2,3,9]";"2";"0";"1"
"757";"29";"219";"1";"7";"2";"1";"9";"1";"[1,2,3,8]";"2";"0";"1"
"758";"19";"219";"1";"10";"2";"1";"9";"2";"[1,2,3]";"2";"0";"1"
"759";"4";"219";"1";"3";"4";"1";"9";"1";"[1,2,4]";"2";"0";"1"
"760";"18";"6";"1";"2";"1";"1";"9";"1";"[1,3]";"2";"0";"1"
"761";"9";"219";"1";"4";"4";"1";"9";"1";"[1,2,3,5]";"1";"0";"1"
"762";"37";"219";"1";"1";"3";"1";"9";"2";"[2,3]";"1";"0";"1"
"763";"35";"219";"1";"2";"3";"1";"9";"1";"[1,3]";"1";"4";"1"
"764";"29";"220";"1";"7";"2";"1";"9";"1";"[1,2,3,8]";"2";"0";"1"
"765";"7";"7";"1";"6";"1";"1";"9";"1";"[1,2,3,7]";"0";"8";"1"
"766";"4";"220";"1";"3";"4";"1";"9";"1";"[1,2,4]";"2";"0";"1"
"767";"35";"220";"1";"2";"3";"1";"9";"1";"[1,3]";"1";"5";"1"
"768";"9";"220";"1";"4";"4";"1";"9";"1";"[1,2,3,5]";"1";"0";"1"
"769";"35";"221";"1";"2";"3";"1";"9";"1";"[1,3]";"1";"6";"1"
"770";"22";"221";"1";"7";"4";"1";"9";"1";"[1,2,3,8]";"1";"0";"1"
"771";"40";"8";"1";"10";"1";"1";"9";"1";"[1,2,3]";"2";"0";"1"
"772";"21";"222";"1";"4";"3";"1";"9";"2";"[1,2,3,5]";"1";"0";"1"
"773";"7";"9";"1";"6";"1";"1";"9";"1";"[1,2,3,7]";"0";"9";"1"
"774";"22";"222";"1";"7";"4";"1";"9";"1";"[1,2,3,8]";"1";"0";"1"
"775";"35";"222";"1";"2";"3";"1";"9";"1";"[1,3]";"1";"7";"1"
"776";"40";"9";"1";"10";"1";"1";"9";"1";"[1,2,3]";"2";"0";"1"
"777";"35";"222";"1";"2";"3";"1";"9";"1";"[1,3]";"1";"8";"1"
"778";"21";"223";"1";"4";"3";"1";"9";"2";"[1,2,3,5]";"1";"0";"1"
"779";"31";"223";"1";"4";"2";"1";"9";"2";"[1,2,3,5]";"2";"0";"1"
"780";"13";"223";"1";"2";"4";"1";"9";"1";"[1,3]";"1";"0";"1"
"781";"35";"223";"1";"2";"3";"1";"9";"1";"[1,3]";"1";"10";"1"
"782";"31";"224";"1";"4";"2";"1";"9";"2";"[1,2,3,5]";"2";"0";"1"
"783";"13";"224";"1";"2";"4";"1";"9";"1";"[1,3]";"1";"0";"1"
"784";"20";"226";"1";"5";"3";"1";"9";"2";"[1,2,3,6]";"2";"0";"1"
"785";"8";"226";"1";"5";"2";"1";"9";"2";"[1,2,3,6]";"2";"0";"1"
"786";"20";"227";"1";"5";"3";"1";"9";"2";"[1,2,3,6]";"2";"0";"1"
"787";"8";"227";"1";"5";"2";"1";"9";"2";"[1,2,3,6]";"2";"0";"1"
"788";"11";"228";"1";"7";"3";"1";"9";"2";"[1,2,3,8]";"2";"0";"1"
"789";"11";"229";"1";"7";"3";"1";"9";"2";"[1,2,3,8]";"2";"0";"1"
"790";"1";"230";"1";"8";"4";"1";"9";"1";"[1,2,3,9]";"1";"0";"1"
"791";"1";"231";"1";"8";"4";"1";"9";"1";"[1,2,3,9]";"1";"0";"1"
"792";"2";"232";"1";"1";"2";"1";"9";"2";"[2,3]";"2";"0";"1"
"793";"2";"233";"1";"1";"2";"1";"9";"2";"[2,3]";"2";"0";"1"
"794";"32";"233";"1";"3";"2";"1";"9";"1";"[1,2,4]";"2";"0";"1"
"795";"33";"21";"1";"9";"1";"1";"9";"1";"[1,2,3,10]";"2";"0";"1"
"796";"30";"21";"1";"7";"1";"1";"9";"1";"[1,2,3,8]";"1";"0";"1"
"797";"39";"21";"1";"1";"1";"1";"9";"2";"[2,3]";"2";"0";"1"
"798";"32";"234";"1";"3";"2";"1";"9";"1";"[1,2,4]";"2";"0";"1"
"799";"25";"235";"1";"10";"4";"1";"9";"1";"[1,2,3]";"1";"0";"1"
"800";"33";"22";"1";"9";"1";"1";"9";"1";"[1,2,3,10]";"2";"0";"1"
"801";"30";"22";"1";"7";"1";"1";"9";"1";"[1,2,3,8]";"1";"0";"1"
"802";"39";"22";"1";"1";"1";"1";"9";"2";"[2,3]";"2";"0";"1"
"803";"25";"236";"1";"10";"4";"1";"9";"1";"[1,2,3]";"1";"0";"1"
"804";"7";"25";"1";"6";"1";"1";"9";"1";"[1,2,3,7]";"1";"9";"1"
"805";"24";"238";"1";"8";"3";"1";"9";"2";"[1,2,3,9]";"1";"0";"1"
"806";"7";"26";"1";"6";"1";"1";"9";"1";"[1,2,3,7]";"1";"9";"1"
"807";"24";"239";"1";"8";"3";"1";"9";"2";"[1,2,3,9]";"1";"0";"1"
"808";"29";"241";"1";"7";"2";"1";"10";"1";"[1,2,3,8]";"2";"0";"1"
"809";"15";"241";"1";"3";"3";"1";"10";"1";"[1,2,4]";"1";"0";"1"
"810";"5";"2";"1";"3";"1";"1";"10";"2";"[1,2,4]";"2";"0";"1"
"811";"19";"241";"1";"10";"2";"1";"10";"2";"[1,2,3]";"2";"0";"1"
"812";"6";"241";"1";"9";"2";"1";"10";"1";"[1,2,3,10]";"2";"0";"1"
"813";"10";"242";"1";"9";"4";"1";"10";"2";"[1,2,3,10]";"2";"0";"1"
"814";"31";"242";"1";"4";"2";"1";"10";"2";"[1,2,3,5]";"2";"0";"1"
"815";"29";"242";"1";"7";"2";"1";"10";"1";"[1,2,3,8]";"2";"0";"1"
"816";"35";"242";"1";"2";"3";"1";"10";"1";"[1,3]";"1";"0";"1"
"817";"17";"242";"1";"6";"3";"1";"10";"2";"[1,2,3,7]";"1";"0";"1"
"818";"15";"242";"1";"3";"3";"1";"10";"1";"[1,2,4]";"1";"0";"1"
"819";"38";"242";"1";"2";"2";"1";"10";"1";"[1,3]";"2";"0";"1"
"820";"5";"3";"1";"3";"1";"1";"10";"2";"[1,2,4]";"2";"0";"1"
"821";"19";"242";"1";"10";"2";"1";"10";"2";"[1,2,3]";"2";"0";"1"
"822";"6";"242";"1";"9";"2";"1";"10";"1";"[1,2,3,10]";"2";"0";"1"
"823";"10";"243";"1";"9";"4";"1";"10";"2";"[1,2,3,10]";"2";"0";"1"
"824";"31";"243";"1";"4";"2";"1";"10";"2";"[1,2,3,5]";"2";"0";"1"
"825";"7";"4";"1";"6";"1";"1";"10";"1";"[1,2,3,7]";"2";"0";"1"
"826";"35";"243";"1";"2";"3";"1";"10";"1";"[1,3]";"1";"0";"1"
"827";"17";"243";"1";"6";"3";"1";"10";"2";"[1,2,3,7]";"1";"0";"1"
"828";"34";"243";"1";"5";"4";"1";"10";"1";"[1,2,3,6]";"1";"0";"1"
"829";"3";"243";"1";"1";"4";"1";"10";"1";"[2,3]";"1";"0";"1"
"830";"38";"243";"1";"2";"2";"1";"10";"1";"[1,3]";"2";"0";"1"
"831";"27";"243";"1";"8";"2";"1";"10";"2";"[1,2,3,9]";"2";"0";"1"
"832";"23";"4";"1";"5";"1";"1";"10";"1";"[1,2,3,6]";"2";"0";"1"
"833";"7";"5";"1";"6";"1";"1";"10";"1";"[1,2,3,7]";"2";"0";"1"
"834";"37";"244";"1";"1";"3";"1";"10";"2";"[2,3]";"1";"0";"1"
"835";"32";"244";"1";"3";"2";"1";"10";"1";"[1,2,4]";"2";"0";"1"
"836";"33";"5";"1";"9";"1";"1";"10";"1";"[1,2,3,10]";"2";"0";"1"
"837";"26";"244";"1";"6";"4";"1";"10";"1";"[1,2,3,7]";"1";"0";"1"
"838";"34";"244";"1";"5";"4";"1";"10";"1";"[1,2,3,6]";"1";"0";"1"
"839";"3";"244";"1";"1";"4";"1";"10";"1";"[2,3]";"1";"0";"1"
"840";"27";"244";"1";"8";"2";"1";"10";"2";"[1,2,3,9]";"2";"0";"1"
"841";"23";"5";"1";"5";"1";"1";"10";"1";"[1,2,3,6]";"2";"0";"1"
"842";"8";"245";"1";"5";"2";"1";"10";"2";"[1,2,3,6]";"2";"0";"1"
"843";"40";"6";"1";"10";"1";"1";"10";"1";"[1,2,3]";"2";"0";"1"
"844";"30";"6";"1";"7";"1";"1";"10";"1";"[1,2,3,8]";"1";"0";"1"
"845";"21";"245";"1";"4";"3";"1";"10";"2";"[1,2,3,5]";"1";"0";"1"
"846";"32";"245";"1";"3";"2";"1";"10";"1";"[1,2,4]";"2";"0";"1"
"847";"37";"245";"1";"1";"3";"1";"10";"2";"[2,3]";"1";"0";"1"
"848";"13";"245";"1";"2";"4";"1";"10";"1";"[1,3]";"2";"0";"1"
"849";"33";"6";"1";"9";"1";"1";"10";"1";"[1,2,3,10]";"2";"0";"1"
"850";"26";"245";"1";"6";"4";"1";"10";"1";"[1,2,3,7]";"1";"0";"1"
"851";"14";"6";"1";"8";"1";"1";"10";"2";"[1,2,3,9]";"1";"0";"1"
"852";"9";"245";"1";"4";"4";"1";"10";"1";"[1,2,3,5]";"1";"0";"1"
"853";"8";"246";"1";"5";"2";"1";"10";"2";"[1,2,3,6]";"2";"0";"1"
"854";"40";"7";"1";"10";"1";"1";"10";"1";"[1,2,3]";"2";"0";"1"
"855";"30";"7";"1";"7";"1";"1";"10";"1";"[1,2,3,8]";"1";"0";"1"
"856";"21";"246";"1";"4";"3";"1";"10";"2";"[1,2,3,5]";"1";"0";"1"
"857";"13";"246";"1";"2";"4";"1";"10";"1";"[1,3]";"2";"0";"1"
"858";"1";"246";"1";"8";"4";"1";"10";"1";"[1,2,3,9]";"1";"0";"1"
"859";"14";"7";"1";"8";"1";"1";"10";"2";"[1,2,3,9]";"1";"0";"1"
"860";"9";"246";"1";"4";"4";"1";"10";"1";"[1,2,3,5]";"1";"0";"1"
"861";"16";"247";"1";"6";"2";"1";"10";"1";"[1,2,3,7]";"2";"0";"1"
"862";"28";"247";"1";"10";"3";"1";"10";"2";"[1,2,3]";"1";"0";"1"
"863";"1";"247";"1";"8";"4";"1";"10";"1";"[1,2,3,9]";"1";"0";"1"
"864";"12";"8";"1";"4";"1";"1";"10";"2";"[1,2,3,5]";"2";"0";"1"
"865";"16";"248";"1";"6";"2";"1";"10";"1";"[1,2,3,7]";"2";"0";"1"
"866";"28";"248";"1";"10";"3";"1";"10";"2";"[1,2,3]";"1";"0";"1"
"867";"36";"248";"1";"9";"3";"1";"10";"2";"[1,2,3,10]";"2";"0";"1"
"868";"40";"9";"1";"10";"1";"1";"10";"1";"[1,2,3]";"2";"1";"1"
"869";"12";"9";"1";"4";"1";"1";"10";"2";"[1,2,3,5]";"2";"0";"1"
"870";"4";"248";"1";"3";"4";"1";"10";"1";"[1,2,4]";"1";"0";"1"
"871";"22";"249";"1";"7";"4";"1";"10";"1";"[1,2,3,8]";"1";"0";"1"
"872";"36";"249";"1";"9";"3";"1";"10";"2";"[1,2,3,10]";"2";"0";"1"
"873";"4";"249";"1";"3";"4";"1";"10";"1";"[1,2,4]";"1";"0";"1"
"874";"22";"250";"1";"7";"4";"1";"10";"1";"[1,2,3,8]";"1";"0";"1"
"875";"40";"11";"1";"10";"1";"1";"10";"1";"[1,2,3]";"2";"2";"1"
"876";"20";"250";"1";"5";"3";"1";"10";"2";"[1,2,3,6]";"2";"0";"1"
"877";"20";"251";"1";"5";"3";"1";"10";"2";"[1,2,3,6]";"2";"0";"1"
"878";"40";"13";"1";"10";"1";"1";"10";"1";"[1,2,3]";"2";"3";"1"
"879";"25";"253";"1";"10";"4";"1";"10";"1";"[1,2,3]";"1";"0";"1"
"880";"18";"14";"1";"2";"1";"1";"10";"1";"[1,3]";"2";"0";"1"
"881";"11";"253";"1";"7";"3";"1";"10";"2";"[1,2,3,8]";"2";"0";"1"
"882";"25";"254";"1";"10";"4";"1";"10";"1";"[1,2,3]";"1";"0";"1"
"883";"40";"15";"1";"10";"1";"1";"10";"1";"[1,2,3]";"2";"4";"1"
"884";"18";"15";"1";"2";"1";"1";"10";"1";"[1,3]";"2";"0";"1"
"885";"11";"254";"1";"7";"3";"1";"10";"2";"[1,2,3,8]";"2";"0";"1"
"886";"40";"17";"1";"10";"1";"1";"10";"1";"[1,2,3]";"2";"5";"1"
"887";"39";"18";"1";"1";"1";"1";"10";"2";"[2,3]";"2";"0";"1"
"888";"40";"18";"1";"10";"1";"1";"10";"1";"[1,2,3]";"2";"6";"1"
"889";"39";"19";"1";"1";"1";"1";"10";"2";"[2,3]";"2";"0";"1"
"890";"40";"20";"1";"10";"1";"1";"10";"1";"[1,2,3]";"2";"7";"1"
"891";"2";"261";"1";"1";"2";"1";"10";"2";"[2,3]";"2";"0";"1"
"892";"2";"262";"1";"1";"2";"1";"10";"2";"[2,3]";"2";"0";"1"
"893";"40";"24";"1";"10";"1";"1";"10";"1";"[1,2,3]";"2";"8";"1"
"894";"24";"263";"1";"8";"3";"1";"10";"2";"[1,2,3,9]";"1";"0";"1"
"895";"24";"264";"1";"8";"3";"1";"10";"2";"[1,2,3,9]";"1";"0";"1"
"896";"19";"266";"1";"10";"2";"1";"11";"2";"[1,2,3]";"2";"0";"1"
"897";"6";"266";"1";"9";"2";"1";"11";"1";"[1,2,3,10]";"2";"0";"1"
"898";"36";"266";"1";"9";"3";"1";"11";"2";"[1,2,3,10]";"2";"0";"1"
"899";"23";"2";"1";"5";"1";"1";"11";"1";"[1,2,3,6]";"2";"0";"1"
"900";"29";"266";"1";"7";"2";"1";"11";"1";"[1,2,3,8]";"2";"0";"1"
"901";"17";"266";"1";"6";"3";"1";"11";"2";"[1,2,3,7]";"1";"0";"1"
"902";"15";"267";"1";"3";"3";"1";"11";"1";"[1,2,4]";"1";"0";"1"
"903";"22";"267";"1";"7";"4";"1";"11";"1";"[1,2,3,8]";"1";"0";"1"
"904";"19";"267";"1";"10";"2";"1";"11";"2";"[1,2,3]";"2";"0";"1"
"905";"37";"267";"1";"1";"3";"1";"11";"2";"[2,3]";"1";"0";"1"
"906";"6";"267";"1";"9";"2";"1";"11";"1";"[1,2,3,10]";"2";"0";"1"
"907";"5";"3";"1";"3";"1";"1";"11";"2";"[1,2,4]";"2";"0";"1"
"908";"21";"267";"1";"4";"3";"1";"11";"2";"[1,2,3,5]";"1";"0";"1"
"909";"36";"267";"1";"9";"3";"1";"11";"2";"[1,2,3,10]";"2";"0";"1"
"910";"35";"267";"1";"2";"3";"1";"11";"1";"[1,3]";"1";"0";"1"
"911";"38";"267";"1";"2";"2";"1";"11";"1";"[1,3]";"2";"0";"1"
"912";"28";"267";"1";"10";"3";"1";"11";"2";"[1,2,3]";"1";"0";"1"
"913";"26";"267";"1";"6";"4";"1";"11";"1";"[1,2,3,7]";"1";"0";"1"
"914";"23";"3";"1";"5";"1";"1";"11";"1";"[1,2,3,6]";"2";"0";"1"
"915";"34";"267";"1";"5";"4";"1";"11";"1";"[1,2,3,6]";"1";"0";"1"
"916";"29";"267";"1";"7";"2";"1";"11";"1";"[1,2,3,8]";"2";"0";"1"
"917";"17";"267";"1";"6";"3";"1";"11";"2";"[1,2,3,7]";"1";"0";"1"
"918";"2";"268";"1";"1";"2";"1";"11";"2";"[2,3]";"2";"0";"1"
"919";"3";"268";"1";"1";"4";"1";"11";"1";"[2,3]";"1";"0";"1"
"920";"15";"268";"1";"3";"3";"1";"11";"1";"[1,2,4]";"1";"0";"1"
"921";"22";"268";"1";"7";"4";"1";"11";"1";"[1,2,3,8]";"1";"0";"1"
"922";"37";"268";"1";"1";"3";"1";"11";"2";"[2,3]";"1";"0";"1"
"923";"8";"268";"1";"5";"2";"1";"11";"2";"[1,2,3,6]";"2";"0";"1"
"924";"40";"4";"1";"10";"1";"1";"11";"1";"[1,2,3]";"0";"11";"1"
"925";"33";"4";"1";"9";"1";"1";"11";"1";"[1,2,3,10]";"2";"0";"1"
"926";"5";"4";"1";"3";"1";"1";"11";"2";"[1,2,4]";"2";"0";"1"
"927";"21";"268";"1";"4";"3";"1";"11";"2";"[1,2,3,5]";"1";"0";"1"
"928";"35";"268";"1";"2";"3";"1";"11";"1";"[1,3]";"1";"0";"1"
"929";"38";"268";"1";"2";"2";"1";"11";"1";"[1,3]";"2";"0";"1"
"930";"26";"268";"1";"6";"4";"1";"11";"1";"[1,2,3,7]";"1";"0";"1"
"931";"28";"268";"1";"10";"3";"1";"11";"2";"[1,2,3]";"1";"0";"1"
"932";"10";"268";"1";"9";"4";"1";"11";"2";"[1,2,3,10]";"2";"0";"1"
"933";"14";"4";"1";"8";"1";"1";"11";"2";"[1,2,3,9]";"1";"0";"1"
"934";"9";"268";"1";"4";"4";"1";"11";"1";"[1,2,3,5]";"1";"0";"1"
"935";"34";"268";"1";"5";"4";"1";"11";"1";"[1,2,3,6]";"1";"0";"1"
"936";"31";"268";"1";"4";"2";"1";"11";"2";"[1,2,3,5]";"2";"0";"1"
"937";"2";"269";"1";"1";"2";"1";"11";"2";"[2,3]";"2";"0";"1"
"938";"3";"269";"1";"1";"4";"1";"11";"1";"[2,3]";"1";"0";"1"
"939";"8";"269";"1";"5";"2";"1";"11";"2";"[1,2,3,6]";"2";"0";"1"
"940";"33";"5";"1";"9";"1";"1";"11";"1";"[1,2,3,10]";"2";"0";"1"
"941";"20";"269";"1";"5";"3";"1";"11";"2";"[1,2,3,6]";"1";"0";"1"
"942";"39";"5";"1";"1";"1";"1";"11";"2";"[2,3]";"2";"0";"1"
"943";"1";"269";"1";"8";"4";"1";"11";"1";"[1,2,3,9]";"1";"0";"1"
"944";"16";"269";"1";"6";"2";"1";"11";"1";"[1,2,3,7]";"2";"0";"1"
"945";"10";"269";"1";"9";"4";"1";"11";"2";"[1,2,3,10]";"2";"0";"1"
"946";"14";"5";"1";"8";"1";"1";"11";"2";"[1,2,3,9]";"1";"0";"1"
"947";"9";"269";"1";"4";"4";"1";"11";"1";"[1,2,3,5]";"1";"0";"1"
"948";"31";"269";"1";"4";"2";"1";"11";"2";"[1,2,3,5]";"2";"0";"1"
"949";"20";"270";"1";"5";"3";"1";"11";"2";"[1,2,3,6]";"1";"0";"1"
"950";"30";"6";"1";"7";"1";"1";"11";"1";"[1,2,3,8]";"1";"0";"1"
"951";"39";"6";"1";"1";"1";"1";"11";"2";"[2,3]";"2";"0";"1"
"952";"1";"270";"1";"8";"4";"1";"11";"1";"[1,2,3,9]";"1";"0";"1"
"953";"16";"270";"1";"6";"2";"1";"11";"1";"[1,2,3,7]";"2";"0";"1"
"954";"40";"6";"1";"10";"1";"1";"11";"1";"[1,2,3]";"2";"11";"1"
"955";"12";"6";"1";"4";"1";"1";"11";"2";"[1,2,3,5]";"2";"0";"1"
"956";"13";"271";"1";"2";"4";"1";"11";"1";"[1,3]";"1";"0";"1"
"957";"30";"7";"1";"7";"1";"1";"11";"1";"[1,2,3,8]";"1";"0";"1"
"958";"40";"7";"1";"10";"1";"1";"11";"1";"[1,2,3]";"2";"11";"1"
"959";"12";"7";"1";"4";"1";"1";"11";"2";"[1,2,3,5]";"2";"0";"1"
"960";"4";"272";"1";"3";"4";"1";"11";"1";"[1,2,4]";"1";"0";"1"
"961";"13";"272";"1";"2";"4";"1";"11";"1";"[1,3]";"1";"0";"1"
"962";"4";"273";"1";"3";"4";"1";"11";"1";"[1,2,4]";"1";"0";"1"
"963";"25";"275";"1";"10";"4";"1";"11";"1";"[1,2,3]";"1";"0";"1"
"964";"27";"275";"1";"8";"2";"1";"11";"2";"[1,2,3,9]";"2";"0";"1"
"965";"25";"276";"1";"10";"4";"1";"11";"1";"[1,2,3]";"1";"0";"1"
"966";"27";"276";"1";"8";"2";"1";"11";"2";"[1,2,3,9]";"2";"0";"1"
"967";"23";"12";"1";"5";"1";"1";"11";"1";"[1,2,3,6]";"2";"1";"1"
"968";"11";"280";"1";"7";"3";"1";"11";"2";"[1,2,3,8]";"1";"0";"1"
"969";"11";"281";"1";"7";"3";"1";"11";"2";"[1,2,3,8]";"1";"0";"1"
"970";"23";"20";"1";"5";"1";"1";"11";"1";"[1,2,3,6]";"2";"9";"1"
"971";"23";"21";"1";"5";"1";"1";"11";"1";"[1,2,3,6]";"2";"10";"1"
"972";"18";"24";"1";"2";"1";"1";"11";"1";"[1,3]";"2";"0";"1"
"973";"18";"25";"1";"2";"1";"1";"11";"1";"[1,3]";"2";"0";"1"
"974";"24";"292";"1";"8";"3";"1";"11";"2";"[1,2,3,9]";"1";"0";"1"
"975";"7";"29";"1";"6";"1";"1";"11";"1";"[1,2,3,7]";"1";"0";"1"
"976";"32";"293";"1";"3";"2";"1";"11";"1";"[1,2,4]";"2";"0";"1"
"977";"24";"293";"1";"8";"3";"1";"11";"2";"[1,2,3,9]";"1";"0";"1"
"978";"7";"30";"1";"6";"1";"1";"11";"1";"[1,2,3,7]";"1";"0";"1"
"979";"32";"294";"1";"3";"2";"1";"11";"1";"[1,2,4]";"2";"0";"1"
"980";"37";"295";"1";"1";"3";"1";"12";"2";"[2,3]";"2";"0";"1"
"981";"19";"296";"1";"10";"2";"1";"12";"2";"[1,2,3]";"2";"0";"1"
"982";"35";"296";"1";"2";"3";"1";"12";"1";"[1,3]";"1";"0";"1"
"983";"30";"2";"1";"7";"1";"1";"12";"1";"[1,2,3,8]";"1";"0";"1"
"984";"5";"2";"1";"3";"1";"1";"12";"2";"[1,2,4]";"2";"0";"1"
"985";"37";"296";"1";"1";"3";"1";"12";"2";"[2,3]";"2";"0";"1"
"986";"8";"296";"1";"5";"2";"1";"12";"2";"[1,2,3,6]";"2";"0";"1"
"987";"6";"297";"1";"9";"2";"1";"12";"1";"[1,2,3,10]";"2";"0";"1"
"988";"15";"297";"1";"3";"3";"1";"12";"1";"[1,2,4]";"1";"0";"1"
"989";"28";"297";"1";"10";"3";"1";"12";"2";"[1,2,3]";"1";"0";"1"
"990";"14";"3";"1";"8";"1";"1";"12";"2";"[1,2,3,9]";"1";"0";"1"
"991";"9";"297";"1";"4";"4";"1";"12";"1";"[1,2,3,5]";"1";"0";"1"
"992";"17";"297";"1";"6";"3";"1";"12";"2";"[1,2,3,7]";"1";"0";"1"
"993";"19";"297";"1";"10";"2";"1";"12";"2";"[1,2,3]";"2";"0";"1"
"994";"35";"297";"1";"2";"3";"1";"12";"1";"[1,3]";"1";"0";"1"
"995";"30";"3";"1";"7";"1";"1";"12";"1";"[1,2,3,8]";"1";"0";"1"
"996";"10";"297";"1";"9";"4";"1";"12";"2";"[1,2,3,10]";"1";"0";"1"
"997";"5";"3";"1";"3";"1";"1";"12";"2";"[1,2,4]";"2";"0";"1"
"998";"33";"3";"1";"9";"1";"1";"12";"1";"[1,2,3,10]";"2";"0";"1"
"999";"31";"297";"1";"4";"2";"1";"12";"2";"[1,2,3,5]";"2";"0";"1"
"1000";"8";"298";"1";"5";"2";"1";"12";"2";"[1,2,3,6]";"2";"0";"1"
"1001";"22";"298";"1";"7";"4";"1";"12";"1";"[1,2,3,8]";"1";"0";"1"
"1002";"13";"298";"1";"2";"4";"1";"12";"1";"[1,3]";"1";"0";"1"
"1003";"6";"298";"1";"9";"2";"1";"12";"1";"[1,2,3,10]";"2";"0";"1"
"1004";"15";"298";"1";"3";"3";"1";"12";"1";"[1,2,4]";"1";"0";"1"
"1005";"29";"298";"1";"7";"2";"1";"12";"1";"[1,2,3,8]";"2";"0";"1"
"1006";"28";"298";"1";"10";"3";"1";"12";"2";"[1,2,3]";"1";"0";"1"
"1007";"14";"4";"1";"8";"1";"1";"12";"2";"[1,2,3,9]";"1";"0";"1"
"1008";"9";"298";"1";"4";"4";"1";"12";"1";"[1,2,3,5]";"1";"0";"1"
"1009";"17";"298";"1";"6";"3";"1";"12";"2";"[1,2,3,7]";"1";"0";"1"
"1010";"16";"298";"1";"6";"2";"1";"12";"1";"[1,2,3,7]";"2";"0";"1"
"1011";"11";"298";"1";"7";"3";"1";"12";"2";"[1,2,3,8]";"1";"0";"1"
"1012";"4";"298";"1";"3";"4";"1";"12";"1";"[1,2,4]";"1";"0";"1"
"1013";"27";"298";"1";"8";"2";"1";"12";"2";"[1,2,3,9]";"2";"0";"1"
"1014";"10";"298";"1";"9";"4";"1";"12";"2";"[1,2,3,10]";"1";"0";"1"
"1015";"33";"4";"1";"9";"1";"1";"12";"1";"[1,2,3,10]";"2";"0";"1"
"1016";"26";"298";"1";"6";"4";"1";"12";"1";"[1,2,3,7]";"1";"0";"1"
"1017";"40";"4";"1";"10";"1";"1";"12";"1";"[1,2,3]";"2";"0";"1"
"1018";"34";"298";"1";"5";"4";"1";"12";"1";"[1,2,3,6]";"1";"0";"1"
"1019";"25";"298";"1";"10";"4";"1";"12";"1";"[1,2,3]";"1";"0";"1"
"1020";"31";"298";"1";"4";"2";"1";"12";"2";"[1,2,3,5]";"2";"0";"1"
"1021";"22";"299";"1";"7";"4";"1";"12";"1";"[1,2,3,8]";"1";"0";"1"
"1022";"13";"299";"1";"2";"4";"1";"12";"1";"[1,3]";"1";"0";"1"
"1023";"29";"299";"1";"7";"2";"1";"12";"1";"[1,2,3,8]";"2";"0";"1"
"1024";"16";"299";"1";"6";"2";"1";"12";"1";"[1,2,3,7]";"2";"0";"1"
"1025";"11";"299";"1";"7";"3";"1";"12";"2";"[1,2,3,8]";"1";"0";"1"
"1026";"36";"299";"1";"9";"3";"1";"12";"2";"[1,2,3,10]";"2";"0";"1"
"1027";"4";"299";"1";"3";"4";"1";"12";"1";"[1,2,4]";"1";"0";"1"
"1028";"27";"299";"1";"8";"2";"1";"12";"2";"[1,2,3,9]";"2";"0";"1"
"1029";"7";"5";"1";"6";"1";"1";"12";"1";"[1,2,3,7]";"1";"0";"1"
"1030";"26";"299";"1";"6";"4";"1";"12";"1";"[1,2,3,7]";"1";"0";"1"
"1031";"34";"299";"1";"5";"4";"1";"12";"1";"[1,2,3,6]";"1";"0";"1"
"1032";"40";"5";"1";"10";"1";"1";"12";"1";"[1,2,3]";"2";"0";"1"
"1033";"25";"299";"1";"10";"4";"1";"12";"1";"[1,2,3]";"1";"0";"1"
"1034";"1";"299";"1";"8";"4";"1";"12";"1";"[1,2,3,9]";"1";"0";"1"
"1035";"36";"300";"1";"9";"3";"1";"12";"2";"[1,2,3,10]";"2";"0";"1"
"1036";"23";"6";"1";"5";"1";"1";"12";"1";"[1,2,3,6]";"2";"0";"1"
"1037";"7";"6";"1";"6";"1";"1";"12";"1";"[1,2,3,7]";"1";"0";"1"
"1038";"3";"300";"1";"1";"4";"1";"12";"1";"[2,3]";"2";"0";"1"
"1039";"1";"300";"1";"8";"4";"1";"12";"1";"[1,2,3,9]";"1";"0";"1"
"1040";"38";"301";"1";"2";"2";"1";"12";"1";"[1,3]";"2";"0";"1"
"1041";"29";"301";"1";"7";"2";"1";"12";"1";"[1,2,3,8]";"2";"6";"1"
"1042";"23";"7";"1";"5";"1";"1";"12";"1";"[1,2,3,6]";"2";"0";"1"
"1043";"21";"301";"1";"4";"3";"1";"12";"2";"[1,2,3,5]";"1";"0";"1"
"1044";"3";"301";"1";"1";"4";"1";"12";"1";"[2,3]";"2";"0";"1"
"1045";"38";"302";"1";"2";"2";"1";"12";"1";"[1,3]";"2";"0";"1"
"1046";"21";"302";"1";"4";"3";"1";"12";"2";"[1,2,3,5]";"1";"0";"1"
"1047";"20";"303";"1";"5";"3";"1";"12";"2";"[1,2,3,6]";"1";"0";"1"
"1048";"20";"304";"1";"5";"3";"1";"12";"2";"[1,2,3,6]";"1";"0";"1"
"1049";"2";"304";"1";"1";"2";"1";"12";"2";"[2,3]";"2";"0";"1"
"1050";"2";"305";"1";"1";"2";"1";"12";"2";"[2,3]";"2";"0";"1"
"1051";"32";"305";"1";"3";"2";"1";"12";"1";"[1,2,4]";"2";"0";"1"
"1052";"18";"11";"1";"2";"1";"1";"12";"1";"[1,3]";"2";"0";"1"
"1053";"22";"306";"1";"7";"4";"1";"12";"1";"[1,2,3,8]";"1";"10";"1"
"1054";"32";"306";"1";"3";"2";"1";"12";"1";"[1,2,4]";"2";"0";"1"
"1055";"18";"12";"1";"2";"1";"1";"12";"1";"[1,3]";"2";"0";"1"
"1056";"22";"307";"1";"7";"4";"1";"12";"1";"[1,2,3,8]";"1";"9";"1"
"1057";"12";"14";"1";"4";"1";"1";"12";"2";"[1,2,3,5]";"2";"0";"1"
"1058";"39";"14";"1";"1";"1";"1";"12";"2";"[2,3]";"2";"0";"1"
"1059";"12";"15";"1";"4";"1";"1";"12";"2";"[1,2,3,5]";"2";"0";"1"
"1060";"39";"15";"1";"1";"1";"1";"12";"2";"[2,3]";"2";"0";"1"
"1061";"22";"311";"1";"7";"4";"1";"12";"1";"[1,2,3,8]";"1";"10";"1"
"1062";"22";"312";"1";"7";"4";"1";"12";"1";"[1,2,3,8]";"1";"11";"1"
"1063";"24";"318";"1";"8";"3";"1";"12";"2";"[1,2,3,9]";"1";"0";"1"
"1064";"24";"319";"1";"8";"3";"1";"12";"2";"[1,2,3,9]";"1";"0";"1"
"1065";"26";"0";"1";"5";"4";"2";"12";"1";"[1,2,3,6]";"1";"0";"1"
"1066";"30";"0";"1";"2";"1";"2";"12";"2";"[1,3]";"2";"0";"1"
"1067";"9";"0";"1";"7";"4";"2";"12";"2";"[1,2,3,8]";"1";"11";"1"
"1068";"6";"0";"1";"10";"2";"2";"12";"1";"[1,2,3]";"2";"0";"1"
"1069";"25";"0";"1";"3";"4";"2";"12";"2";"[1,2,4]";"1";"0";"1"
"1070";"2";"0";"1";"1";"2";"2";"12";"1";"[2,3]";"2";"0";"1"
"1071";"23";"0";"1";"6";"1";"2";"12";"2";"[1,2,3,7]";"1";"0";"1"
"1072";"10";"0";"1";"8";"4";"2";"12";"2";"[1,2,3,9]";"1";"0";"1"
"1073";"14";"0";"1";"9";"1";"2";"12";"2";"[1,2,3,10]";"2";"0";"1"
"1074";"34";"0";"1";"9";"4";"2";"12";"1";"[1,2,3,10]";"1";"0";"1"
"1075";"3";"0";"1";"1";"4";"2";"12";"2";"[2,3]";"2";"0";"1"
"1076";"39";"0";"1";"3";"1";"2";"12";"2";"[1,2,4]";"2";"0";"1"
"1077";"37";"0";"1";"6";"3";"2";"12";"2";"[1,2,3,7]";"1";"0";"1"
"1078";"1";"0";"1";"4";"4";"2";"12";"2";"[1,2,3,5]";"1";"0";"1"
"1079";"4";"0";"1";"10";"4";"2";"12";"1";"[1,2,3]";"1";"0";"1"
"1080";"12";"0";"1";"10";"1";"2";"12";"2";"[1,2,3]";"2";"0";"1"
"1081";"8";"0";"1";"4";"2";"2";"12";"1";"[1,2,3,5]";"2";"0";"1"
"1082";"19";"0";"1";"9";"2";"2";"12";"1";"[1,2,3,10]";"2";"0";"1"
"1083";"27";"0";"1";"6";"2";"2";"12";"1";"[1,2,3,7]";"2";"0";"1"
"1084";"15";"0";"1";"5";"3";"2";"12";"1";"[1,2,3,6]";"1";"0";"1"
"1085";"32";"0";"1";"7";"2";"2";"12";"1";"[1,2,3,8]";"2";"6";"1"
"1086";"29";"0";"1";"5";"2";"2";"12";"1";"[1,2,3,6]";"2";"0";"1"
"1087";"7";"0";"1";"8";"1";"2";"12";"2";"[1,2,3,9]";"1";"0";"1"
"1088";"20";"0";"1";"9";"3";"2";"12";"1";"[1,2,3,10]";"2";"0";"1"
"1089";"16";"0";"1";"8";"2";"2";"12";"1";"[1,2,3,9]";"2";"0";"1"
"1090";"38";"0";"1";"3";"2";"2";"12";"2";"[1,2,4]";"2";"0";"1"
"1091";"5";"0";"1";"5";"1";"2";"12";"2";"[1,2,3,6]";"2";"0";"1"
"1092";"28";"0";"1";"3";"3";"2";"12";"1";"[1,2,4]";"1";"0";"1"
"1093";"22";"0";"1";"2";"4";"2";"12";"2";"[1,3]";"1";"0";"1"
"1094";"24";"0";"1";"4";"3";"2";"12";"1";"[1,2,3,5]";"1";"0";"1"
"1095";"18";"0";"1";"4";"1";"2";"12";"2";"[1,2,3,5]";"2";"0";"1"
"1096";"13";"0";"1";"6";"4";"2";"12";"1";"[1,2,3,7]";"1";"0";"1"
"1097";"40";"0";"1";"7";"1";"2";"12";"1";"[1,2,3,8]";"1";"0";"1"
"1098";"21";"0";"1";"10";"3";"2";"12";"1";"[1,2,3]";"1";"0";"1"
"1099";"11";"0";"1";"2";"3";"2";"12";"1";"[1,3]";"1";"0";"1"
"1100";"35";"0";"1";"8";"3";"2";"12";"1";"[1,2,3,9]";"1";"0";"1"
"1101";"33";"0";"1";"1";"1";"2";"12";"2";"[2,3]";"2";"0";"1"
"1102";"17";"0";"1";"1";"3";"2";"12";"1";"[2,3]";"2";"0";"1"
"1103";"31";"0";"1";"2";"2";"2";"12";"1";"[1,3]";"2";"0";"1"
"1104";"36";"0";"1";"7";"3";"2";"12";"1";"[1,2,3,8]";"1";"0";"1"
"1105";"28";"2";"1";"3";"3";"2";"1";"1";"[1,2,4]";"1";"0";"1"
"1106";"10";"2";"1";"8";"4";"2";"1";"2";"[1,2,3,9]";"2";"0";"1"
"1107";"30";"3";"1";"2";"1";"2";"1";"2";"[1,3]";"2";"0";"1"
"1108";"23";"3";"1";"6";"1";"2";"1";"2";"[1,2,3,7]";"2";"0";"1"
"1109";"18";"3";"1";"4";"1";"2";"1";"2";"[1,2,3,5]";"2";"0";"1"
"1110";"28";"3";"1";"3";"3";"2";"1";"1";"[1,2,4]";"1";"0";"1"
"1111";"9";"3";"1";"7";"4";"2";"1";"2";"[1,2,3,8]";"2";"0";"1"
"1112";"10";"3";"1";"8";"4";"2";"1";"2";"[1,2,3,9]";"2";"0";"1"
"1113";"40";"3";"1";"7";"1";"2";"1";"1";"[1,2,3,8]";"1";"0";"1"
"1114";"30";"4";"1";"2";"1";"2";"1";"2";"[1,3]";"2";"0";"1"
"1115";"33";"4";"1";"1";"1";"2";"1";"2";"[2,3]";"2";"0";"1"
"1116";"23";"4";"1";"6";"1";"2";"1";"2";"[1,2,3,7]";"2";"0";"1"
"1117";"18";"4";"1";"4";"1";"2";"1";"2";"[1,2,3,5]";"2";"0";"1"
"1118";"9";"4";"1";"7";"4";"2";"1";"2";"[1,2,3,8]";"2";"0";"1"
"1119";"40";"4";"1";"7";"1";"2";"1";"1";"[1,2,3,8]";"1";"0";"1"
"1120";"38";"4";"1";"3";"2";"2";"1";"2";"[1,2,4]";"2";"0";"1"
"1121";"4";"5";"1";"10";"4";"2";"1";"1";"[1,2,3]";"2";"0";"1"
"1122";"13";"5";"1";"6";"4";"2";"1";"1";"[1,2,3,7]";"1";"0";"1"
"1123";"33";"5";"1";"1";"1";"2";"1";"2";"[2,3]";"2";"0";"1"
"1124";"34";"5";"1";"9";"4";"2";"1";"1";"[1,2,3,10]";"1";"0";"1"
"1125";"1";"5";"1";"4";"4";"2";"1";"2";"[1,2,3,5]";"2";"0";"1"
"1126";"21";"5";"1";"10";"3";"2";"1";"1";"[1,2,3]";"1";"0";"1"
"1127";"27";"5";"1";"6";"2";"2";"1";"1";"[1,2,3,7]";"1";"0";"1"
"1128";"38";"5";"1";"3";"2";"2";"1";"2";"[1,2,4]";"2";"0";"1"
"1129";"4";"6";"1";"10";"4";"2";"1";"1";"[1,2,3]";"2";"0";"1"
"1130";"26";"6";"1";"5";"4";"2";"1";"1";"[1,2,3,6]";"1";"0";"1"
"1131";"13";"6";"1";"6";"4";"2";"1";"1";"[1,2,3,7]";"1";"0";"1"
"1132";"24";"6";"1";"4";"3";"2";"1";"1";"[1,2,3,5]";"1";"0";"1"
"1133";"34";"6";"1";"9";"4";"2";"1";"1";"[1,2,3,10]";"1";"0";"1"
"1134";"6";"6";"1";"10";"2";"2";"1";"1";"[1,2,3]";"1";"0";"1"
"1135";"1";"6";"1";"4";"4";"2";"1";"2";"[1,2,3,5]";"2";"0";"1"
"1136";"7";"6";"1";"8";"1";"2";"1";"2";"[1,2,3,9]";"2";"0";"1"
"1137";"21";"6";"1";"10";"3";"2";"1";"1";"[1,2,3]";"1";"0";"1"
"1138";"27";"6";"1";"6";"2";"2";"1";"1";"[1,2,3,7]";"1";"0";"1"
"1139";"14";"6";"1";"9";"1";"2";"1";"2";"[1,2,3,10]";"2";"0";"1"
"1140";"26";"7";"1";"5";"4";"2";"1";"1";"[1,2,3,6]";"1";"0";"1"
"1141";"24";"7";"1";"4";"3";"2";"1";"1";"[1,2,3,5]";"1";"0";"1"
"1142";"6";"7";"1";"10";"2";"2";"1";"1";"[1,2,3]";"1";"0";"1"
"1143";"25";"7";"1";"3";"4";"2";"1";"2";"[1,2,4]";"2";"0";"1"
"1144";"7";"7";"1";"8";"1";"2";"1";"2";"[1,2,3,9]";"2";"0";"1"
"1145";"14";"7";"1";"9";"1";"2";"1";"2";"[1,2,3,10]";"2";"0";"1"
"1146";"12";"7";"1";"10";"1";"2";"1";"2";"[1,2,3]";"2";"0";"1"
"1147";"3";"7";"1";"1";"4";"2";"1";"2";"[2,3]";"2";"0";"1"
"1148";"19";"7";"1";"9";"2";"2";"1";"1";"[1,2,3,10]";"1";"0";"1"
"1149";"16";"7";"1";"8";"2";"2";"1";"1";"[1,2,3,9]";"1";"0";"1"
"1150";"22";"7";"1";"2";"4";"2";"1";"2";"[1,3]";"2";"0";"1"
"1151";"8";"8";"1";"4";"2";"2";"1";"1";"[1,2,3,5]";"2";"0";"1"
"1152";"29";"8";"1";"5";"2";"2";"1";"1";"[1,2,3,6]";"1";"0";"1"
"1153";"25";"8";"1";"3";"4";"2";"1";"2";"[1,2,4]";"2";"0";"1"
"1154";"35";"8";"1";"8";"3";"2";"1";"1";"[1,2,3,9]";"1";"0";"1"
"1155";"12";"8";"1";"10";"1";"2";"1";"2";"[1,2,3]";"2";"0";"1"
"1156";"3";"8";"1";"1";"4";"2";"1";"2";"[2,3]";"2";"0";"1"
"1157";"19";"8";"1";"9";"2";"2";"1";"1";"[1,2,3,10]";"1";"0";"1"
"1158";"16";"8";"1";"8";"2";"2";"1";"1";"[1,2,3,9]";"1";"0";"1"
"1159";"22";"8";"1";"2";"4";"2";"1";"2";"[1,3]";"2";"0";"1"
"1160";"8";"9";"1";"4";"2";"2";"1";"1";"[1,2,3,5]";"2";"0";"1"
"1161";"29";"9";"1";"5";"2";"2";"1";"1";"[1,2,3,6]";"1";"0";"1"
"1162";"31";"9";"1";"2";"2";"2";"1";"1";"[1,3]";"1";"0";"1"
"1163";"35";"9";"1";"8";"3";"2";"1";"1";"[1,2,3,9]";"1";"0";"1"
"1164";"2";"9";"1";"1";"2";"2";"1";"1";"[2,3]";"1";"0";"1"
"1165";"20";"9";"1";"9";"3";"2";"1";"1";"[1,2,3,10]";"2";"0";"1"
"1166";"39";"10";"1";"3";"1";"2";"1";"2";"[1,2,4]";"2";"0";"1"
"1167";"31";"10";"1";"2";"2";"2";"1";"1";"[1,3]";"1";"0";"1"
"1168";"2";"10";"1";"1";"2";"2";"1";"1";"[2,3]";"1";"0";"1"
"1169";"5";"10";"1";"5";"1";"2";"1";"2";"[1,2,3,6]";"2";"0";"1"
"1170";"37";"10";"1";"6";"3";"2";"1";"2";"[1,2,3,7]";"2";"0";"1"
"1171";"20";"10";"1";"9";"3";"2";"1";"1";"[1,2,3,10]";"2";"0";"1"
"1172";"36";"11";"1";"7";"3";"2";"1";"1";"[1,2,3,8]";"1";"0";"1"
"1173";"39";"11";"1";"3";"1";"2";"1";"2";"[1,2,4]";"2";"0";"1"
"1174";"5";"11";"1";"5";"1";"2";"1";"2";"[1,2,3,6]";"2";"0";"1"
"1175";"37";"11";"1";"6";"3";"2";"1";"2";"[1,2,3,7]";"2";"0";"1"
"1176";"36";"12";"1";"7";"3";"2";"1";"1";"[1,2,3,8]";"1";"0";"1"
"1177";"15";"13";"1";"5";"3";"2";"1";"1";"[1,2,3,6]";"1";"0";"1"
"1178";"11";"13";"1";"2";"3";"2";"1";"1";"[1,3]";"1";"0";"1"
"1179";"15";"14";"1";"5";"3";"2";"1";"1";"[1,2,3,6]";"1";"0";"1"
"1180";"11";"14";"1";"2";"3";"2";"1";"1";"[1,3]";"1";"0";"1"
"1181";"32";"15";"1";"7";"2";"2";"1";"1";"[1,2,3,8]";"2";"0";"1"
"1182";"32";"16";"1";"7";"2";"2";"1";"1";"[1,2,3,8]";"2";"0";"1"
"1183";"17";"16";"1";"1";"3";"2";"1";"1";"[2,3]";"1";"0";"1"
"1184";"17";"17";"1";"1";"3";"2";"1";"1";"[2,3]";"1";"0";"1"
"1185";"9";"20";"1";"7";"4";"2";"2";"2";"[1,2,3,8]";"2";"0";"1"
"1186";"22";"20";"1";"2";"4";"2";"2";"2";"[1,3]";"2";"0";"1"
"1187";"10";"20";"1";"8";"4";"2";"2";"2";"[1,2,3,9]";"2";"0";"1"
"1188";"9";"21";"1";"7";"4";"2";"2";"2";"[1,2,3,8]";"2";"0";"1"
"1189";"29";"21";"1";"5";"2";"2";"2";"1";"[1,2,3,6]";"1";"0";"1"
"1190";"22";"21";"1";"2";"4";"2";"2";"2";"[1,3]";"2";"0";"1"
"1191";"10";"21";"1";"8";"4";"2";"2";"2";"[1,2,3,9]";"2";"0";"1"
"1192";"28";"22";"1";"3";"3";"2";"2";"1";"[1,2,4]";"1";"0";"1"
"1193";"3";"22";"1";"1";"4";"2";"2";"2";"[2,3]";"2";"0";"1"
"1194";"29";"22";"1";"5";"2";"2";"2";"1";"[1,2,3,6]";"1";"0";"1"
"1195";"25";"22";"1";"3";"4";"2";"2";"2";"[1,2,4]";"2";"0";"1"
"1196";"23";"6";"1";"6";"1";"2";"2";"2";"[1,2,3,7]";"2";"0";"1"
"1197";"26";"23";"1";"5";"4";"2";"2";"1";"[1,2,3,6]";"2";"0";"1"
"1198";"28";"23";"1";"3";"3";"2";"2";"1";"[1,2,4]";"1";"0";"1"
"1199";"3";"23";"1";"1";"4";"2";"2";"2";"[2,3]";"2";"0";"1"
"1200";"2";"23";"1";"1";"2";"2";"2";"1";"[2,3]";"1";"0";"1"
"1201";"25";"23";"1";"3";"4";"2";"2";"2";"[1,2,4]";"2";"0";"1"
"1202";"16";"24";"1";"8";"2";"2";"2";"1";"[1,2,3,9]";"1";"0";"1"
"1203";"23";"7";"1";"6";"1";"2";"2";"2";"[1,2,3,7]";"2";"0";"1"
"1204";"26";"24";"1";"5";"4";"2";"2";"1";"[1,2,3,6]";"2";"0";"1"
"1205";"33";"7";"1";"1";"1";"2";"2";"2";"[2,3]";"2";"0";"1"
"1206";"2";"24";"1";"1";"2";"2";"2";"1";"[2,3]";"1";"0";"1"
"1207";"19";"24";"1";"9";"2";"2";"2";"1";"[1,2,3,10]";"1";"0";"1"
"1208";"30";"7";"1";"2";"1";"2";"2";"2";"[1,3]";"2";"0";"1"
"1209";"21";"24";"1";"10";"3";"2";"2";"1";"[1,2,3]";"1";"0";"1"
"1210";"16";"25";"1";"8";"2";"2";"2";"1";"[1,2,3,9]";"1";"0";"1"
"1211";"40";"8";"1";"7";"1";"2";"2";"1";"[1,2,3,8]";"2";"0";"1"
"1212";"33";"8";"1";"1";"1";"2";"2";"2";"[2,3]";"2";"0";"1"
"1213";"14";"8";"1";"9";"1";"2";"2";"2";"[1,2,3,10]";"2";"0";"1"
"1214";"7";"8";"1";"8";"1";"2";"2";"2";"[1,2,3,9]";"2";"0";"1"
"1215";"13";"25";"1";"6";"4";"2";"2";"1";"[1,2,3,7]";"2";"0";"1"
"1216";"5";"8";"1";"5";"1";"2";"2";"2";"[1,2,3,6]";"2";"0";"1"
"1217";"15";"25";"1";"5";"3";"2";"2";"1";"[1,2,3,6]";"2";"0";"1"
"1218";"6";"25";"1";"10";"2";"2";"2";"1";"[1,2,3]";"1";"0";"1"
"1219";"19";"25";"1";"9";"2";"2";"2";"1";"[1,2,3,10]";"1";"0";"1"
"1220";"30";"8";"1";"2";"1";"2";"2";"2";"[1,3]";"2";"0";"1"
"1221";"17";"25";"1";"1";"3";"2";"2";"1";"[2,3]";"1";"0";"1"
"1222";"21";"26";"1";"10";"3";"2";"2";"1";"[1,2,3]";"1";"0";"1"
"1223";"40";"9";"1";"7";"1";"2";"2";"1";"[1,2,3,8]";"2";"0";"1"
"1224";"36";"26";"1";"7";"3";"2";"2";"1";"[1,2,3,8]";"1";"0";"1"
"1225";"39";"9";"1";"3";"1";"2";"2";"2";"[1,2,4]";"2";"0";"1"
"1226";"14";"9";"1";"9";"1";"2";"2";"2";"[1,2,3,10]";"2";"0";"1"
"1227";"18";"9";"1";"4";"1";"2";"2";"2";"[1,2,3,5]";"2";"0";"1"
"1228";"7";"9";"1";"8";"1";"2";"2";"2";"[1,2,3,9]";"2";"0";"1"
"1229";"13";"26";"1";"6";"4";"2";"2";"1";"[1,2,3,7]";"2";"0";"1"
"1230";"5";"9";"1";"5";"1";"2";"2";"2";"[1,2,3,6]";"2";"0";"1"
"1231";"15";"26";"1";"5";"3";"2";"2";"1";"[1,2,3,6]";"2";"0";"1"
"1232";"6";"26";"1";"10";"2";"2";"2";"1";"[1,2,3]";"1";"0";"1"
"1233";"1";"26";"1";"4";"4";"2";"2";"2";"[1,2,3,5]";"2";"0";"1"
"1234";"17";"26";"1";"1";"3";"2";"2";"1";"[2,3]";"1";"0";"1"
"1235";"12";"9";"1";"10";"1";"2";"2";"2";"[1,2,3]";"2";"0";"1"
"1236";"36";"27";"1";"7";"3";"2";"2";"1";"[1,2,3,8]";"1";"0";"1"
"1237";"39";"10";"1";"3";"1";"2";"2";"2";"[1,2,4]";"2";"0";"1"
"1238";"18";"10";"1";"4";"1";"2";"2";"2";"[1,2,3,5]";"2";"0";"1"
"1239";"37";"27";"1";"6";"3";"2";"2";"2";"[1,2,3,7]";"1";"0";"1"
"1240";"24";"27";"1";"4";"3";"2";"2";"1";"[1,2,3,5]";"1";"0";"1"
"1241";"1";"27";"1";"4";"4";"2";"2";"2";"[1,2,3,5]";"2";"0";"1"
"1242";"35";"27";"1";"8";"3";"2";"2";"1";"[1,2,3,9]";"1";"0";"1"
"1243";"12";"10";"1";"10";"1";"2";"2";"2";"[1,2,3]";"2";"0";"1"
"1244";"4";"28";"1";"10";"4";"2";"2";"1";"[1,2,3]";"1";"0";"1"
"1245";"11";"28";"1";"2";"3";"2";"2";"1";"[1,3]";"1";"0";"1"
"1246";"37";"28";"1";"6";"3";"2";"2";"2";"[1,2,3,7]";"1";"0";"1"
"1247";"34";"28";"1";"9";"4";"2";"2";"1";"[1,2,3,10]";"2";"0";"1"
"1248";"24";"28";"1";"4";"3";"2";"2";"1";"[1,2,3,5]";"1";"0";"1"
"1249";"35";"28";"1";"8";"3";"2";"2";"1";"[1,2,3,9]";"1";"0";"1"
"1250";"4";"29";"1";"10";"4";"2";"2";"1";"[1,2,3]";"1";"0";"1"
"1251";"8";"29";"1";"4";"2";"2";"2";"1";"[1,2,3,5]";"2";"0";"1"
"1252";"11";"29";"1";"2";"3";"2";"2";"1";"[1,3]";"1";"0";"1"
"1253";"34";"29";"1";"9";"4";"2";"2";"1";"[1,2,3,10]";"2";"0";"1"
"1254";"8";"30";"1";"4";"2";"2";"2";"1";"[1,2,3,5]";"2";"0";"1"
"1255";"20";"31";"1";"9";"3";"2";"2";"1";"[1,2,3,10]";"1";"0";"1"
"1256";"20";"32";"1";"9";"3";"2";"2";"1";"[1,2,3,10]";"1";"0";"1"
"1257";"31";"34";"1";"2";"2";"2";"2";"1";"[1,3]";"1";"0";"1"
"1258";"38";"35";"1";"3";"2";"2";"2";"2";"[1,2,4]";"2";"0";"1"
"1259";"31";"35";"1";"2";"2";"2";"2";"1";"[1,3]";"1";"0";"1"
"1260";"38";"36";"1";"3";"2";"2";"2";"2";"[1,2,4]";"2";"0";"1"
"1261";"32";"41";"1";"7";"2";"2";"2";"1";"[1,2,3,8]";"2";"0";"1"
"1262";"32";"42";"1";"7";"2";"2";"2";"1";"[1,2,3,8]";"2";"0";"1"
"1263";"27";"44";"1";"6";"2";"2";"2";"1";"[1,2,3,7]";"1";"0";"1"
"1264";"27";"45";"1";"6";"2";"2";"2";"1";"[1,2,3,7]";"1";"0";"1"
"1265";"28";"47";"1";"3";"3";"2";"3";"1";"[1,2,4]";"1";"0";"1"
"1266";"9";"47";"1";"7";"4";"2";"3";"2";"[1,2,3,8]";"2";"0";"1"
"1267";"29";"48";"1";"5";"2";"2";"3";"1";"[1,2,3,6]";"1";"0";"1"
"1268";"36";"48";"1";"7";"3";"2";"3";"1";"[1,2,3,8]";"1";"0";"1"
"1269";"28";"48";"1";"3";"3";"2";"3";"1";"[1,2,4]";"1";"0";"1"
"1270";"9";"48";"1";"7";"4";"2";"3";"2";"[1,2,3,8]";"2";"0";"1"
"1271";"21";"48";"1";"10";"3";"2";"3";"1";"[1,2,3]";"1";"0";"1"
"1272";"4";"48";"1";"10";"4";"2";"3";"1";"[1,2,3]";"1";"0";"1"
"1273";"29";"49";"1";"5";"2";"2";"3";"1";"[1,2,3,6]";"1";"0";"1"
"1274";"25";"49";"1";"3";"4";"2";"3";"2";"[1,2,4]";"2";"0";"1"
"1275";"36";"49";"1";"7";"3";"2";"3";"1";"[1,2,3,8]";"1";"0";"1"
"1276";"10";"49";"1";"8";"4";"2";"3";"2";"[1,2,3,9]";"2";"0";"1"
"1277";"3";"49";"1";"1";"4";"2";"3";"2";"[2,3]";"1";"0";"1"
"1278";"21";"49";"1";"10";"3";"2";"3";"1";"[1,2,3]";"1";"0";"1"
"1279";"33";"4";"1";"1";"1";"2";"3";"2";"[2,3]";"2";"0";"1"
"1280";"4";"49";"1";"10";"4";"2";"3";"1";"[1,2,3]";"1";"0";"1"
"1281";"23";"5";"1";"6";"1";"2";"3";"2";"[1,2,3,7]";"2";"0";"1"
"1282";"17";"50";"1";"1";"3";"2";"3";"1";"[2,3]";"1";"0";"1"
"1283";"25";"50";"1";"3";"4";"2";"3";"2";"[1,2,4]";"2";"0";"1"
"1284";"14";"5";"1";"9";"1";"2";"3";"2";"[1,2,3,10]";"1";"0";"1"
"1285";"1";"50";"1";"4";"4";"2";"3";"2";"[1,2,3,5]";"2";"0";"1"
"1286";"2";"50";"1";"1";"2";"2";"3";"1";"[2,3]";"1";"0";"1"
"1287";"10";"50";"1";"8";"4";"2";"3";"2";"[1,2,3,9]";"2";"0";"1"
"1288";"3";"50";"1";"1";"4";"2";"3";"2";"[2,3]";"1";"0";"1"
"1289";"19";"50";"1";"9";"2";"2";"3";"1";"[1,2,3,10]";"1";"0";"1"
"1290";"33";"5";"1";"1";"1";"2";"3";"2";"[2,3]";"2";"0";"1"
"1291";"22";"50";"1";"2";"4";"2";"3";"2";"[1,3]";"2";"0";"1"
"1292";"23";"6";"1";"6";"1";"2";"3";"2";"[1,2,3,7]";"2";"0";"1"
"1293";"17";"51";"1";"1";"3";"2";"3";"1";"[2,3]";"1";"0";"1"
"1294";"34";"51";"1";"9";"4";"2";"3";"1";"[1,2,3,10]";"2";"0";"1"
"1295";"14";"6";"1";"9";"1";"2";"3";"2";"[1,2,3,10]";"1";"0";"1"
"1296";"1";"51";"1";"4";"4";"2";"3";"2";"[1,2,3,5]";"2";"0";"1"
"1297";"2";"51";"1";"1";"2";"2";"3";"1";"[2,3]";"1";"0";"1"
"1298";"8";"51";"1";"4";"2";"2";"3";"1";"[1,2,3,5]";"2";"0";"1"
"1299";"16";"51";"1";"8";"2";"2";"3";"1";"[1,2,3,9]";"1";"0";"1"
"1300";"19";"51";"1";"9";"2";"2";"3";"1";"[1,2,3,10]";"1";"0";"1"
"1301";"22";"51";"1";"2";"4";"2";"3";"2";"[1,3]";"2";"0";"1"
"1302";"13";"51";"1";"6";"4";"2";"3";"1";"[1,2,3,7]";"2";"0";"1"
"1303";"34";"52";"1";"9";"4";"2";"3";"1";"[1,2,3,10]";"2";"0";"1"
"1304";"8";"52";"1";"4";"2";"2";"3";"1";"[1,2,3,5]";"2";"0";"1"
"1305";"16";"52";"1";"8";"2";"2";"3";"1";"[1,2,3,9]";"1";"0";"1"
"1306";"13";"52";"1";"6";"4";"2";"3";"1";"[1,2,3,7]";"2";"0";"1"
"1307";"18";"8";"1";"4";"1";"2";"3";"2";"[1,2,3,5]";"2";"0";"1"
"1308";"15";"53";"1";"5";"3";"2";"3";"1";"[1,2,3,6]";"1";"0";"1"
"1309";"18";"9";"1";"4";"1";"2";"3";"2";"[1,2,3,5]";"2";"0";"1"
"1310";"15";"54";"1";"5";"3";"2";"3";"1";"[1,2,3,6]";"1";"0";"1"
"1311";"12";"10";"1";"10";"1";"2";"3";"2";"[1,2,3]";"0";"1";"1"
"1312";"26";"55";"1";"5";"4";"2";"3";"1";"[1,2,3,6]";"2";"0";"1"
"1313";"35";"55";"1";"8";"3";"2";"3";"1";"[1,2,3,9]";"2";"0";"1"
"1314";"11";"56";"1";"2";"3";"2";"3";"1";"[1,3]";"1";"0";"1"
"1315";"26";"56";"1";"5";"4";"2";"3";"1";"[1,2,3,6]";"2";"0";"1"
"1316";"35";"56";"1";"8";"3";"2";"3";"1";"[1,2,3,9]";"2";"0";"1"
"1317";"12";"11";"1";"10";"1";"2";"3";"2";"[1,2,3]";"0";"2";"1"
"1318";"11";"57";"1";"2";"3";"2";"3";"1";"[1,3]";"1";"0";"1"
"1319";"39";"13";"1";"3";"1";"2";"3";"2";"[1,2,4]";"2";"0";"1"
"1320";"39";"14";"1";"3";"1";"2";"3";"2";"[1,2,4]";"2";"0";"1"
"1321";"27";"59";"1";"6";"2";"2";"3";"1";"[1,2,3,7]";"1";"0";"1"
"1322";"38";"60";"1";"3";"2";"2";"3";"2";"[1,2,4]";"2";"0";"1"
"1323";"27";"60";"1";"6";"2";"2";"3";"1";"[1,2,3,7]";"1";"0";"1"
"1324";"12";"16";"1";"10";"1";"2";"3";"2";"[1,2,3]";"1";"2";"1"
"1325";"38";"61";"1";"3";"2";"2";"3";"2";"[1,2,4]";"2";"0";"1"
"1326";"12";"17";"1";"10";"1";"2";"3";"2";"[1,2,3]";"1";"2";"1"
"1327";"6";"63";"1";"10";"2";"2";"3";"1";"[1,2,3]";"1";"0";"1"
"1328";"6";"64";"1";"10";"2";"2";"3";"1";"[1,2,3]";"1";"0";"1"
"1329";"30";"20";"1";"2";"1";"2";"3";"2";"[1,3]";"2";"0";"1"
"1330";"30";"21";"1";"2";"1";"2";"3";"2";"[1,3]";"2";"0";"1"
"1331";"40";"21";"1";"7";"1";"2";"3";"1";"[1,2,3,8]";"2";"0";"1"
"1332";"31";"66";"1";"2";"2";"2";"3";"1";"[1,3]";"1";"0";"1"
"1333";"24";"67";"1";"4";"3";"2";"3";"1";"[1,2,3,5]";"1";"0";"1"
"1334";"40";"22";"1";"7";"1";"2";"3";"1";"[1,2,3,8]";"2";"0";"1"
"1335";"31";"67";"1";"2";"2";"2";"3";"1";"[1,3]";"1";"0";"1"
"1336";"24";"68";"1";"4";"3";"2";"3";"1";"[1,2,3,5]";"1";"0";"1"
"1337";"5";"23";"1";"5";"1";"2";"3";"2";"[1,2,3,6]";"2";"0";"1"
"1338";"20";"68";"1";"9";"3";"2";"3";"1";"[1,2,3,10]";"1";"0";"1"
"1339";"7";"24";"1";"8";"1";"2";"3";"2";"[1,2,3,9]";"1";"0";"1"
"1340";"37";"69";"1";"6";"3";"2";"3";"2";"[1,2,3,7]";"1";"0";"1"
"1341";"5";"24";"1";"5";"1";"2";"3";"2";"[1,2,3,6]";"2";"0";"1"
"1342";"20";"69";"1";"9";"3";"2";"3";"1";"[1,2,3,10]";"1";"0";"1"
"1343";"7";"25";"1";"8";"1";"2";"3";"2";"[1,2,3,9]";"1";"0";"1"
"1344";"37";"70";"1";"6";"3";"2";"3";"2";"[1,2,3,7]";"1";"0";"1"
"1345";"32";"76";"1";"7";"2";"2";"3";"1";"[1,2,3,8]";"0";"0";"1"
"1346";"0";"30";"1";"7";"2";"2";"3";"1";"[1,2,3,8]";"2";"0";"0"
"1347";"18";"2";"1";"4";"1";"2";"4";"2";"[1,2,3,5]";"2";"0";"1"
"1348";"23";"2";"1";"6";"1";"2";"4";"2";"[1,2,3,7]";"2";"0";"1"
"1349";"30";"2";"1";"2";"1";"2";"4";"2";"[1,3]";"2";"0";"1"
"1350";"21";"79";"1";"10";"3";"2";"4";"1";"[1,2,3]";"1";"0";"1"
"1351";"16";"79";"1";"8";"2";"2";"4";"1";"[1,2,3,9]";"1";"0";"1"
"1352";"8";"79";"1";"4";"2";"2";"4";"1";"[1,2,3,5]";"2";"0";"1"
"1353";"9";"79";"1";"7";"4";"2";"4";"2";"[1,2,3,8]";"2";"0";"1"
"1354";"14";"3";"1";"9";"1";"2";"4";"2";"[1,2,3,10]";"1";"0";"1"
"1355";"11";"79";"1";"2";"3";"2";"4";"1";"[1,3]";"1";"0";"1"
"1356";"18";"3";"1";"4";"1";"2";"4";"2";"[1,2,3,5]";"2";"0";"1"
"1357";"29";"79";"1";"5";"2";"2";"4";"1";"[1,2,3,6]";"1";"0";"1"
"1358";"23";"3";"1";"6";"1";"2";"4";"2";"[1,2,3,7]";"2";"0";"1"
"1359";"30";"3";"1";"2";"1";"2";"4";"2";"[1,3]";"2";"0";"1"
"1360";"21";"80";"1";"10";"3";"2";"4";"1";"[1,2,3]";"1";"0";"1"
"1361";"12";"4";"1";"10";"1";"2";"4";"2";"[1,2,3]";"2";"0";"1"
"1362";"3";"80";"1";"1";"4";"2";"4";"2";"[2,3]";"2";"0";"1"
"1363";"4";"80";"1";"10";"4";"2";"4";"1";"[1,2,3]";"1";"0";"1"
"1364";"1";"80";"1";"4";"4";"2";"4";"2";"[1,2,3,5]";"2";"0";"1"
"1365";"16";"80";"1";"8";"2";"2";"4";"1";"[1,2,3,9]";"1";"0";"1"
"1366";"8";"80";"1";"4";"2";"2";"4";"1";"[1,2,3,5]";"2";"0";"1"
"1367";"28";"80";"1";"3";"3";"2";"4";"1";"[1,2,4]";"1";"0";"1"
"1368";"9";"80";"1";"7";"4";"2";"4";"2";"[1,2,3,8]";"2";"0";"1"
"1369";"14";"4";"1";"9";"1";"2";"4";"2";"[1,2,3,10]";"1";"0";"1"
"1370";"17";"80";"1";"1";"3";"2";"4";"1";"[2,3]";"1";"0";"1"
"1371";"11";"80";"1";"2";"3";"2";"4";"1";"[1,3]";"1";"0";"1"
"1372";"39";"4";"1";"3";"1";"2";"4";"2";"[1,2,4]";"2";"0";"1"
"1373";"29";"80";"1";"5";"2";"2";"4";"1";"[1,2,3,6]";"1";"0";"1"
"1374";"12";"5";"1";"10";"1";"2";"4";"2";"[1,2,3]";"2";"0";"1"
"1375";"33";"5";"1";"1";"1";"2";"4";"2";"[2,3]";"2";"0";"1"
"1376";"19";"81";"1";"9";"2";"2";"4";"1";"[1,2,3,10]";"1";"0";"1"
"1377";"3";"81";"1";"1";"4";"2";"4";"2";"[2,3]";"2";"0";"1"
"1378";"4";"81";"1";"10";"4";"2";"4";"1";"[1,2,3]";"1";"0";"1"
"1379";"37";"81";"1";"6";"3";"2";"4";"2";"[1,2,3,7]";"0";"1";"1"
"1380";"1";"81";"1";"4";"4";"2";"4";"2";"[1,2,3,5]";"2";"0";"1"
"1381";"28";"81";"1";"3";"3";"2";"4";"1";"[1,2,4]";"1";"0";"1"
"1382";"17";"81";"1";"1";"3";"2";"4";"1";"[2,3]";"1";"0";"1"
"1383";"39";"5";"1";"3";"1";"2";"4";"2";"[1,2,4]";"2";"0";"1"
"1384";"13";"81";"1";"6";"4";"2";"4";"1";"[1,2,3,7]";"2";"0";"1"
"1385";"33";"6";"1";"1";"1";"2";"4";"2";"[2,3]";"2";"0";"1"
"1386";"19";"82";"1";"9";"2";"2";"4";"1";"[1,2,3,10]";"1";"0";"1"
"1387";"32";"82";"1";"7";"2";"2";"4";"1";"[1,2,3,8]";"1";"0";"1"
"1388";"2";"82";"1";"1";"2";"2";"4";"1";"[2,3]";"1";"0";"1"
"1389";"37";"82";"1";"6";"3";"2";"4";"2";"[1,2,3,7]";"0";"3";"1"
"1390";"35";"82";"1";"8";"3";"2";"4";"1";"[1,2,3,9]";"1";"0";"1"
"1391";"13";"82";"1";"6";"4";"2";"4";"1";"[1,2,3,7]";"2";"0";"1"
"1392";"5";"7";"1";"5";"1";"2";"4";"2";"[1,2,3,6]";"2";"0";"1"
"1393";"32";"83";"1";"7";"2";"2";"4";"1";"[1,2,3,8]";"1";"0";"1"
"1394";"2";"83";"1";"1";"2";"2";"4";"1";"[2,3]";"1";"0";"1"
"1395";"34";"83";"1";"9";"4";"2";"4";"1";"[1,2,3,10]";"2";"0";"1"
"1396";"35";"83";"1";"8";"3";"2";"4";"1";"[1,2,3,9]";"1";"0";"1"
"1397";"36";"84";"1";"7";"3";"2";"4";"1";"[1,2,3,8]";"1";"0";"1"
"1398";"5";"8";"1";"5";"1";"2";"4";"2";"[1,2,3,6]";"2";"0";"1"
"1399";"20";"84";"1";"9";"3";"2";"4";"1";"[1,2,3,10]";"1";"0";"1"
"1400";"34";"84";"1";"9";"4";"2";"4";"1";"[1,2,3,10]";"2";"0";"1"
"1401";"7";"8";"1";"8";"1";"2";"4";"2";"[1,2,3,9]";"2";"0";"1"
"1402";"36";"85";"1";"7";"3";"2";"4";"1";"[1,2,3,8]";"1";"0";"1"
"1403";"20";"85";"1";"9";"3";"2";"4";"1";"[1,2,3,10]";"1";"0";"1"
"1404";"7";"9";"1";"8";"1";"2";"4";"2";"[1,2,3,9]";"2";"0";"1"
"1405";"37";"86";"1";"6";"3";"2";"4";"2";"[1,2,3,7]";"1";"3";"1"
"1406";"10";"87";"1";"8";"4";"2";"4";"2";"[1,2,3,9]";"2";"0";"1"
"1407";"37";"87";"1";"6";"3";"2";"4";"2";"[1,2,3,7]";"1";"3";"1"
"1408";"10";"88";"1";"8";"4";"2";"4";"2";"[1,2,3,9]";"2";"0";"1"
"1409";"24";"88";"1";"4";"3";"2";"4";"1";"[1,2,3,5]";"1";"0";"1"
"1410";"15";"88";"1";"5";"3";"2";"4";"1";"[1,2,3,6]";"1";"0";"1"
"1411";"24";"89";"1";"4";"3";"2";"4";"1";"[1,2,3,5]";"1";"0";"1"
"1412";"40";"13";"1";"7";"1";"2";"4";"1";"[1,2,3,8]";"2";"0";"1"
"1413";"15";"89";"1";"5";"3";"2";"4";"1";"[1,2,3,6]";"1";"0";"1"
"1414";"40";"14";"1";"7";"1";"2";"4";"1";"[1,2,3,8]";"2";"0";"1"
"1415";"6";"91";"1";"10";"2";"2";"4";"1";"[1,2,3]";"1";"0";"1"
"1416";"26";"91";"1";"5";"4";"2";"4";"1";"[1,2,3,6]";"2";"0";"1"
"1417";"6";"92";"1";"10";"2";"2";"4";"1";"[1,2,3]";"1";"0";"1"
"1418";"26";"92";"1";"5";"4";"2";"4";"1";"[1,2,3,6]";"2";"0";"1"
"1419";"25";"93";"1";"3";"4";"2";"4";"2";"[1,2,4]";"2";"0";"1"
"1420";"31";"94";"1";"2";"2";"2";"4";"1";"[1,3]";"1";"0";"1"
"1421";"25";"94";"1";"3";"4";"2";"4";"2";"[1,2,4]";"2";"0";"1"
"1422";"31";"95";"1";"2";"2";"2";"4";"1";"[1,3]";"1";"0";"1"
"1423";"22";"99";"1";"2";"4";"2";"4";"2";"[1,3]";"2";"0";"1"
"1424";"38";"100";"1";"3";"2";"2";"4";"2";"[1,2,4]";"2";"0";"1"
"1425";"22";"100";"1";"2";"4";"2";"4";"2";"[1,3]";"2";"0";"1"
"1426";"38";"101";"1";"3";"2";"2";"4";"2";"[1,2,4]";"2";"0";"1"
"1427";"27";"101";"1";"6";"2";"2";"4";"1";"[1,2,3,7]";"1";"0";"1"
"1428";"27";"102";"1";"6";"2";"2";"4";"1";"[1,2,3,7]";"1";"0";"1"
"1429";"23";"1";"1";"6";"1";"2";"5";"2";"[1,2,3,7]";"2";"0";"1"
"1430";"28";"103";"1";"3";"3";"2";"5";"1";"[1,2,4]";"1";"0";"1"
"1431";"36";"103";"1";"7";"3";"2";"5";"1";"[1,2,3,8]";"1";"0";"1"
"1432";"33";"1";"1";"1";"1";"2";"5";"2";"[2,3]";"2";"0";"1"
"1433";"5";"1";"1";"5";"1";"2";"5";"2";"[1,2,3,6]";"2";"0";"1"
"1434";"23";"2";"1";"6";"1";"2";"5";"2";"[1,2,3,7]";"2";"0";"1"
"1435";"10";"104";"1";"8";"4";"2";"5";"2";"[1,2,3,9]";"2";"0";"1"
"1436";"16";"104";"1";"8";"2";"2";"5";"1";"[1,2,3,9]";"1";"0";"1"
"1437";"34";"104";"1";"9";"4";"2";"5";"1";"[1,2,3,10]";"2";"0";"1"
"1438";"11";"104";"1";"2";"3";"2";"5";"1";"[1,3]";"1";"0";"1"
"1439";"6";"104";"1";"10";"2";"2";"5";"1";"[1,2,3]";"1";"0";"1"
"1440";"13";"104";"1";"6";"4";"2";"5";"1";"[1,2,3,7]";"2";"0";"1"
"1441";"17";"104";"1";"1";"3";"2";"5";"1";"[2,3]";"1";"0";"1"
"1442";"15";"104";"1";"5";"3";"2";"5";"1";"[1,2,3,6]";"1";"0";"1"
"1443";"19";"104";"1";"9";"2";"2";"5";"1";"[1,2,3,10]";"1";"0";"1"
"1444";"28";"104";"1";"3";"3";"2";"5";"1";"[1,2,4]";"1";"0";"1"
"1445";"36";"104";"1";"7";"3";"2";"5";"1";"[1,2,3,8]";"1";"0";"1"
"1446";"21";"104";"1";"10";"3";"2";"5";"1";"[1,2,3]";"1";"0";"1"
"1447";"18";"2";"1";"4";"1";"2";"5";"2";"[1,2,3,5]";"2";"0";"1"
"1448";"33";"2";"1";"1";"1";"2";"5";"2";"[2,3]";"2";"0";"1"
"1449";"5";"3";"1";"5";"1";"2";"5";"2";"[1,2,3,6]";"2";"0";"1"
"1450";"10";"105";"1";"8";"4";"2";"5";"2";"[1,2,3,9]";"2";"0";"1"
"1451";"9";"105";"1";"7";"4";"2";"5";"2";"[1,2,3,8]";"2";"0";"1"
"1452";"16";"105";"1";"8";"2";"2";"5";"1";"[1,2,3,9]";"1";"0";"1"
"1453";"34";"105";"1";"9";"4";"2";"5";"1";"[1,2,3,10]";"2";"0";"1"
"1454";"1";"105";"1";"4";"4";"2";"5";"2";"[1,2,3,5]";"2";"0";"1"
"1455";"29";"105";"1";"5";"2";"2";"5";"1";"[1,2,3,6]";"1";"0";"1"
"1456";"11";"105";"1";"2";"3";"2";"5";"1";"[1,3]";"1";"0";"1"
"1457";"6";"105";"1";"10";"2";"2";"5";"1";"[1,2,3]";"1";"0";"1"
"1458";"13";"105";"1";"6";"4";"2";"5";"1";"[1,2,3,7]";"2";"0";"1"
"1459";"15";"105";"1";"5";"3";"2";"5";"1";"[1,2,3,6]";"1";"0";"1"
"1460";"19";"105";"1";"9";"2";"2";"5";"1";"[1,2,3,10]";"1";"0";"1"
"1461";"17";"105";"1";"1";"3";"2";"5";"1";"[2,3]";"1";"0";"1"
"1462";"21";"105";"1";"10";"3";"2";"5";"1";"[1,2,3]";"1";"0";"1"
"1463";"26";"105";"1";"5";"4";"2";"5";"1";"[1,2,3,6]";"2";"0";"1"
"1464";"22";"105";"1";"2";"4";"2";"5";"2";"[1,3]";"2";"0";"1"
"1465";"18";"3";"1";"4";"1";"2";"5";"2";"[1,2,3,5]";"2";"0";"1"
"1466";"35";"106";"1";"8";"3";"2";"5";"1";"[1,2,3,9]";"1";"0";"1"
"1467";"9";"106";"1";"7";"4";"2";"5";"2";"[1,2,3,8]";"2";"0";"1"
"1468";"1";"106";"1";"4";"4";"2";"5";"2";"[1,2,3,5]";"2";"0";"1"
"1469";"29";"106";"1";"5";"2";"2";"5";"1";"[1,2,3,6]";"1";"0";"1"
"1470";"4";"106";"1";"10";"4";"2";"5";"1";"[1,2,3]";"1";"0";"1"
"1471";"26";"106";"1";"5";"4";"2";"5";"1";"[1,2,3,6]";"2";"0";"1"
"1472";"22";"106";"1";"2";"4";"2";"5";"2";"[1,3]";"2";"0";"1"
"1473";"40";"4";"1";"7";"1";"2";"5";"1";"[1,2,3,8]";"2";"0";"1"
"1474";"20";"106";"1";"9";"3";"2";"5";"1";"[1,2,3,10]";"1";"0";"1"
"1475";"35";"107";"1";"8";"3";"2";"5";"1";"[1,2,3,9]";"1";"0";"1"
"1476";"25";"107";"1";"3";"4";"2";"5";"2";"[1,2,4]";"2";"0";"1"
"1477";"38";"107";"1";"3";"2";"2";"5";"2";"[1,2,4]";"2";"0";"1"
"1478";"12";"5";"1";"10";"1";"2";"5";"2";"[1,2,3]";"2";"0";"1"
"1479";"4";"107";"1";"10";"4";"2";"5";"1";"[1,2,3]";"1";"0";"1"
"1480";"30";"5";"1";"2";"1";"2";"5";"2";"[1,3]";"2";"0";"1"
"1481";"40";"5";"1";"7";"1";"2";"5";"1";"[1,2,3,8]";"2";"0";"1"
"1482";"20";"107";"1";"9";"3";"2";"5";"1";"[1,2,3,10]";"1";"0";"1"
"1483";"25";"108";"1";"3";"4";"2";"5";"2";"[1,2,4]";"2";"0";"1"
"1484";"38";"108";"1";"3";"2";"2";"5";"2";"[1,2,4]";"2";"0";"1"
"1485";"39";"6";"1";"3";"1";"2";"5";"2";"[1,2,4]";"2";"0";"1"
"1486";"12";"6";"1";"10";"1";"2";"5";"2";"[1,2,3]";"2";"0";"1"
"1487";"30";"6";"1";"2";"1";"2";"5";"2";"[1,3]";"2";"0";"1"
"1488";"37";"109";"1";"6";"3";"2";"5";"2";"[1,2,3,7]";"1";"0";"1"
"1489";"40";"7";"1";"7";"1";"2";"5";"1";"[1,2,3,8]";"2";"1";"1"
"1490";"39";"7";"1";"3";"1";"2";"5";"2";"[1,2,4]";"2";"0";"1"
"1491";"37";"110";"1";"6";"3";"2";"5";"2";"[1,2,3,7]";"1";"0";"1"
"1492";"7";"8";"1";"8";"1";"2";"5";"2";"[1,2,3,9]";"2";"0";"1"
"1493";"32";"110";"1";"7";"2";"2";"5";"1";"[1,2,3,8]";"1";"0";"1"
"1494";"3";"111";"1";"1";"4";"2";"5";"2";"[2,3]";"2";"0";"1"
"1495";"40";"9";"1";"7";"1";"2";"5";"1";"[1,2,3,8]";"2";"2";"1"
"1496";"7";"9";"1";"8";"1";"2";"5";"2";"[1,2,3,9]";"2";"0";"1"
"1497";"27";"111";"1";"6";"2";"2";"5";"1";"[1,2,3,7]";"1";"0";"1"
"1498";"32";"111";"1";"7";"2";"2";"5";"1";"[1,2,3,8]";"1";"0";"1"
"1499";"14";"10";"1";"9";"1";"2";"5";"2";"[1,2,3,10]";"2";"0";"1"
"1500";"3";"112";"1";"1";"4";"2";"5";"2";"[2,3]";"2";"0";"1"
"1501";"8";"112";"1";"4";"2";"2";"5";"1";"[1,2,3,5]";"2";"0";"1"
"1502";"40";"10";"1";"7";"1";"2";"5";"1";"[1,2,3,8]";"2";"3";"1"
"1503";"2";"112";"1";"1";"2";"2";"5";"1";"[2,3]";"1";"0";"1"
"1504";"27";"112";"1";"6";"2";"2";"5";"1";"[1,2,3,7]";"1";"0";"1"
"1505";"14";"11";"1";"9";"1";"2";"5";"2";"[1,2,3,10]";"2";"0";"1"
"1506";"8";"113";"1";"4";"2";"2";"5";"1";"[1,2,3,5]";"2";"0";"1"
"1507";"2";"113";"1";"1";"2";"2";"5";"1";"[2,3]";"1";"0";"1"
"1508";"40";"11";"1";"7";"1";"2";"5";"1";"[1,2,3,8]";"2";"4";"1"
"1509";"31";"118";"1";"2";"2";"2";"5";"1";"[1,3]";"1";"0";"1"
"1510";"31";"119";"1";"2";"2";"2";"5";"1";"[1,3]";"1";"0";"1"
"1511";"24";"123";"1";"4";"3";"2";"5";"1";"[1,2,3,5]";"1";"0";"1"
"1512";"24";"124";"1";"4";"3";"2";"5";"1";"[1,2,3,5]";"1";"0";"1"
"1513";"28";"125";"1";"3";"3";"2";"6";"1";"[1,2,4]";"1";"0";"1"
"1514";"36";"126";"1";"7";"3";"2";"6";"1";"[1,2,3,8]";"1";"0";"1"
"1515";"5";"2";"1";"5";"1";"2";"6";"2";"[1,2,3,6]";"2";"0";"1"
"1516";"22";"126";"1";"2";"4";"2";"6";"2";"[1,3]";"2";"0";"1"
"1517";"28";"126";"1";"3";"3";"2";"6";"1";"[1,2,4]";"1";"0";"1"
"1518";"18";"2";"1";"4";"1";"2";"6";"2";"[1,2,3,5]";"2";"0";"1"
"1519";"23";"2";"1";"6";"1";"2";"6";"2";"[1,2,3,7]";"2";"0";"1"
"1520";"35";"126";"1";"8";"3";"2";"6";"1";"[1,2,3,9]";"1";"0";"1"
"1521";"33";"2";"1";"1";"1";"2";"6";"2";"[2,3]";"2";"0";"1"
"1522";"29";"126";"1";"5";"2";"2";"6";"1";"[1,2,3,6]";"1";"0";"1"
"1523";"31";"126";"1";"2";"2";"2";"6";"1";"[1,3]";"1";"0";"1"
"1524";"10";"126";"1";"8";"4";"2";"6";"2";"[1,2,3,9]";"2";"0";"1"
"1525";"34";"126";"1";"9";"4";"2";"6";"1";"[1,2,3,10]";"2";"0";"1"
"1526";"21";"127";"1";"10";"3";"2";"6";"1";"[1,2,3]";"1";"0";"1"
"1527";"36";"127";"1";"7";"3";"2";"6";"1";"[1,2,3,8]";"1";"0";"1"
"1528";"38";"127";"1";"3";"2";"2";"6";"2";"[1,2,4]";"2";"0";"1"
"1529";"9";"127";"1";"7";"4";"2";"6";"2";"[1,2,3,8]";"2";"0";"1"
"1530";"5";"3";"1";"5";"1";"2";"6";"2";"[1,2,3,6]";"2";"0";"1"
"1531";"22";"127";"1";"2";"4";"2";"6";"2";"[1,3]";"2";"0";"1"
"1532";"30";"3";"1";"2";"1";"2";"6";"2";"[1,3]";"2";"0";"1"
"1533";"18";"3";"1";"4";"1";"2";"6";"2";"[1,2,3,5]";"2";"0";"1"
"1534";"1";"127";"1";"4";"4";"2";"6";"2";"[1,2,3,5]";"2";"0";"1"
"1535";"23";"3";"1";"6";"1";"2";"6";"2";"[1,2,3,7]";"2";"0";"1"
"1536";"35";"127";"1";"8";"3";"2";"6";"1";"[1,2,3,9]";"1";"0";"1"
"1537";"17";"127";"1";"1";"3";"2";"6";"1";"[2,3]";"1";"0";"1"
"1538";"33";"3";"1";"1";"1";"2";"6";"2";"[2,3]";"2";"0";"1"
"1539";"29";"127";"1";"5";"2";"2";"6";"1";"[1,2,3,6]";"1";"0";"1"
"1540";"31";"127";"1";"2";"2";"2";"6";"1";"[1,3]";"1";"0";"1"
"1541";"10";"127";"1";"8";"4";"2";"6";"2";"[1,2,3,9]";"2";"0";"1"
"1542";"34";"127";"1";"9";"4";"2";"6";"1";"[1,2,3,10]";"2";"0";"1"
"1543";"7";"4";"1";"8";"1";"2";"6";"2";"[1,2,3,9]";"1";"0";"1"
"1544";"21";"128";"1";"10";"3";"2";"6";"1";"[1,2,3]";"1";"0";"1"
"1545";"38";"128";"1";"3";"2";"2";"6";"2";"[1,2,4]";"2";"0";"1"
"1546";"3";"128";"1";"1";"4";"2";"6";"2";"[2,3]";"1";"0";"1"
"1547";"9";"128";"1";"7";"4";"2";"6";"2";"[1,2,3,8]";"2";"0";"1"
"1548";"30";"4";"1";"2";"1";"2";"6";"2";"[1,3]";"2";"0";"1"
"1549";"8";"128";"1";"4";"2";"2";"6";"1";"[1,2,3,5]";"2";"0";"1"
"1550";"6";"128";"1";"10";"2";"2";"6";"1";"[1,2,3]";"1";"0";"1"
"1551";"1";"128";"1";"4";"4";"2";"6";"2";"[1,2,3,5]";"2";"0";"1"
