"id";"id_subj";"time";"session";"id_grp";"grp";"round";"period";"sig";"links";"choice";"hist";"active"
"1";"31";"0";"1";"36";"1";"1";"1";"1";"[2,21,24,32]";"0";"0";"1"
"2";"15";"0";"1";"12";"1";"1";"1";"1";"[10,29]";"0";"0";"1"
"3";"11";"0";"1";"17";"1";"1";"1";"1";"[1,4,7,14,18,25,28,38]";"0";"0";"1"
"4";"26";"0";"1";"39";"1";"1";"1";"1";"[2,19,22,29]";"0";"0";"1"
"5";"29";"0";"1";"24";"1";"1";"1";"1";"[16,27,28,36]";"0";"0";"1"
"6";"38";"0";"1";"32";"1";"1";"1";"2";"[6,21,26,33,36]";"0";"0";"1"
"7";"27";"0";"1";"16";"1";"1";"1";"1";"[1,3,8,21,24]";"0";"0";"1"
"8";"1";"0";"1";"7";"1";"1";"1";"2";"[3,8,17,20]";"0";"0";"1"
"9";"2";"0";"1";"2";"1";"1";"1";"1";"[15,36,39]";"0";"0";"1"
"10";"39";"0";"1";"30";"1";"1";"1";"1";"[13]";"0";"0";"1"
"11";"36";"0";"1";"23";"1";"1";"1";"2";"[18,27,40]";"0";"0";"1"
"12";"19";"0";"1";"10";"1";"1";"1";"1";"[12,19,28,33,38]";"0";"0";"1"
"13";"9";"0";"1";"9";"1";"1";"1";"2";"[29,35]";"0";"0";"1"
"14";"13";"0";"1";"4";"1";"1";"1";"1";"[1,14,17,25]";"0";"0";"1"
"15";"34";"0";"1";"13";"1";"1";"1";"2";"[21,30]";"0";"0";"1"
"16";"40";"0";"1";"38";"1";"1";"1";"1";"[10,17]";"0";"0";"1"
"17";"37";"0";"1";"18";"1";"1";"1";"1";"[17,23]";"0";"0";"1"
"18";"35";"0";"1";"3";"1";"1";"1";"1";"[7,15,16,20,29,40]";"0";"0";"1"
"19";"30";"0";"1";"33";"1";"1";"1";"1";"[10,21,32,37]";"0";"0";"1"
"20";"14";"0";"1";"27";"1";"1";"1";"1";"[19,22,23,24,37]";"0";"0";"1"
"21";"16";"0";"1";"29";"1";"1";"1";"2";"[3,9,12,31,39]";"0";"0";"1"
"22";"4";"0";"1";"26";"1";"1";"1";"2";"[6,11,19,21,22,25,28,32,40]";"0";"0";"1"
"23";"21";"0";"1";"11";"1";"1";"1";"2";"[5,15,26,35]";"0";"0";"1"
"24";"28";"0";"1";"5";"1";"1";"1";"1";"[6,11,21,31]";"0";"0";"1"
"25";"17";"0";"1";"1";"1";"1";"1";"1";"[4,16,17]";"0";"0";"1"
"26";"33";"0";"1";"28";"1";"1";"1";"1";"[10,17,21,24,26,34]";"0";"0";"1"
"27";"25";"0";"1";"20";"1";"1";"1";"1";"[3,7,25]";"0";"0";"1"
"28";"23";"0";"1";"19";"1";"1";"1";"1";"[10,26,27,39]";"0";"0";"1"
"29";"12";"0";"1";"31";"1";"1";"1";"1";"[5,21,29]";"0";"0";"1"
"30";"5";"0";"1";"40";"1";"1";"1";"1";"[3,14,23,26]";"0";"0";"1"
"31";"7";"0";"1";"6";"1";"1";"1";"1";"[5,26,32]";"0";"0";"1"
"32";"10";"0";"1";"14";"1";"1";"1";"2";"[4,8,17,22,37,40]";"0";"0";"1"
"33";"22";"0";"1";"34";"1";"1";"1";"2";"[28]";"0";"0";"1"
"34";"6";"0";"1";"8";"1";"1";"1";"1";"[7,14,16]";"0";"0";"1"
"35";"20";"0";"1";"21";"1";"1";"1";"1";"[5,13,16,26,28,31,32,33,36]";"0";"0";"1"
"36";"3";"0";"1";"22";"1";"1";"1";"1";"[14,26,27,39]";"0";"0";"1"
"37";"24";"0";"1";"25";"1";"1";"1";"2";"[4,15,17,20,26]";"0";"0";"1"
"38";"8";"0";"1";"15";"1";"1";"1";"1";"[2,3,11,25]";"0";"0";"1"
"39";"32";"0";"1";"35";"1";"1";"1";"2";"[9,11]";"0";"0";"1"
"40";"18";"0";"1";"37";"1";"1";"1";"1";"[14,27,33]";"0";"0";"1"
"41";"17";"6";"1";"1";"1";"1";"1";"1";"[4,16,17]";"1";"0";"1"
"42";"11";"7";"1";"17";"1";"1";"1";"1";"[1,4,7,14,18,25,28,38]";"1";"0";"1"
"43";"13";"7";"1";"4";"1";"1";"1";"1";"[1,14,17,25]";"1";"0";"1"
"44";"33";"7";"1";"28";"1";"1";"1";"1";"[10,17,21,24,26,34]";"1";"0";"1"
"45";"27";"7";"1";"16";"1";"1";"1";"1";"[1,3,8,21,24]";"1";"0";"1"
"46";"5";"7";"1";"40";"1";"1";"1";"1";"[3,14,23,26]";"1";"0";"1"
"47";"17";"7";"1";"1";"1";"1";"1";"1";"[4,16,17]";"1";"0";"1"
"48";"26";"7";"1";"39";"1";"1";"1";"1";"[2,19,22,29]";"1";"0";"1"
"49";"11";"8";"1";"17";"1";"1";"1";"1";"[1,4,7,14,18,25,28,38]";"1";"0";"1"
"50";"13";"8";"1";"4";"1";"1";"1";"1";"[1,14,17,25]";"1";"0";"1"
"51";"16";"8";"1";"29";"1";"1";"1";"2";"[3,9,12,31,39]";"2";"0";"1"
"52";"33";"8";"1";"28";"1";"1";"1";"1";"[10,17,21,24,26,34]";"1";"0";"1"
"53";"27";"8";"1";"16";"1";"1";"1";"1";"[1,3,8,21,24]";"1";"0";"1"
"54";"2";"8";"1";"2";"1";"1";"1";"1";"[15,36,39]";"1";"0";"1"
"55";"5";"8";"1";"40";"1";"1";"1";"1";"[3,14,23,26]";"1";"0";"1"
"56";"6";"8";"1";"8";"1";"1";"1";"1";"[7,14,16]";"1";"0";"1"
"57";"32";"8";"1";"35";"1";"1";"1";"2";"[9,11]";"2";"0";"1"
"58";"26";"8";"1";"39";"1";"1";"1";"1";"[2,19,22,29]";"1";"0";"1"
"59";"16";"9";"1";"29";"1";"1";"1";"2";"[3,9,12,31,39]";"2";"0";"1"
"60";"2";"9";"1";"2";"1";"1";"1";"1";"[15,36,39]";"1";"0";"1"
"61";"6";"9";"1";"8";"1";"1";"1";"1";"[7,14,16]";"1";"0";"1"
"62";"32";"9";"1";"35";"1";"1";"1";"2";"[9,11]";"2";"0";"1"
"63";"34";"10";"1";"13";"1";"1";"1";"2";"[21,30]";"2";"0";"1"
"64";"31";"10";"1";"36";"1";"1";"1";"1";"[2,21,24,32]";"1";"0";"1"
"65";"30";"10";"1";"33";"1";"1";"1";"1";"[10,21,32,37]";"1";"0";"1"
"66";"25";"11";"1";"20";"1";"1";"1";"1";"[3,7,25]";"1";"0";"1"
"67";"34";"11";"1";"13";"1";"1";"1";"2";"[21,30]";"2";"0";"1"
"68";"9";"11";"1";"9";"1";"1";"1";"2";"[29,35]";"2";"0";"1"
"69";"10";"11";"1";"14";"1";"1";"1";"2";"[4,8,17,22,37,40]";"2";"0";"1"
"70";"31";"11";"1";"36";"1";"1";"1";"1";"[2,21,24,32]";"1";"0";"1"
"71";"30";"11";"1";"33";"1";"1";"1";"1";"[10,21,32,37]";"1";"0";"1"
"72";"38";"11";"1";"32";"1";"1";"1";"2";"[6,21,26,33,36]";"2";"0";"1"
"73";"1";"11";"1";"7";"1";"1";"1";"2";"[3,8,17,20]";"2";"0";"1"
"74";"20";"11";"1";"21";"1";"1";"1";"1";"[5,13,16,26,28,31,32,33,36]";"1";"0";"1"
"75";"15";"12";"1";"12";"1";"1";"1";"1";"[10,29]";"1";"0";"1"
"76";"25";"12";"1";"20";"1";"1";"1";"1";"[3,7,25]";"1";"0";"1"
"77";"9";"12";"1";"9";"1";"1";"1";"2";"[29,35]";"2";"0";"1"
"78";"10";"12";"1";"14";"1";"1";"1";"2";"[4,8,17,22,37,40]";"2";"0";"1"
"79";"38";"12";"1";"32";"1";"1";"1";"2";"[6,21,26,33,36]";"2";"0";"1"
"80";"1";"12";"1";"7";"1";"1";"1";"2";"[3,8,17,20]";"2";"0";"1"
"81";"12";"12";"1";"31";"1";"1";"1";"1";"[5,21,29]";"1";"0";"1"
"82";"35";"12";"1";"3";"1";"1";"1";"1";"[7,15,16,20,29,40]";"1";"0";"1"
"83";"7";"12";"1";"6";"1";"1";"1";"1";"[5,26,32]";"1";"0";"1"
"84";"20";"12";"1";"21";"1";"1";"1";"1";"[5,13,16,26,28,31,32,33,36]";"1";"0";"1"
"85";"15";"13";"1";"12";"1";"1";"1";"1";"[10,29]";"1";"0";"1"
"86";"14";"13";"1";"27";"1";"1";"1";"1";"[19,22,23,24,37]";"1";"0";"1"
"87";"24";"13";"1";"25";"1";"1";"1";"2";"[4,15,17,20,26]";"2";"0";"1"
"88";"22";"13";"1";"34";"1";"1";"1";"2";"[28]";"2";"0";"1"
"89";"3";"13";"1";"22";"1";"1";"1";"1";"[14,26,27,39]";"1";"0";"1"
"90";"12";"13";"1";"31";"1";"1";"1";"1";"[5,21,29]";"1";"0";"1"
"91";"18";"13";"1";"37";"1";"1";"1";"1";"[14,27,33]";"1";"0";"1"
"92";"35";"13";"1";"3";"1";"1";"1";"1";"[7,15,16,20,29,40]";"1";"0";"1"
"93";"7";"13";"1";"6";"1";"1";"1";"1";"[5,26,32]";"1";"0";"1"
"94";"8";"13";"1";"15";"1";"1";"1";"1";"[2,3,11,25]";"1";"0";"1"
"95";"14";"14";"1";"27";"1";"1";"1";"1";"[19,22,23,24,37]";"1";"0";"1"
"96";"21";"14";"1";"11";"1";"1";"1";"2";"[5,15,26,35]";"2";"0";"1"
"97";"24";"14";"1";"25";"1";"1";"1";"2";"[4,15,17,20,26]";"2";"0";"1"
"98";"22";"14";"1";"34";"1";"1";"1";"2";"[28]";"2";"0";"1"
"99";"3";"14";"1";"22";"1";"1";"1";"1";"[14,26,27,39]";"1";"0";"1"
"100";"18";"14";"1";"37";"1";"1";"1";"1";"[14,27,33]";"1";"0";"1"
"101";"37";"14";"1";"18";"1";"1";"1";"1";"[17,23]";"1";"0";"1"
"102";"8";"15";"1";"15";"1";"1";"1";"1";"[2,3,11,25]";"1";"0";"1"
"103";"19";"15";"1";"10";"1";"1";"1";"1";"[12,19,28,33,38]";"1";"0";"1"
"104";"21";"15";"1";"11";"1";"1";"1";"2";"[5,15,26,35]";"2";"0";"1"
"105";"23";"15";"1";"19";"1";"1";"1";"1";"[10,26,27,39]";"1";"0";"1"
"106";"40";"15";"1";"38";"1";"1";"1";"1";"[10,17]";"1";"0";"1"
"107";"37";"15";"1";"18";"1";"1";"1";"1";"[17,23]";"1";"0";"1"
"108";"39";"15";"1";"30";"1";"1";"1";"1";"[13]";"1";"0";"1"
"109";"36";"16";"1";"23";"1";"1";"1";"2";"[18,27,40]";"2";"0";"1"
"110";"19";"16";"1";"10";"1";"1";"1";"1";"[12,19,28,33,38]";"1";"0";"1"
"111";"23";"16";"1";"19";"1";"1";"1";"1";"[10,26,27,39]";"1";"0";"1"
"112";"40";"16";"1";"38";"1";"1";"1";"1";"[10,17]";"1";"0";"1"
"113";"39";"16";"1";"30";"1";"1";"1";"1";"[13]";"1";"0";"1"
"114";"28";"17";"1";"5";"1";"1";"1";"1";"[6,11,21,31]";"2";"0";"1"
"115";"36";"17";"1";"23";"1";"1";"1";"2";"[18,27,40]";"2";"0";"1"
"116";"4";"17";"1";"26";"1";"1";"1";"2";"[6,11,19,21,22,25,28,32,40]";"1";"0";"1"
"117";"28";"18";"1";"5";"1";"1";"1";"1";"[6,11,21,31]";"2";"0";"1"
"118";"29";"18";"1";"24";"1";"1";"1";"1";"[16,27,28,36]";"1";"0";"1"
"119";"4";"18";"1";"26";"1";"1";"1";"2";"[6,11,19,21,22,25,28,32,40]";"1";"0";"1"
"120";"29";"19";"1";"24";"1";"1";"1";"1";"[16,27,28,36]";"1";"0";"1"
"121";"26";"3";"1";"39";"1";"1";"2";"1";"[2,19,22,29]";"1";"0";"1"
"122";"26";"4";"1";"39";"1";"1";"2";"1";"[2,19,22,29]";"1";"0";"1"
"123";"11";"4";"1";"17";"1";"1";"2";"1";"[1,4,7,14,18,25,28,38]";"1";"0";"1"
"124";"17";"4";"1";"1";"1";"1";"2";"1";"[4,16,17]";"1";"0";"1"
"125";"23";"4";"1";"19";"1";"1";"2";"1";"[10,26,27,39]";"1";"0";"1"
"126";"27";"5";"1";"16";"1";"1";"2";"1";"[1,3,8,21,24]";"1";"0";"1"
"127";"40";"5";"1";"38";"1";"1";"2";"1";"[10,17]";"1";"0";"1"
"128";"11";"5";"1";"17";"1";"1";"2";"1";"[1,4,7,14,18,25,28,38]";"1";"0";"1"
"129";"17";"5";"1";"1";"1";"1";"2";"1";"[4,16,17]";"1";"0";"1"
"130";"36";"5";"1";"23";"1";"1";"2";"2";"[18,27,40]";"2";"0";"1"
"131";"23";"5";"1";"19";"1";"1";"2";"1";"[10,26,27,39]";"1";"0";"1"
"132";"27";"6";"1";"16";"1";"1";"2";"1";"[1,3,8,21,24]";"1";"0";"1"
"133";"16";"6";"1";"29";"1";"1";"2";"2";"[3,9,12,31,39]";"1";"0";"1"
"134";"10";"6";"1";"14";"1";"1";"2";"2";"[4,8,17,22,37,40]";"1";"0";"1"
"135";"40";"6";"1";"38";"1";"1";"2";"1";"[10,17]";"1";"0";"1"
"136";"31";"6";"1";"36";"1";"1";"2";"1";"[2,21,24,32]";"1";"0";"1"
"137";"20";"6";"1";"21";"1";"1";"2";"1";"[5,13,16,26,28,31,32,33,36]";"1";"0";"1"
"138";"35";"6";"1";"3";"1";"1";"2";"1";"[7,15,16,20,29,40]";"1";"0";"1"
"139";"36";"6";"1";"23";"1";"1";"2";"2";"[18,27,40]";"2";"0";"1"
"140";"2";"6";"1";"2";"1";"1";"2";"1";"[15,36,39]";"1";"0";"1"
"141";"12";"7";"1";"31";"1";"1";"2";"1";"[5,21,29]";"1";"0";"1"
"142";"19";"7";"1";"10";"1";"1";"2";"1";"[12,19,28,33,38]";"1";"0";"1"
"143";"16";"7";"1";"29";"1";"1";"2";"2";"[3,9,12,31,39]";"1";"0";"1"
"144";"28";"7";"1";"5";"1";"1";"2";"1";"[6,11,21,31]";"2";"0";"1"
"145";"10";"7";"1";"14";"1";"1";"2";"2";"[4,8,17,22,37,40]";"1";"0";"1"
"146";"14";"7";"1";"27";"1";"1";"2";"1";"[19,22,23,24,37]";"1";"0";"1"
"147";"31";"7";"1";"36";"1";"1";"2";"1";"[2,21,24,32]";"1";"0";"1"
"148";"20";"7";"1";"21";"1";"1";"2";"1";"[5,13,16,26,28,31,32,33,36]";"1";"0";"1"
"149";"35";"7";"1";"3";"1";"1";"2";"1";"[7,15,16,20,29,40]";"1";"0";"1"
"150";"2";"7";"1";"2";"1";"1";"2";"1";"[15,36,39]";"1";"0";"1"
"151";"12";"8";"1";"31";"1";"1";"2";"1";"[5,21,29]";"1";"0";"1"
"152";"19";"8";"1";"10";"1";"1";"2";"1";"[12,19,28,33,38]";"1";"0";"1"
"153";"18";"8";"1";"37";"1";"1";"2";"1";"[14,27,33]";"1";"0";"1"
"154";"28";"8";"1";"5";"1";"1";"2";"1";"[6,11,21,31]";"2";"0";"1"
"155";"14";"8";"1";"27";"1";"1";"2";"1";"[19,22,23,24,37]";"1";"0";"1"
"156";"6";"8";"1";"8";"1";"1";"2";"1";"[7,14,16]";"1";"0";"1"
"157";"21";"8";"1";"11";"1";"1";"2";"2";"[5,15,26,35]";"2";"0";"1"
"158";"18";"9";"1";"37";"1";"1";"2";"1";"[14,27,33]";"1";"0";"1"
"159";"13";"9";"1";"4";"1";"1";"2";"1";"[1,14,17,25]";"1";"0";"1"
"160";"6";"9";"1";"8";"1";"1";"2";"1";"[7,14,16]";"1";"0";"1"
"161";"21";"9";"1";"11";"1";"1";"2";"2";"[5,15,26,35]";"2";"0";"1"
"162";"32";"10";"1";"35";"1";"1";"2";"2";"[9,11]";"2";"0";"1"
"163";"9";"10";"1";"9";"1";"1";"2";"2";"[29,35]";"2";"0";"1"
"164";"38";"10";"1";"32";"1";"1";"2";"2";"[6,21,26,33,36]";"1";"0";"1"
"165";"13";"10";"1";"4";"1";"1";"2";"1";"[1,14,17,25]";"1";"0";"1"
"166";"32";"11";"1";"35";"1";"1";"2";"2";"[9,11]";"2";"0";"1"
"167";"38";"11";"1";"32";"1";"1";"2";"2";"[6,21,26,33,36]";"1";"0";"1"
"168";"9";"11";"1";"9";"1";"1";"2";"2";"[29,35]";"2";"0";"1"
"169";"8";"12";"1";"15";"1";"1";"2";"1";"[2,3,11,25]";"1";"0";"1"
"170";"22";"12";"1";"34";"1";"1";"2";"2";"[28]";"2";"0";"1"
"171";"1";"13";"1";"7";"1";"1";"2";"2";"[3,8,17,20]";"2";"0";"1"
"172";"33";"13";"1";"28";"1";"1";"2";"1";"[10,17,21,24,26,34]";"2";"0";"1"
"173";"24";"13";"1";"25";"1";"1";"2";"2";"[4,15,17,20,26]";"1";"0";"1"
"174";"8";"13";"1";"15";"1";"1";"2";"1";"[2,3,11,25]";"1";"0";"1"
"175";"22";"13";"1";"34";"1";"1";"2";"2";"[28]";"2";"0";"1"
"176";"34";"14";"1";"13";"1";"1";"2";"2";"[21,30]";"1";"0";"1"
"177";"1";"14";"1";"7";"1";"1";"2";"2";"[3,8,17,20]";"2";"0";"1"
"178";"33";"14";"1";"28";"1";"1";"2";"1";"[10,17,21,24,26,34]";"2";"0";"1"
"179";"15";"14";"1";"12";"1";"1";"2";"1";"[10,29]";"2";"0";"1"
"180";"24";"14";"1";"25";"1";"1";"2";"2";"[4,15,17,20,26]";"1";"0";"1"
"181";"34";"15";"1";"13";"1";"1";"2";"2";"[21,30]";"1";"0";"1"
"182";"3";"15";"1";"22";"1";"1";"2";"1";"[14,26,27,39]";"1";"0";"1"
"183";"15";"15";"1";"12";"1";"1";"2";"1";"[10,29]";"2";"0";"1"
"184";"7";"15";"1";"6";"1";"1";"2";"1";"[5,26,32]";"1";"0";"1"
"185";"4";"16";"1";"26";"1";"1";"2";"2";"[6,11,19,21,22,25,28,32,40]";"2";"0";"1"
"186";"3";"16";"1";"22";"1";"1";"2";"1";"[14,26,27,39]";"1";"0";"1"
"187";"7";"16";"1";"6";"1";"1";"2";"1";"[5,26,32]";"1";"0";"1"
"188";"4";"17";"1";"26";"1";"1";"2";"2";"[6,11,19,21,22,25,28,32,40]";"2";"0";"1"
"189";"37";"17";"1";"18";"1";"1";"2";"1";"[17,23]";"1";"0";"1"
"190";"5";"17";"1";"40";"1";"1";"2";"1";"[3,14,23,26]";"1";"0";"1"
"191";"30";"17";"1";"33";"1";"1";"2";"1";"[10,21,32,37]";"1";"0";"1"
"192";"37";"18";"1";"18";"1";"1";"2";"1";"[17,23]";"1";"0";"1"
"193";"5";"18";"1";"40";"1";"1";"2";"1";"[3,14,23,26]";"1";"0";"1"
"194";"30";"18";"1";"33";"1";"1";"2";"1";"[10,21,32,37]";"1";"0";"1"
"195";"29";"19";"1";"24";"1";"1";"2";"1";"[16,27,28,36]";"1";"0";"1"
"196";"29";"20";"1";"24";"1";"1";"2";"1";"[16,27,28,36]";"1";"0";"1"
"197";"39";"20";"1";"30";"1";"1";"2";"1";"[13]";"2";"0";"1"
"198";"39";"21";"1";"30";"1";"1";"2";"1";"[13]";"2";"0";"1"
"199";"25";"30";"1";"20";"1";"1";"2";"1";"[3,7,25]";"0";"0";"1"
"200";"0";"30";"1";"20";"1";"1";"2";"1";"[3,7,25]";"1";"0";"0"
"201";"40";"3";"1";"38";"1";"1";"3";"1";"[10,17]";"1";"0";"1"
"202";"13";"3";"1";"4";"1";"1";"3";"1";"[1,14,17,25]";"1";"0";"1"
"203";"26";"3";"1";"39";"1";"1";"3";"1";"[2,19,22,29]";"1";"0";"1"
"204";"27";"3";"1";"16";"1";"1";"3";"1";"[1,3,8,21,24]";"1";"0";"1"
"205";"11";"3";"1";"17";"1";"1";"3";"1";"[1,4,7,14,18,25,28,38]";"1";"0";"1"
"206";"40";"4";"1";"38";"1";"1";"3";"1";"[10,17]";"1";"0";"1"
"207";"13";"4";"1";"4";"1";"1";"3";"1";"[1,14,17,25]";"1";"0";"1"
"208";"26";"4";"1";"39";"1";"1";"3";"1";"[2,19,22,29]";"1";"0";"1"
"209";"27";"4";"1";"16";"1";"1";"3";"1";"[1,3,8,21,24]";"1";"0";"1"
"210";"11";"4";"1";"17";"1";"1";"3";"1";"[1,4,7,14,18,25,28,38]";"1";"0";"1"
"211";"2";"5";"1";"2";"1";"1";"3";"1";"[15,36,39]";"1";"0";"1"
"212";"8";"5";"1";"15";"1";"1";"3";"1";"[2,3,11,25]";"1";"0";"1"
"213";"17";"5";"1";"1";"1";"1";"3";"1";"[4,16,17]";"2";"0";"1"
"214";"15";"6";"1";"12";"1";"1";"3";"1";"[10,29]";"1";"0";"1"
"215";"23";"6";"1";"19";"1";"1";"3";"1";"[10,26,27,39]";"1";"0";"1"
"216";"12";"6";"1";"31";"1";"1";"3";"1";"[5,21,29]";"1";"0";"1"
"217";"20";"6";"1";"21";"1";"1";"3";"1";"[5,13,16,26,28,31,32,33,36]";"1";"0";"1"
"218";"35";"6";"1";"3";"1";"1";"3";"1";"[7,15,16,20,29,40]";"1";"0";"1"
"219";"31";"6";"1";"36";"1";"1";"3";"1";"[2,21,24,32]";"1";"0";"1"
"220";"2";"6";"1";"2";"1";"1";"3";"1";"[15,36,39]";"1";"0";"1"
"221";"8";"6";"1";"15";"1";"1";"3";"1";"[2,3,11,25]";"1";"0";"1"
"222";"17";"6";"1";"1";"1";"1";"3";"1";"[4,16,17]";"2";"0";"1"
"223";"16";"6";"1";"29";"1";"1";"3";"2";"[3,9,12,31,39]";"1";"0";"1"
"224";"15";"7";"1";"12";"1";"1";"3";"1";"[10,29]";"1";"0";"1"
"225";"23";"7";"1";"19";"1";"1";"3";"1";"[10,26,27,39]";"1";"0";"1"
"226";"39";"7";"1";"30";"1";"1";"3";"1";"[13]";"1";"0";"1"
"227";"12";"7";"1";"31";"1";"1";"3";"1";"[5,21,29]";"1";"0";"1"
"228";"20";"7";"1";"21";"1";"1";"3";"1";"[5,13,16,26,28,31,32,33,36]";"1";"0";"1"
"229";"35";"7";"1";"3";"1";"1";"3";"1";"[7,15,16,20,29,40]";"1";"0";"1"
"230";"31";"7";"1";"36";"1";"1";"3";"1";"[2,21,24,32]";"1";"0";"1"
"231";"14";"7";"1";"27";"1";"1";"3";"1";"[19,22,23,24,37]";"1";"0";"1"
"232";"30";"7";"1";"33";"1";"1";"3";"1";"[10,21,32,37]";"1";"0";"1"
"233";"4";"7";"1";"26";"1";"1";"3";"2";"[6,11,19,21,22,25,28,32,40]";"2";"0";"1"
"234";"16";"8";"1";"29";"1";"1";"3";"2";"[3,9,12,31,39]";"1";"0";"1"
"235";"21";"8";"1";"11";"1";"1";"3";"2";"[5,15,26,35]";"2";"0";"1"
"236";"3";"8";"1";"22";"1";"1";"3";"1";"[14,26,27,39]";"1";"0";"1"
"237";"37";"8";"1";"18";"1";"1";"3";"1";"[17,23]";"1";"0";"1"
"238";"39";"8";"1";"30";"1";"1";"3";"1";"[13]";"1";"0";"1"
"239";"10";"8";"1";"14";"1";"1";"3";"2";"[4,8,17,22,37,40]";"1";"0";"1"
"240";"32";"8";"1";"35";"1";"1";"3";"2";"[9,11]";"2";"0";"1"
"241";"29";"8";"1";"24";"1";"1";"3";"1";"[16,27,28,36]";"0";"1";"1"
"242";"18";"8";"1";"37";"1";"1";"3";"1";"[14,27,33]";"1";"0";"1"
"243";"14";"8";"1";"27";"1";"1";"3";"1";"[19,22,23,24,37]";"1";"0";"1"
"244";"30";"8";"1";"33";"1";"1";"3";"1";"[10,21,32,37]";"1";"0";"1"
"245";"4";"8";"1";"26";"1";"1";"3";"2";"[6,11,19,21,22,25,28,32,40]";"2";"0";"1"
"246";"33";"8";"1";"28";"1";"1";"3";"1";"[10,17,21,24,26,34]";"2";"0";"1"
"247";"21";"9";"1";"11";"1";"1";"3";"2";"[5,15,26,35]";"2";"0";"1"
"248";"3";"9";"1";"22";"1";"1";"3";"1";"[14,26,27,39]";"1";"0";"1"
"249";"37";"9";"1";"18";"1";"1";"3";"1";"[17,23]";"1";"0";"1"
"250";"10";"9";"1";"14";"1";"1";"3";"2";"[4,8,17,22,37,40]";"1";"0";"1"
"251";"32";"9";"1";"35";"1";"1";"3";"2";"[9,11]";"2";"0";"1"
"252";"18";"9";"1";"37";"1";"1";"3";"1";"[14,27,33]";"1";"0";"1"
"253";"19";"9";"1";"10";"1";"1";"3";"1";"[12,19,28,33,38]";"1";"0";"1"
"254";"33";"9";"1";"28";"1";"1";"3";"1";"[10,17,21,24,26,34]";"2";"0";"1"
"255";"24";"9";"1";"25";"1";"1";"3";"2";"[4,15,17,20,26]";"1";"0";"1"
"256";"29";"9";"1";"24";"1";"1";"3";"1";"[16,27,28,36]";"0";"2";"1"
"257";"6";"10";"1";"8";"1";"1";"3";"1";"[7,14,16]";"1";"0";"1"
"258";"19";"10";"1";"10";"1";"1";"3";"1";"[12,19,28,33,38]";"1";"0";"1"
"259";"24";"10";"1";"25";"1";"1";"3";"2";"[4,15,17,20,26]";"1";"0";"1"
"260";"6";"11";"1";"8";"1";"1";"3";"1";"[7,14,16]";"1";"0";"1"
"261";"22";"11";"1";"34";"1";"1";"3";"2";"[28]";"2";"0";"1"
"262";"7";"11";"1";"6";"1";"1";"3";"1";"[5,26,32]";"1";"0";"1"
"263";"38";"12";"1";"32";"1";"1";"3";"2";"[6,21,26,33,36]";"1";"0";"1"
"264";"22";"12";"1";"34";"1";"1";"3";"2";"[28]";"2";"0";"1"
"265";"7";"12";"1";"6";"1";"1";"3";"1";"[5,26,32]";"1";"0";"1"
"266";"38";"13";"1";"32";"1";"1";"3";"2";"[6,21,26,33,36]";"1";"0";"1"
"267";"36";"14";"1";"23";"1";"1";"3";"2";"[18,27,40]";"2";"0";"1"
"268";"1";"15";"1";"7";"1";"1";"3";"2";"[3,8,17,20]";"2";"0";"1"
"269";"36";"15";"1";"23";"1";"1";"3";"2";"[18,27,40]";"2";"0";"1"
"270";"29";"16";"1";"24";"1";"1";"3";"1";"[16,27,28,36]";"1";"2";"1"
"271";"1";"16";"1";"7";"1";"1";"3";"2";"[3,8,17,20]";"2";"0";"1"
"272";"34";"17";"1";"13";"1";"1";"3";"2";"[21,30]";"1";"0";"1"
"273";"5";"17";"1";"40";"1";"1";"3";"1";"[3,14,23,26]";"1";"0";"1"
"274";"29";"17";"1";"24";"1";"1";"3";"1";"[16,27,28,36]";"1";"2";"1"
"275";"34";"18";"1";"13";"1";"1";"3";"2";"[21,30]";"1";"0";"1"
"276";"5";"18";"1";"40";"1";"1";"3";"1";"[3,14,23,26]";"1";"0";"1"
"277";"28";"20";"1";"5";"1";"1";"3";"1";"[6,11,21,31]";"2";"0";"1"
"278";"9";"20";"1";"9";"1";"1";"3";"2";"[29,35]";"2";"0";"1"
"279";"28";"21";"1";"5";"1";"1";"3";"1";"[6,11,21,31]";"2";"0";"1"
"280";"9";"21";"1";"9";"1";"1";"3";"2";"[29,35]";"2";"0";"1"
"281";"25";"31";"1";"20";"1";"1";"3";"1";"[3,7,25]";"0";"0";"1"
"282";"0";"30";"1";"20";"1";"1";"3";"1";"[3,7,25]";"1";"0";"0"
"283";"16";"3";"1";"29";"1";"1";"4";"2";"[3,9,12,31,39]";"1";"0";"1"
"284";"26";"3";"1";"39";"1";"1";"4";"1";"[2,19,22,29]";"1";"0";"1"
"285";"23";"3";"1";"19";"1";"1";"4";"1";"[10,26,27,39]";"1";"0";"1"
"286";"19";"3";"1";"10";"1";"1";"4";"1";"[12,19,28,33,38]";"1";"0";"1"
"287";"16";"4";"1";"29";"1";"1";"4";"2";"[3,9,12,31,39]";"1";"0";"1"
"288";"26";"4";"1";"39";"1";"1";"4";"1";"[2,19,22,29]";"1";"0";"1"
"289";"2";"4";"1";"2";"1";"1";"4";"1";"[15,36,39]";"0";"4";"1"
"290";"11";"4";"1";"17";"1";"1";"4";"1";"[1,4,7,14,18,25,28,38]";"1";"0";"1"
"291";"23";"4";"1";"19";"1";"1";"4";"1";"[10,26,27,39]";"1";"0";"1"
"292";"3";"4";"1";"22";"1";"1";"4";"1";"[14,26,27,39]";"1";"0";"1"
"293";"19";"4";"1";"10";"1";"1";"4";"1";"[12,19,28,33,38]";"1";"0";"1"
"294";"32";"5";"1";"35";"1";"1";"4";"2";"[9,11]";"2";"0";"1"
"295";"40";"5";"1";"38";"1";"1";"4";"1";"[10,17]";"1";"0";"1"
"296";"13";"5";"1";"4";"1";"1";"4";"1";"[1,14,17,25]";"1";"0";"1"
"297";"11";"5";"1";"17";"1";"1";"4";"1";"[1,4,7,14,18,25,28,38]";"1";"0";"1"
"298";"27";"5";"1";"16";"1";"1";"4";"1";"[1,3,8,21,24]";"1";"0";"1"
"299";"7";"5";"1";"6";"1";"1";"4";"1";"[5,26,32]";"1";"0";"1"
"300";"2";"5";"1";"2";"1";"1";"4";"1";"[15,36,39]";"1";"4";"1"
"301";"3";"5";"1";"22";"1";"1";"4";"1";"[14,26,27,39]";"1";"0";"1"
"302";"10";"5";"1";"14";"1";"1";"4";"2";"[4,8,17,22,37,40]";"1";"0";"1"
"303";"34";"5";"1";"13";"1";"1";"4";"2";"[21,30]";"1";"0";"1"
"304";"32";"6";"1";"35";"1";"1";"4";"2";"[9,11]";"2";"0";"1"
"305";"40";"6";"1";"38";"1";"1";"4";"1";"[10,17]";"1";"0";"1"
"306";"13";"6";"1";"4";"1";"1";"4";"1";"[1,14,17,25]";"1";"0";"1"
"307";"27";"6";"1";"16";"1";"1";"4";"1";"[1,3,8,21,24]";"1";"0";"1"
"308";"37";"6";"1";"18";"1";"1";"4";"1";"[17,23]";"1";"0";"1"
"309";"7";"6";"1";"6";"1";"1";"4";"1";"[5,26,32]";"1";"0";"1"
"310";"2";"6";"1";"2";"1";"1";"4";"1";"[15,36,39]";"1";"4";"1"
"311";"38";"6";"1";"32";"1";"1";"4";"2";"[6,21,26,33,36]";"1";"0";"1"
"312";"10";"6";"1";"14";"1";"1";"4";"2";"[4,8,17,22,37,40]";"1";"0";"1"
"313";"34";"7";"1";"13";"1";"1";"4";"2";"[21,30]";"1";"0";"1"
"314";"17";"7";"1";"1";"1";"1";"4";"1";"[4,16,17]";"1";"0";"1"
"315";"30";"7";"1";"33";"1";"1";"4";"1";"[10,21,32,37]";"1";"0";"1"
"316";"15";"7";"1";"12";"1";"1";"4";"1";"[10,29]";"1";"0";"1"
"317";"21";"7";"1";"11";"1";"1";"4";"2";"[5,15,26,35]";"2";"0";"1"
"318";"37";"7";"1";"18";"1";"1";"4";"1";"[17,23]";"1";"0";"1"
"319";"38";"7";"1";"32";"1";"1";"4";"2";"[6,21,26,33,36]";"1";"0";"1"
"320";"17";"8";"1";"1";"1";"1";"4";"1";"[4,16,17]";"1";"0";"1"
"321";"30";"8";"1";"33";"1";"1";"4";"1";"[10,21,32,37]";"1";"0";"1"
"322";"15";"8";"1";"12";"1";"1";"4";"1";"[10,29]";"1";"0";"1"
"323";"31";"8";"1";"36";"1";"1";"4";"1";"[2,21,24,32]";"1";"0";"1"
"324";"21";"8";"1";"11";"1";"1";"4";"2";"[5,15,26,35]";"2";"0";"1"
"325";"14";"8";"1";"27";"1";"1";"4";"1";"[19,22,23,24,37]";"1";"0";"1"
"326";"35";"9";"1";"3";"1";"1";"4";"1";"[7,15,16,20,29,40]";"1";"0";"1"
"327";"28";"9";"1";"5";"1";"1";"4";"1";"[6,11,21,31]";"2";"0";"1"
"328";"31";"9";"1";"36";"1";"1";"4";"1";"[2,21,24,32]";"1";"0";"1"
"329";"29";"9";"1";"24";"1";"1";"4";"1";"[16,27,28,36]";"2";"0";"1"
"330";"39";"9";"1";"30";"1";"1";"4";"1";"[13]";"1";"0";"1"
"331";"14";"9";"1";"27";"1";"1";"4";"1";"[19,22,23,24,37]";"1";"0";"1"
"332";"35";"10";"1";"3";"1";"1";"4";"1";"[7,15,16,20,29,40]";"1";"0";"1"
"333";"28";"10";"1";"5";"1";"1";"4";"1";"[6,11,21,31]";"2";"0";"1"
"334";"29";"10";"1";"24";"1";"1";"4";"1";"[16,27,28,36]";"2";"0";"1"
"335";"6";"10";"1";"8";"1";"1";"4";"1";"[7,14,16]";"1";"0";"1"
"336";"5";"10";"1";"40";"1";"1";"4";"1";"[3,14,23,26]";"2";"0";"1"
"337";"39";"10";"1";"30";"1";"1";"4";"1";"[13]";"1";"0";"1"
"338";"6";"11";"1";"8";"1";"1";"4";"1";"[7,14,16]";"1";"0";"1"
"339";"5";"11";"1";"40";"1";"1";"4";"1";"[3,14,23,26]";"2";"0";"1"
"340";"12";"12";"1";"31";"1";"1";"4";"1";"[5,21,29]";"1";"0";"1"
"341";"12";"13";"1";"31";"1";"1";"4";"1";"[5,21,29]";"1";"0";"1"
"342";"33";"14";"1";"28";"1";"1";"4";"1";"[10,17,21,24,26,34]";"1";"0";"1"
"343";"8";"14";"1";"15";"1";"1";"4";"1";"[2,3,11,25]";"1";"0";"1"
"344";"22";"14";"1";"34";"1";"1";"4";"2";"[28]";"2";"0";"1"
"345";"20";"14";"1";"21";"1";"1";"4";"1";"[5,13,16,26,28,31,32,33,36]";"1";"0";"1"
"346";"4";"15";"1";"26";"1";"1";"4";"2";"[6,11,19,21,22,25,28,32,40]";"2";"0";"1"
"347";"9";"15";"1";"9";"1";"1";"4";"2";"[29,35]";"1";"0";"1"
"348";"33";"15";"1";"28";"1";"1";"4";"1";"[10,17,21,24,26,34]";"1";"0";"1"
"349";"8";"15";"1";"15";"1";"1";"4";"1";"[2,3,11,25]";"1";"0";"1"
"350";"22";"15";"1";"34";"1";"1";"4";"2";"[28]";"2";"0";"1"
"351";"20";"15";"1";"21";"1";"1";"4";"1";"[5,13,16,26,28,31,32,33,36]";"1";"0";"1"
"352";"4";"16";"1";"26";"1";"1";"4";"2";"[6,11,19,21,22,25,28,32,40]";"2";"0";"1"
"353";"9";"16";"1";"9";"1";"1";"4";"2";"[29,35]";"1";"0";"1"
"354";"18";"17";"1";"37";"1";"1";"4";"1";"[14,27,33]";"1";"0";"1"
"355";"24";"17";"1";"25";"1";"1";"4";"2";"[4,15,17,20,26]";"1";"0";"1"
"356";"1";"18";"1";"7";"1";"1";"4";"2";"[3,8,17,20]";"2";"0";"1"
"357";"18";"18";"1";"37";"1";"1";"4";"1";"[14,27,33]";"1";"0";"1"
"358";"24";"19";"1";"25";"1";"1";"4";"2";"[4,15,17,20,26]";"1";"0";"1"
"359";"1";"19";"1";"7";"1";"1";"4";"2";"[3,8,17,20]";"2";"0";"1"
"360";"36";"21";"1";"23";"1";"1";"4";"2";"[18,27,40]";"2";"0";"1"
"361";"36";"22";"1";"23";"1";"1";"4";"2";"[18,27,40]";"2";"0";"1"
"362";"25";"23";"1";"20";"1";"1";"4";"1";"[3,7,25]";"1";"0";"1"
"363";"25";"24";"1";"20";"1";"1";"4";"1";"[3,7,25]";"1";"0";"1"
"364";"13";"1";"1";"4";"1";"1";"5";"1";"[1,14,17,25]";"1";"0";"1"
"365";"19";"1";"1";"10";"1";"1";"5";"1";"[12,19,28,33,38]";"1";"0";"1"
"366";"30";"2";"1";"33";"1";"1";"5";"1";"[10,21,32,37]";"1";"0";"1"
"367";"27";"2";"1";"16";"1";"1";"5";"1";"[1,3,8,21,24]";"1";"0";"1"
"368";"11";"2";"1";"17";"1";"1";"5";"1";"[1,4,7,14,18,25,28,38]";"1";"0";"1"
"369";"15";"2";"1";"12";"1";"1";"5";"1";"[10,29]";"1";"0";"1"
"370";"26";"2";"1";"39";"1";"1";"5";"1";"[2,19,22,29]";"1";"0";"1"
"371";"23";"2";"1";"19";"1";"1";"5";"1";"[10,26,27,39]";"1";"0";"1"
"372";"2";"2";"1";"2";"1";"1";"5";"1";"[15,36,39]";"1";"0";"1"
"373";"16";"2";"1";"29";"1";"1";"5";"2";"[3,9,12,31,39]";"1";"0";"1"
"374";"40";"2";"1";"38";"1";"1";"5";"1";"[10,17]";"1";"0";"1"
"375";"13";"2";"1";"4";"1";"1";"5";"1";"[1,14,17,25]";"1";"0";"1"
"376";"19";"2";"1";"10";"1";"1";"5";"1";"[12,19,28,33,38]";"1";"0";"1"
"377";"30";"3";"1";"33";"1";"1";"5";"1";"[10,21,32,37]";"1";"0";"1"
"378";"27";"3";"1";"16";"1";"1";"5";"1";"[1,3,8,21,24]";"1";"0";"1"
"379";"11";"3";"1";"17";"1";"1";"5";"1";"[1,4,7,14,18,25,28,38]";"1";"0";"1"
"380";"15";"3";"1";"12";"1";"1";"5";"1";"[10,29]";"1";"0";"1"
"381";"26";"3";"1";"39";"1";"1";"5";"1";"[2,19,22,29]";"1";"0";"1"
"382";"23";"3";"1";"19";"1";"1";"5";"1";"[10,26,27,39]";"1";"0";"1"
"383";"2";"3";"1";"2";"1";"1";"5";"1";"[15,36,39]";"1";"0";"1"
"384";"16";"3";"1";"29";"1";"1";"5";"2";"[3,9,12,31,39]";"1";"0";"1"
"385";"40";"3";"1";"38";"1";"1";"5";"1";"[10,17]";"1";"0";"1"
"386";"31";"3";"1";"36";"1";"1";"5";"1";"[2,21,24,32]";"1";"0";"1"
"387";"31";"4";"1";"36";"1";"1";"5";"1";"[2,21,24,32]";"1";"0";"1"
"388";"3";"4";"1";"22";"1";"1";"5";"1";"[14,26,27,39]";"1";"0";"1"
"389";"9";"4";"1";"9";"1";"1";"5";"2";"[29,35]";"1";"0";"1"
"390";"6";"5";"1";"8";"1";"1";"5";"1";"[7,14,16]";"1";"0";"1"
"391";"3";"5";"1";"22";"1";"1";"5";"1";"[14,26,27,39]";"1";"0";"1"
"392";"17";"5";"1";"1";"1";"1";"5";"1";"[4,16,17]";"2";"0";"1"
"393";"9";"5";"1";"9";"1";"1";"5";"2";"[29,35]";"1";"0";"1"
"394";"6";"6";"1";"8";"1";"1";"5";"1";"[7,14,16]";"1";"0";"1"
"395";"37";"6";"1";"18";"1";"1";"5";"1";"[17,23]";"1";"0";"1"
"396";"17";"6";"1";"1";"1";"1";"5";"1";"[4,16,17]";"2";"0";"1"
"397";"39";"7";"1";"30";"1";"1";"5";"1";"[13]";"1";"0";"1"
"398";"37";"7";"1";"18";"1";"1";"5";"1";"[17,23]";"1";"0";"1"
"399";"8";"7";"1";"15";"1";"1";"5";"1";"[2,3,11,25]";"2";"0";"1"
"400";"38";"7";"1";"32";"1";"1";"5";"2";"[6,21,26,33,36]";"1";"0";"1"
"401";"7";"7";"1";"6";"1";"1";"5";"1";"[5,26,32]";"2";"0";"1"
"402";"39";"8";"1";"30";"1";"1";"5";"1";"[13]";"1";"0";"1"
"403";"34";"8";"1";"13";"1";"1";"5";"2";"[21,30]";"1";"0";"1"
"404";"38";"8";"1";"32";"1";"1";"5";"2";"[6,21,26,33,36]";"1";"0";"1"
"405";"8";"8";"1";"15";"1";"1";"5";"1";"[2,3,11,25]";"2";"0";"1"
"406";"12";"8";"1";"31";"1";"1";"5";"1";"[5,21,29]";"1";"0";"1"
"407";"7";"8";"1";"6";"1";"1";"5";"1";"[5,26,32]";"2";"0";"1"
"408";"34";"9";"1";"13";"1";"1";"5";"2";"[21,30]";"1";"0";"1"
"409";"12";"9";"1";"31";"1";"1";"5";"1";"[5,21,29]";"1";"0";"1"
"410";"21";"10";"1";"11";"1";"1";"5";"2";"[5,15,26,35]";"2";"0";"1"
"411";"35";"11";"1";"3";"1";"1";"5";"1";"[7,15,16,20,29,40]";"1";"0";"1"
"412";"21";"11";"1";"11";"1";"1";"5";"2";"[5,15,26,35]";"2";"0";"1"
"413";"4";"11";"1";"26";"1";"1";"5";"2";"[6,11,19,21,22,25,28,32,40]";"2";"0";"1"
"414";"18";"11";"1";"37";"1";"1";"5";"1";"[14,27,33]";"1";"0";"1"
"415";"35";"12";"1";"3";"1";"1";"5";"1";"[7,15,16,20,29,40]";"1";"0";"1"
"416";"33";"12";"1";"28";"1";"1";"5";"1";"[10,17,21,24,26,34]";"1";"0";"1"
"417";"4";"12";"1";"26";"1";"1";"5";"2";"[6,11,19,21,22,25,28,32,40]";"2";"0";"1"
"418";"18";"12";"1";"37";"1";"1";"5";"1";"[14,27,33]";"1";"0";"1"
"419";"24";"13";"1";"25";"1";"1";"5";"2";"[4,15,17,20,26]";"1";"0";"1"
"420";"32";"13";"1";"35";"1";"1";"5";"2";"[9,11]";"1";"0";"1"
"421";"33";"13";"1";"28";"1";"1";"5";"1";"[10,17,21,24,26,34]";"1";"0";"1"
"422";"10";"13";"1";"14";"1";"1";"5";"2";"[4,8,17,22,37,40]";"1";"0";"1"
"423";"20";"14";"1";"21";"1";"1";"5";"1";"[5,13,16,26,28,31,32,33,36]";"1";"0";"1"
"424";"24";"14";"1";"25";"1";"1";"5";"2";"[4,15,17,20,26]";"1";"0";"1"
"425";"32";"14";"1";"35";"1";"1";"5";"2";"[9,11]";"1";"0";"1"
"426";"10";"14";"1";"14";"1";"1";"5";"2";"[4,8,17,22,37,40]";"1";"0";"1"
"427";"28";"14";"1";"5";"1";"1";"5";"1";"[6,11,21,31]";"2";"0";"1"
"428";"20";"15";"1";"21";"1";"1";"5";"1";"[5,13,16,26,28,31,32,33,36]";"1";"0";"1"
"429";"28";"15";"1";"5";"1";"1";"5";"1";"[6,11,21,31]";"2";"0";"1"
"430";"22";"16";"1";"34";"1";"1";"5";"2";"[28]";"2";"0";"1"
"431";"22";"17";"1";"34";"1";"1";"5";"2";"[28]";"2";"0";"1"
"432";"36";"18";"1";"23";"1";"1";"5";"2";"[18,27,40]";"2";"0";"1"
"433";"29";"18";"1";"24";"1";"1";"5";"1";"[16,27,28,36]";"2";"0";"1"
"434";"36";"19";"1";"23";"1";"1";"5";"2";"[18,27,40]";"2";"0";"1"
"435";"1";"19";"1";"7";"1";"1";"5";"2";"[3,8,17,20]";"2";"0";"1"
"436";"29";"19";"1";"24";"1";"1";"5";"1";"[16,27,28,36]";"2";"0";"1"
"437";"1";"20";"1";"7";"1";"1";"5";"2";"[3,8,17,20]";"2";"0";"1"
"438";"14";"21";"1";"27";"1";"1";"5";"1";"[19,22,23,24,37]";"1";"0";"1"
"439";"5";"22";"1";"40";"1";"1";"5";"1";"[3,14,23,26]";"2";"0";"1"
"440";"14";"22";"1";"27";"1";"1";"5";"1";"[19,22,23,24,37]";"1";"0";"1"
"441";"5";"23";"1";"40";"1";"1";"5";"1";"[3,14,23,26]";"2";"0";"1"
"442";"25";"30";"1";"20";"1";"1";"5";"1";"[3,7,25]";"0";"0";"1"
"443";"0";"30";"1";"20";"1";"1";"5";"1";"[3,7,25]";"1";"0";"0"
"444";"13";"2";"1";"4";"1";"1";"6";"1";"[1,14,17,25]";"1";"0";"1"
"445";"15";"2";"1";"12";"1";"1";"6";"1";"[10,29]";"2";"0";"1"
"446";"16";"2";"1";"29";"1";"1";"6";"2";"[3,9,12,31,39]";"1";"0";"1"
"447";"11";"2";"1";"17";"1";"1";"6";"1";"[1,4,7,14,18,25,28,38]";"1";"0";"1"
"448";"31";"3";"1";"36";"1";"1";"6";"1";"[2,21,24,32]";"1";"0";"1"
"449";"13";"3";"1";"4";"1";"1";"6";"1";"[1,14,17,25]";"1";"0";"1"
"450";"15";"3";"1";"12";"1";"1";"6";"1";"[10,29]";"2";"0";"1"
"451";"16";"3";"1";"29";"1";"1";"6";"2";"[3,9,12,31,39]";"1";"0";"1"
"452";"11";"3";"1";"17";"1";"1";"6";"1";"[1,4,7,14,18,25,28,38]";"1";"0";"1"
"453";"40";"3";"1";"38";"1";"1";"6";"1";"[10,17]";"1";"0";"1"
"454";"31";"4";"1";"36";"1";"1";"6";"1";"[2,21,24,32]";"1";"0";"1"
"455";"26";"4";"1";"39";"1";"1";"6";"1";"[2,19,22,29]";"1";"0";"1"
"456";"9";"4";"1";"9";"1";"1";"6";"2";"[29,35]";"1";"0";"1"
"457";"30";"4";"1";"33";"1";"1";"6";"1";"[10,21,32,37]";"1";"0";"1"
"458";"29";"4";"1";"24";"1";"1";"6";"1";"[16,27,28,36]";"1";"0";"1"
"459";"40";"4";"1";"38";"1";"1";"6";"1";"[10,17]";"1";"0";"1"
"460";"19";"5";"1";"10";"1";"1";"6";"1";"[12,19,28,33,38]";"1";"0";"1"
"461";"27";"5";"1";"16";"1";"1";"6";"1";"[1,3,8,21,24]";"1";"0";"1"
"462";"12";"5";"1";"31";"1";"1";"6";"1";"[5,21,29]";"2";"0";"1"
"463";"26";"5";"1";"39";"1";"1";"6";"1";"[2,19,22,29]";"1";"0";"1"
"464";"23";"5";"1";"19";"1";"1";"6";"1";"[10,26,27,39]";"1";"0";"1"
"465";"9";"5";"1";"9";"1";"1";"6";"2";"[29,35]";"1";"0";"1"
"466";"30";"5";"1";"33";"1";"1";"6";"1";"[10,21,32,37]";"1";"0";"1"
"467";"29";"5";"1";"24";"1";"1";"6";"1";"[16,27,28,36]";"1";"0";"1"
"468";"19";"6";"1";"10";"1";"1";"6";"1";"[12,19,28,33,38]";"1";"0";"1"
"469";"27";"6";"1";"16";"1";"1";"6";"1";"[1,3,8,21,24]";"1";"0";"1"
"470";"12";"6";"1";"31";"1";"1";"6";"1";"[5,21,29]";"2";"0";"1"
"471";"23";"6";"1";"19";"1";"1";"6";"1";"[10,26,27,39]";"1";"0";"1"
"472";"2";"6";"1";"2";"1";"1";"6";"1";"[15,36,39]";"1";"0";"1"
"473";"6";"6";"1";"8";"1";"1";"6";"1";"[7,14,16]";"1";"0";"1"
"474";"34";"7";"1";"13";"1";"1";"6";"2";"[21,30]";"1";"0";"1"
"475";"17";"7";"1";"1";"1";"1";"6";"1";"[4,16,17]";"1";"0";"1"
"476";"39";"7";"1";"30";"1";"1";"6";"1";"[13]";"1";"0";"1"
"477";"8";"7";"1";"15";"1";"1";"6";"1";"[2,3,11,25]";"1";"0";"1"
"478";"2";"7";"1";"2";"1";"1";"6";"1";"[15,36,39]";"1";"0";"1"
"479";"6";"7";"1";"8";"1";"1";"6";"1";"[7,14,16]";"1";"0";"1"
"480";"34";"8";"1";"13";"1";"1";"6";"2";"[21,30]";"1";"0";"1"
"481";"28";"8";"1";"5";"1";"1";"6";"1";"[6,11,21,31]";"2";"0";"1"
"482";"17";"8";"1";"1";"1";"1";"6";"1";"[4,16,17]";"1";"0";"1"
"483";"39";"8";"1";"30";"1";"1";"6";"1";"[13]";"1";"0";"1"
"484";"8";"8";"1";"15";"1";"1";"6";"1";"[2,3,11,25]";"1";"0";"1"
"485";"38";"8";"1";"32";"1";"1";"6";"2";"[6,21,26,33,36]";"2";"0";"1"
"486";"3";"8";"1";"22";"1";"1";"6";"1";"[14,26,27,39]";"1";"0";"1"
"487";"21";"8";"1";"11";"1";"1";"6";"2";"[5,15,26,35]";"2";"0";"1"
"488";"7";"8";"1";"6";"1";"1";"6";"1";"[5,26,32]";"1";"0";"1"
"489";"28";"9";"1";"5";"1";"1";"6";"1";"[6,11,21,31]";"2";"0";"1"
"490";"37";"9";"1";"18";"1";"1";"6";"1";"[17,23]";"1";"0";"1"
"491";"5";"9";"1";"40";"1";"1";"6";"1";"[3,14,23,26]";"1";"0";"1"
"492";"10";"9";"1";"14";"1";"1";"6";"2";"[4,8,17,22,37,40]";"1";"0";"1"
"493";"38";"9";"1";"32";"1";"1";"6";"2";"[6,21,26,33,36]";"2";"0";"1"
"494";"3";"9";"1";"22";"1";"1";"6";"1";"[14,26,27,39]";"1";"0";"1"
"495";"21";"9";"1";"11";"1";"1";"6";"2";"[5,15,26,35]";"2";"0";"1"
"496";"7";"9";"1";"6";"1";"1";"6";"1";"[5,26,32]";"1";"0";"1"
"497";"37";"10";"1";"18";"1";"1";"6";"1";"[17,23]";"1";"0";"1"
"498";"5";"10";"1";"40";"1";"1";"6";"1";"[3,14,23,26]";"1";"0";"1"
"499";"10";"10";"1";"14";"1";"1";"6";"2";"[4,8,17,22,37,40]";"1";"0";"1"
"500";"4";"10";"1";"26";"1";"1";"6";"2";"[6,11,19,21,22,25,28,32,40]";"2";"0";"1"
"501";"24";"11";"1";"25";"1";"1";"6";"2";"[4,15,17,20,26]";"2";"0";"1"
"502";"4";"11";"1";"26";"1";"1";"6";"2";"[6,11,19,21,22,25,28,32,40]";"2";"0";"1"
"503";"35";"11";"1";"3";"1";"1";"6";"1";"[7,15,16,20,29,40]";"1";"0";"1"
"504";"22";"11";"1";"34";"1";"1";"6";"2";"[28]";"2";"0";"1"
"505";"24";"12";"1";"25";"1";"1";"6";"2";"[4,15,17,20,26]";"2";"0";"1"
"506";"35";"12";"1";"3";"1";"1";"6";"1";"[7,15,16,20,29,40]";"1";"0";"1"
"507";"22";"12";"1";"34";"1";"1";"6";"2";"[28]";"2";"0";"1"
"508";"1";"13";"1";"7";"1";"1";"6";"2";"[3,8,17,20]";"2";"0";"1"
"509";"1";"14";"1";"7";"1";"1";"6";"2";"[3,8,17,20]";"2";"0";"1"
"510";"18";"15";"1";"37";"1";"1";"6";"1";"[14,27,33]";"1";"0";"1"
"511";"18";"16";"1";"37";"1";"1";"6";"1";"[14,27,33]";"1";"0";"1"
"512";"33";"17";"1";"28";"1";"1";"6";"1";"[10,17,21,24,26,34]";"1";"0";"1"
"513";"36";"17";"1";"23";"1";"1";"6";"2";"[18,27,40]";"2";"0";"1"
"514";"33";"18";"1";"28";"1";"1";"6";"1";"[10,17,21,24,26,34]";"1";"0";"1"
"515";"36";"18";"1";"23";"1";"1";"6";"2";"[18,27,40]";"2";"0";"1"
"516";"20";"21";"1";"21";"1";"1";"6";"1";"[5,13,16,26,28,31,32,33,36]";"1";"0";"1"
"517";"20";"22";"1";"21";"1";"1";"6";"1";"[5,13,16,26,28,31,32,33,36]";"1";"0";"1"
"518";"32";"23";"1";"35";"1";"1";"6";"2";"[9,11]";"1";"0";"1"
"519";"14";"23";"1";"27";"1";"1";"6";"1";"[19,22,23,24,37]";"1";"0";"1"
"520";"32";"24";"1";"35";"1";"1";"6";"2";"[9,11]";"1";"0";"1"
"521";"14";"24";"1";"27";"1";"1";"6";"1";"[19,22,23,24,37]";"1";"0";"1"
"522";"25";"24";"1";"20";"1";"1";"6";"1";"[3,7,25]";"2";"0";"1"
"523";"25";"25";"1";"20";"1";"1";"6";"1";"[3,7,25]";"2";"0";"1"
"524";"2";"2";"1";"2";"1";"1";"7";"1";"[15,36,39]";"1";"0";"1"
"525";"40";"2";"1";"38";"1";"1";"7";"1";"[10,17]";"1";"0";"1"
"526";"27";"2";"1";"16";"1";"1";"7";"1";"[1,3,8,21,24]";"1";"0";"1"
"527";"12";"2";"1";"31";"1";"1";"7";"1";"[5,21,29]";"1";"0";"1"
"528";"28";"3";"1";"5";"1";"1";"7";"1";"[6,11,21,31]";"1";"0";"1"
"529";"10";"3";"1";"14";"1";"1";"7";"2";"[4,8,17,22,37,40]";"1";"0";"1"
"530";"13";"3";"1";"4";"1";"1";"7";"1";"[1,14,17,25]";"1";"0";"1"
"531";"34";"3";"1";"13";"1";"1";"7";"2";"[21,30]";"1";"0";"1"
"532";"2";"3";"1";"2";"1";"1";"7";"1";"[15,36,39]";"1";"0";"1"
"533";"11";"3";"1";"17";"1";"1";"7";"1";"[1,4,7,14,18,25,28,38]";"1";"0";"1"
"534";"40";"3";"1";"38";"1";"1";"7";"1";"[10,17]";"1";"0";"1"
"535";"12";"3";"1";"31";"1";"1";"7";"1";"[5,21,29]";"1";"0";"1"
"536";"27";"3";"1";"16";"1";"1";"7";"1";"[1,3,8,21,24]";"1";"0";"1"
"537";"28";"4";"1";"5";"1";"1";"7";"1";"[6,11,21,31]";"1";"0";"1"
"538";"10";"4";"1";"14";"1";"1";"7";"2";"[4,8,17,22,37,40]";"1";"0";"1"
"539";"13";"4";"1";"4";"1";"1";"7";"1";"[1,14,17,25]";"1";"0";"1"
"540";"33";"4";"1";"28";"1";"1";"7";"1";"[10,17,21,24,26,34]";"2";"0";"1"
"541";"23";"4";"1";"19";"1";"1";"7";"1";"[10,26,27,39]";"1";"0";"1"
"542";"34";"4";"1";"13";"1";"1";"7";"2";"[21,30]";"1";"0";"1"
"543";"11";"4";"1";"17";"1";"1";"7";"1";"[1,4,7,14,18,25,28,38]";"1";"0";"1"
"544";"31";"4";"1";"36";"1";"1";"7";"1";"[2,21,24,32]";"1";"0";"1"
"545";"26";"4";"1";"39";"1";"1";"7";"1";"[2,19,22,29]";"1";"0";"1"
"546";"16";"5";"1";"29";"1";"1";"7";"2";"[3,9,12,31,39]";"1";"0";"1"
"547";"33";"5";"1";"28";"1";"1";"7";"1";"[10,17,21,24,26,34]";"2";"0";"1"
"548";"19";"5";"1";"10";"1";"1";"7";"1";"[12,19,28,33,38]";"1";"0";"1"
"549";"23";"5";"1";"19";"1";"1";"7";"1";"[10,26,27,39]";"1";"0";"1"
"550";"31";"5";"1";"36";"1";"1";"7";"1";"[2,21,24,32]";"1";"0";"1"
"551";"15";"5";"1";"12";"1";"1";"7";"1";"[10,29]";"1";"0";"1"
"552";"26";"5";"1";"39";"1";"1";"7";"1";"[2,19,22,29]";"1";"0";"1"
"553";"16";"6";"1";"29";"1";"1";"7";"2";"[3,9,12,31,39]";"1";"0";"1"
"554";"19";"6";"1";"10";"1";"1";"7";"1";"[12,19,28,33,38]";"1";"0";"1"
"555";"30";"6";"1";"33";"1";"1";"7";"1";"[10,21,32,37]";"1";"0";"1"
"556";"5";"6";"1";"40";"1";"1";"7";"1";"[3,14,23,26]";"1";"0";"1"
"557";"18";"6";"1";"37";"1";"1";"7";"1";"[14,27,33]";"1";"0";"1"
"558";"15";"6";"1";"12";"1";"1";"7";"1";"[10,29]";"1";"0";"1"
"559";"30";"7";"1";"33";"1";"1";"7";"1";"[10,21,32,37]";"1";"0";"1"
"560";"17";"7";"1";"1";"1";"1";"7";"1";"[4,16,17]";"2";"0";"1"
"561";"37";"7";"1";"18";"1";"1";"7";"1";"[17,23]";"1";"0";"1"
"562";"5";"7";"1";"40";"1";"1";"7";"1";"[3,14,23,26]";"1";"0";"1"
"563";"38";"7";"1";"32";"1";"1";"7";"2";"[6,21,26,33,36]";"1";"0";"1"
"564";"18";"7";"1";"37";"1";"1";"7";"1";"[14,27,33]";"1";"0";"1"
"565";"17";"8";"1";"1";"1";"1";"7";"1";"[4,16,17]";"2";"0";"1"
"566";"39";"8";"1";"30";"1";"1";"7";"1";"[13]";"1";"0";"1"
"567";"37";"8";"1";"18";"1";"1";"7";"1";"[17,23]";"1";"0";"1"
"568";"38";"8";"1";"32";"1";"1";"7";"2";"[6,21,26,33,36]";"1";"0";"1"
"569";"9";"9";"1";"9";"1";"1";"7";"2";"[29,35]";"1";"0";"1"
"570";"21";"9";"1";"11";"1";"1";"7";"2";"[5,15,26,35]";"2";"0";"1"
"571";"14";"9";"1";"27";"1";"1";"7";"1";"[19,22,23,24,37]";"1";"0";"1"
"572";"29";"9";"1";"24";"1";"1";"7";"1";"[16,27,28,36]";"0";"5";"1"
"573";"39";"9";"1";"30";"1";"1";"7";"1";"[13]";"1";"0";"1"
"574";"7";"9";"1";"6";"1";"1";"7";"1";"[5,26,32]";"1";"0";"1"
"575";"8";"9";"1";"15";"1";"1";"7";"1";"[2,3,11,25]";"2";"0";"1"
"576";"9";"10";"1";"9";"1";"1";"7";"2";"[29,35]";"1";"0";"1"
"577";"21";"10";"1";"11";"1";"1";"7";"2";"[5,15,26,35]";"2";"0";"1"
"578";"14";"10";"1";"27";"1";"1";"7";"1";"[19,22,23,24,37]";"1";"0";"1"
"579";"3";"10";"1";"22";"1";"1";"7";"1";"[14,26,27,39]";"1";"0";"1"
"580";"7";"10";"1";"6";"1";"1";"7";"1";"[5,26,32]";"1";"0";"1"
"581";"8";"10";"1";"15";"1";"1";"7";"1";"[2,3,11,25]";"2";"0";"1"
"582";"35";"10";"1";"3";"1";"1";"7";"1";"[7,15,16,20,29,40]";"1";"0";"1"
"583";"22";"11";"1";"34";"1";"1";"7";"2";"[28]";"2";"0";"1"
"584";"3";"11";"1";"22";"1";"1";"7";"1";"[14,26,27,39]";"1";"0";"1"
"585";"29";"11";"1";"24";"1";"1";"7";"1";"[16,27,28,36]";"0";"7";"1"
"586";"24";"11";"1";"25";"1";"1";"7";"2";"[4,15,17,20,26]";"2";"0";"1"
"587";"35";"11";"1";"3";"1";"1";"7";"1";"[7,15,16,20,29,40]";"1";"0";"1"
"588";"6";"12";"1";"8";"1";"1";"7";"1";"[7,14,16]";"1";"0";"1"
"589";"22";"12";"1";"34";"1";"1";"7";"2";"[28]";"2";"0";"1"
"590";"24";"12";"1";"25";"1";"1";"7";"2";"[4,15,17,20,26]";"2";"0";"1"
"591";"4";"13";"1";"26";"1";"1";"7";"2";"[6,11,19,21,22,25,28,32,40]";"2";"0";"1"
"592";"6";"13";"1";"8";"1";"1";"7";"1";"[7,14,16]";"1";"0";"1"
"593";"4";"14";"1";"26";"1";"1";"7";"2";"[6,11,19,21,22,25,28,32,40]";"2";"0";"1"
"594";"20";"16";"1";"21";"1";"1";"7";"1";"[5,13,16,26,28,31,32,33,36]";"2";"0";"1"
"595";"29";"16";"1";"24";"1";"1";"7";"1";"[16,27,28,36]";"2";"7";"1"
"596";"20";"17";"1";"21";"1";"1";"7";"1";"[5,13,16,26,28,31,32,33,36]";"2";"0";"1"
"597";"29";"17";"1";"24";"1";"1";"7";"1";"[16,27,28,36]";"2";"7";"1"
"598";"32";"17";"1";"35";"1";"1";"7";"2";"[9,11]";"2";"0";"1"
"599";"32";"18";"1";"35";"1";"1";"7";"2";"[9,11]";"2";"0";"1"
"600";"1";"20";"1";"7";"1";"1";"7";"2";"[3,8,17,20]";"2";"0";"1"
"601";"1";"21";"1";"7";"1";"1";"7";"2";"[3,8,17,20]";"2";"0";"1"
"602";"34";"22";"1";"13";"1";"1";"7";"2";"[21,30]";"1";"5";"1"
"603";"34";"23";"1";"13";"1";"1";"7";"2";"[21,30]";"1";"6";"1"
"604";"36";"26";"1";"23";"1";"1";"7";"2";"[18,27,40]";"2";"0";"1"
"605";"36";"27";"1";"23";"1";"1";"7";"2";"[18,27,40]";"2";"0";"1"
"606";"25";"29";"1";"20";"1";"1";"7";"1";"[3,7,25]";"2";"0";"1"
"607";"25";"30";"1";"20";"1";"1";"7";"1";"[3,7,25]";"2";"0";"1"
"608";"23";"1";"1";"19";"1";"1";"8";"1";"[10,26,27,39]";"1";"0";"1"
"609";"16";"1";"1";"29";"1";"1";"8";"2";"[3,9,12,31,39]";"1";"0";"1"
"610";"13";"2";"1";"4";"1";"1";"8";"1";"[1,14,17,25]";"1";"0";"1"
"611";"23";"2";"1";"19";"1";"1";"8";"1";"[10,26,27,39]";"1";"0";"1"
"612";"10";"2";"1";"14";"1";"1";"8";"2";"[4,8,17,22,37,40]";"1";"0";"1"
"613";"11";"2";"1";"17";"1";"1";"8";"1";"[1,4,7,14,18,25,28,38]";"1";"0";"1"
"614";"37";"2";"1";"18";"1";"1";"8";"1";"[17,23]";"0";"5";"1"
"615";"16";"3";"1";"29";"1";"1";"8";"2";"[3,9,12,31,39]";"1";"0";"1"
"616";"2";"3";"1";"2";"1";"1";"8";"1";"[15,36,39]";"1";"0";"1"
"617";"40";"3";"1";"38";"1";"1";"8";"1";"[10,17]";"1";"0";"1"
"618";"19";"3";"1";"10";"1";"1";"8";"1";"[12,19,28,33,38]";"1";"0";"1"
"619";"13";"3";"1";"4";"1";"1";"8";"1";"[1,14,17,25]";"1";"0";"1"
"620";"10";"3";"1";"14";"1";"1";"8";"2";"[4,8,17,22,37,40]";"1";"0";"1"
"621";"31";"3";"1";"36";"1";"1";"8";"1";"[2,21,24,32]";"1";"0";"1"
"622";"11";"3";"1";"17";"1";"1";"8";"1";"[1,4,7,14,18,25,28,38]";"1";"0";"1"
"623";"2";"4";"1";"2";"1";"1";"8";"1";"[15,36,39]";"1";"0";"1"
"624";"37";"4";"1";"18";"1";"1";"8";"1";"[17,23]";"0";"6";"1"
"625";"40";"4";"1";"38";"1";"1";"8";"1";"[10,17]";"1";"0";"1"
"626";"19";"4";"1";"10";"1";"1";"8";"1";"[12,19,28,33,38]";"1";"0";"1"
"627";"3";"4";"1";"22";"1";"1";"8";"1";"[14,26,27,39]";"1";"0";"1"
"628";"31";"4";"1";"36";"1";"1";"8";"1";"[2,21,24,32]";"1";"0";"1"
"629";"15";"4";"1";"12";"1";"1";"8";"1";"[10,29]";"1";"0";"1"
"630";"21";"4";"1";"11";"1";"1";"8";"2";"[5,15,26,35]";"2";"0";"1"
"631";"27";"4";"1";"16";"1";"1";"8";"1";"[1,3,8,21,24]";"1";"0";"1"
"632";"10";"5";"1";"14";"1";"1";"8";"2";"[4,8,17,22,37,40]";"1";"2";"1"
"633";"1";"5";"1";"7";"1";"1";"8";"2";"[3,8,17,20]";"2";"0";"1"
"634";"35";"5";"1";"3";"1";"1";"8";"1";"[7,15,16,20,29,40]";"1";"0";"1"
"635";"37";"5";"1";"18";"1";"1";"8";"1";"[17,23]";"0";"7";"1"
"636";"3";"5";"1";"22";"1";"1";"8";"1";"[14,26,27,39]";"1";"0";"1"
"637";"39";"5";"1";"30";"1";"1";"8";"1";"[13]";"1";"0";"1"
"638";"12";"5";"1";"31";"1";"1";"8";"1";"[5,21,29]";"1";"0";"1"
"639";"15";"5";"1";"12";"1";"1";"8";"1";"[10,29]";"1";"0";"1"
"640";"21";"5";"1";"11";"1";"1";"8";"2";"[5,15,26,35]";"2";"0";"1"
"641";"27";"5";"1";"16";"1";"1";"8";"1";"[1,3,8,21,24]";"1";"0";"1"
"642";"6";"5";"1";"8";"1";"1";"8";"1";"[7,14,16]";"1";"0";"1"
"643";"34";"6";"1";"13";"1";"1";"8";"2";"[21,30]";"2";"0";"1"
"644";"1";"6";"1";"7";"1";"1";"8";"2";"[3,8,17,20]";"2";"0";"1"
"645";"35";"6";"1";"3";"1";"1";"8";"1";"[7,15,16,20,29,40]";"1";"0";"1"
"646";"10";"6";"1";"14";"1";"1";"8";"2";"[4,8,17,22,37,40]";"1";"7";"1"
"647";"39";"6";"1";"30";"1";"1";"8";"1";"[13]";"1";"0";"1"
"648";"12";"6";"1";"31";"1";"1";"8";"1";"[5,21,29]";"1";"0";"1"
"649";"6";"6";"1";"8";"1";"1";"8";"1";"[7,14,16]";"1";"0";"1"
"650";"20";"6";"1";"21";"1";"1";"8";"1";"[5,13,16,26,28,31,32,33,36]";"1";"0";"1"
"651";"28";"6";"1";"5";"1";"1";"8";"1";"[6,11,21,31]";"1";"0";"1"
"652";"34";"7";"1";"13";"1";"1";"8";"2";"[21,30]";"2";"0";"1"
"653";"17";"7";"1";"1";"1";"1";"8";"1";"[4,16,17]";"1";"0";"1"
"654";"26";"7";"1";"39";"1";"1";"8";"1";"[2,19,22,29]";"1";"0";"1"
"655";"20";"7";"1";"21";"1";"1";"8";"1";"[5,13,16,26,28,31,32,33,36]";"1";"0";"1"
"656";"28";"8";"1";"5";"1";"1";"8";"1";"[6,11,21,31]";"1";"0";"1"
"657";"17";"8";"1";"1";"1";"1";"8";"1";"[4,16,17]";"1";"0";"1"
"658";"38";"8";"1";"32";"1";"1";"8";"2";"[6,21,26,33,36]";"1";"0";"1"
"659";"26";"8";"1";"39";"1";"1";"8";"1";"[2,19,22,29]";"1";"0";"1"
"660";"8";"8";"1";"15";"1";"1";"8";"1";"[2,3,11,25]";"2";"0";"1"
"661";"4";"8";"1";"26";"1";"1";"8";"2";"[6,11,19,21,22,25,28,32,40]";"2";"0";"1"
"662";"5";"9";"1";"40";"1";"1";"8";"1";"[3,14,23,26]";"1";"0";"1"
"663";"30";"9";"1";"33";"1";"1";"8";"1";"[10,21,32,37]";"1";"0";"1"
"664";"38";"9";"1";"32";"1";"1";"8";"2";"[6,21,26,33,36]";"1";"0";"1"
"665";"7";"9";"1";"6";"1";"1";"8";"1";"[5,26,32]";"1";"0";"1"
"666";"36";"9";"1";"23";"1";"1";"8";"2";"[18,27,40]";"2";"0";"1"
"667";"8";"9";"1";"15";"1";"1";"8";"1";"[2,3,11,25]";"2";"0";"1"
"668";"4";"9";"1";"26";"1";"1";"8";"2";"[6,11,19,21,22,25,28,32,40]";"2";"0";"1"
"669";"5";"10";"1";"40";"1";"1";"8";"1";"[3,14,23,26]";"1";"0";"1"
"670";"30";"10";"1";"33";"1";"1";"8";"1";"[10,21,32,37]";"1";"0";"1"
"671";"18";"10";"1";"37";"1";"1";"8";"1";"[14,27,33]";"1";"0";"1"
"672";"7";"10";"1";"6";"1";"1";"8";"1";"[5,26,32]";"1";"0";"1"
"673";"36";"10";"1";"23";"1";"1";"8";"2";"[18,27,40]";"2";"0";"1"
"674";"33";"11";"1";"28";"1";"1";"8";"1";"[10,17,21,24,26,34]";"2";"0";"1"
"675";"18";"11";"1";"37";"1";"1";"8";"1";"[14,27,33]";"1";"0";"1"
"676";"32";"11";"1";"35";"1";"1";"8";"2";"[9,11]";"2";"0";"1"
"677";"33";"12";"1";"28";"1";"1";"8";"1";"[10,17,21,24,26,34]";"2";"0";"1"
"678";"37";"12";"1";"18";"1";"1";"8";"1";"[17,23]";"1";"7";"1"
"679";"32";"12";"1";"35";"1";"1";"8";"2";"[9,11]";"2";"0";"1"
"680";"37";"13";"1";"18";"1";"1";"8";"1";"[17,23]";"1";"7";"1"
"681";"22";"13";"1";"34";"1";"1";"8";"2";"[28]";"2";"0";"1"
"682";"22";"14";"1";"34";"1";"1";"8";"2";"[28]";"2";"0";"1"
"683";"29";"14";"1";"24";"1";"1";"8";"1";"[16,27,28,36]";"2";"0";"1"
"684";"29";"15";"1";"24";"1";"1";"8";"1";"[16,27,28,36]";"2";"0";"1"
"685";"9";"19";"1";"9";"1";"1";"8";"2";"[29,35]";"1";"0";"1"
"686";"9";"20";"1";"9";"1";"1";"8";"2";"[29,35]";"1";"0";"1"
"687";"14";"20";"1";"27";"1";"1";"8";"1";"[19,22,23,24,37]";"1";"0";"1"
"688";"24";"21";"1";"25";"1";"1";"8";"2";"[4,15,17,20,26]";"1";"0";"1"
"689";"14";"21";"1";"27";"1";"1";"8";"1";"[19,22,23,24,37]";"1";"0";"1"
"690";"24";"22";"1";"25";"1";"1";"8";"2";"[4,15,17,20,26]";"1";"0";"1"
"691";"25";"22";"1";"20";"1";"1";"8";"1";"[3,7,25]";"1";"0";"1"
"692";"25";"23";"1";"20";"1";"1";"8";"1";"[3,7,25]";"1";"0";"1"
"693";"11";"2";"1";"17";"1";"1";"9";"1";"[1,4,7,14,18,25,28,38]";"1";"0";"1"
"694";"13";"2";"1";"4";"1";"1";"9";"1";"[1,14,17,25]";"1";"0";"1"
"695";"2";"2";"1";"2";"1";"1";"9";"1";"[15,36,39]";"1";"0";"1"
"696";"27";"2";"1";"16";"1";"1";"9";"1";"[1,3,8,21,24]";"1";"0";"1"
"697";"7";"2";"1";"6";"1";"1";"9";"1";"[5,26,32]";"1";"0";"1"
"698";"34";"2";"1";"13";"1";"1";"9";"2";"[21,30]";"1";"0";"1"
"699";"26";"2";"1";"39";"1";"1";"9";"1";"[2,19,22,29]";"1";"0";"1"
"700";"11";"3";"1";"17";"1";"1";"9";"1";"[1,4,7,14,18,25,28,38]";"1";"0";"1"
"701";"40";"3";"1";"38";"1";"1";"9";"1";"[10,17]";"1";"0";"1"
"702";"13";"3";"1";"4";"1";"1";"9";"1";"[1,14,17,25]";"1";"0";"1"
"703";"16";"3";"1";"29";"1";"1";"9";"2";"[3,9,12,31,39]";"1";"0";"1"
"704";"31";"3";"1";"36";"1";"1";"9";"1";"[2,21,24,32]";"1";"0";"1"
"705";"2";"3";"1";"2";"1";"1";"9";"1";"[15,36,39]";"1";"0";"1"
"706";"27";"3";"1";"16";"1";"1";"9";"1";"[1,3,8,21,24]";"1";"0";"1"
"707";"23";"3";"1";"19";"1";"1";"9";"1";"[10,26,27,39]";"1";"0";"1"
"708";"12";"3";"1";"31";"1";"1";"9";"1";"[5,21,29]";"1";"0";"1"
"709";"7";"3";"1";"6";"1";"1";"9";"1";"[5,26,32]";"1";"0";"1"
"710";"34";"3";"1";"13";"1";"1";"9";"2";"[21,30]";"1";"0";"1"
"711";"17";"3";"1";"1";"1";"1";"9";"1";"[4,16,17]";"2";"0";"1"
"712";"19";"3";"1";"10";"1";"1";"9";"1";"[12,19,28,33,38]";"1";"0";"1"
"713";"30";"3";"1";"33";"1";"1";"9";"1";"[10,21,32,37]";"1";"0";"1"
"714";"26";"3";"1";"39";"1";"1";"9";"1";"[2,19,22,29]";"1";"0";"1"
"715";"40";"4";"1";"38";"1";"1";"9";"1";"[10,17]";"1";"0";"1"
"716";"16";"4";"1";"29";"1";"1";"9";"2";"[3,9,12,31,39]";"1";"0";"1"
"717";"31";"4";"1";"36";"1";"1";"9";"1";"[2,21,24,32]";"1";"0";"1"
"718";"23";"4";"1";"19";"1";"1";"9";"1";"[10,26,27,39]";"1";"0";"1"
"719";"12";"4";"1";"31";"1";"1";"9";"1";"[5,21,29]";"1";"0";"1"
"720";"38";"4";"1";"32";"1";"1";"9";"2";"[6,21,26,33,36]";"1";"0";"1"
"721";"10";"4";"1";"14";"1";"1";"9";"2";"[4,8,17,22,37,40]";"1";"0";"1"
"722";"28";"4";"1";"5";"1";"1";"9";"1";"[6,11,21,31]";"1";"0";"1"
"723";"33";"4";"1";"28";"1";"1";"9";"1";"[10,17,21,24,26,34]";"1";"0";"1"
"724";"1";"4";"1";"7";"1";"1";"9";"2";"[3,8,17,20]";"2";"0";"1"
"725";"17";"4";"1";"1";"1";"1";"9";"1";"[4,16,17]";"2";"0";"1"
"726";"19";"4";"1";"10";"1";"1";"9";"1";"[12,19,28,33,38]";"1";"0";"1"
"727";"30";"4";"1";"33";"1";"1";"9";"1";"[10,21,32,37]";"1";"0";"1"
"728";"15";"4";"1";"12";"1";"1";"9";"1";"[10,29]";"1";"0";"1"
"729";"6";"5";"1";"8";"1";"1";"9";"1";"[7,14,16]";"1";"0";"1"
"730";"29";"5";"1";"24";"1";"1";"9";"1";"[16,27,28,36]";"1";"0";"1"
"731";"35";"5";"1";"3";"1";"1";"9";"1";"[7,15,16,20,29,40]";"1";"0";"1"
"732";"38";"5";"1";"32";"1";"1";"9";"2";"[6,21,26,33,36]";"1";"0";"1"
"733";"10";"5";"1";"14";"1";"1";"9";"2";"[4,8,17,22,37,40]";"1";"0";"1"
"734";"28";"5";"1";"5";"1";"1";"9";"1";"[6,11,21,31]";"1";"0";"1"
"735";"33";"5";"1";"28";"1";"1";"9";"1";"[10,17,21,24,26,34]";"1";"0";"1"
"736";"5";"5";"1";"40";"1";"1";"9";"1";"[3,14,23,26]";"1";"0";"1"
"737";"1";"5";"1";"7";"1";"1";"9";"2";"[3,8,17,20]";"2";"0";"1"
"738";"15";"5";"1";"12";"1";"1";"9";"1";"[10,29]";"1";"0";"1"
"739";"6";"6";"1";"8";"1";"1";"9";"1";"[7,14,16]";"1";"0";"1"
"740";"29";"6";"1";"24";"1";"1";"9";"1";"[16,27,28,36]";"1";"0";"1"
"741";"4";"6";"1";"26";"1";"1";"9";"2";"[6,11,19,21,22,25,28,32,40]";"2";"0";"1"
"742";"35";"6";"1";"3";"1";"1";"9";"1";"[7,15,16,20,29,40]";"1";"0";"1"
"743";"8";"6";"1";"15";"1";"1";"9";"1";"[2,3,11,25]";"2";"0";"1"
"744";"39";"6";"1";"30";"1";"1";"9";"1";"[13]";"2";"0";"1"
"745";"5";"6";"1";"40";"1";"1";"9";"1";"[3,14,23,26]";"1";"0";"1"
"746";"24";"6";"1";"25";"1";"1";"9";"2";"[4,15,17,20,26]";"1";"0";"1"
"747";"7";"7";"1";"6";"1";"1";"9";"1";"[5,26,32]";"1";"7";"1"
"748";"4";"7";"1";"26";"1";"1";"9";"2";"[6,11,19,21,22,25,28,32,40]";"2";"0";"1"
"749";"8";"7";"1";"15";"1";"1";"9";"1";"[2,3,11,25]";"2";"0";"1"
"750";"39";"7";"1";"30";"1";"1";"9";"1";"[13]";"2";"0";"1"
"751";"9";"7";"1";"9";"1";"1";"9";"2";"[29,35]";"1";"0";"1"
"752";"24";"7";"1";"25";"1";"1";"9";"2";"[4,15,17,20,26]";"1";"0";"1"
"753";"7";"8";"1";"6";"1";"1";"9";"1";"[5,26,32]";"1";"6";"1"
"754";"9";"8";"1";"9";"1";"1";"9";"2";"[29,35]";"1";"0";"1"
"755";"21";"9";"1";"11";"1";"1";"9";"2";"[5,15,26,35]";"2";"0";"1"
"756";"3";"10";"1";"22";"1";"1";"9";"1";"[14,26,27,39]";"1";"0";"1"
"757";"22";"10";"1";"34";"1";"1";"9";"2";"[28]";"2";"0";"1"
"758";"21";"10";"1";"11";"1";"1";"9";"2";"[5,15,26,35]";"2";"0";"1"
"759";"7";"10";"1";"6";"1";"1";"9";"1";"[5,26,32]";"1";"1";"1"
"760";"3";"11";"1";"22";"1";"1";"9";"1";"[14,26,27,39]";"1";"0";"1"
"761";"22";"11";"1";"34";"1";"1";"9";"2";"[28]";"2";"0";"1"
"762";"36";"11";"1";"23";"1";"1";"9";"2";"[18,27,40]";"2";"0";"1"
"763";"36";"12";"1";"23";"1";"1";"9";"2";"[18,27,40]";"2";"0";"1"
"764";"32";"12";"1";"35";"1";"1";"9";"2";"[9,11]";"2";"0";"1"
"765";"37";"13";"1";"18";"1";"1";"9";"1";"[17,23]";"1";"0";"1"
"766";"18";"13";"1";"37";"1";"1";"9";"1";"[14,27,33]";"1";"0";"1"
"767";"20";"13";"1";"21";"1";"1";"9";"1";"[5,13,16,26,28,31,32,33,36]";"1";"0";"1"
"768";"32";"13";"1";"35";"1";"1";"9";"2";"[9,11]";"2";"0";"1"
"769";"37";"14";"1";"18";"1";"1";"9";"1";"[17,23]";"1";"0";"1"
"770";"18";"14";"1";"37";"1";"1";"9";"1";"[14,27,33]";"1";"0";"1"
"771";"20";"14";"1";"21";"1";"1";"9";"1";"[5,13,16,26,28,31,32,33,36]";"1";"0";"1"
"772";"25";"15";"1";"20";"1";"1";"9";"1";"[3,7,25]";"1";"0";"1"
"773";"7";"16";"1";"6";"1";"1";"9";"1";"[5,26,32]";"1";"9";"1"
"774";"25";"16";"1";"20";"1";"1";"9";"1";"[3,7,25]";"1";"0";"1"
"775";"7";"18";"1";"6";"1";"1";"9";"1";"[5,26,32]";"1";"9";"1"
"776";"14";"25";"1";"27";"1";"1";"9";"1";"[19,22,23,24,37]";"1";"0";"1"
"777";"14";"26";"1";"27";"1";"1";"9";"1";"[19,22,23,24,37]";"1";"0";"1"
"778";"16";"1";"1";"29";"1";"1";"10";"2";"[3,9,12,31,39]";"1";"0";"1"
"779";"13";"1";"1";"4";"1";"1";"10";"1";"[1,14,17,25]";"1";"0";"1"
"780";"11";"2";"1";"17";"1";"1";"10";"1";"[1,4,7,14,18,25,28,38]";"1";"0";"1"
"781";"16";"2";"1";"29";"1";"1";"10";"2";"[3,9,12,31,39]";"1";"0";"1"
"782";"27";"2";"1";"16";"1";"1";"10";"1";"[1,3,8,21,24]";"1";"0";"1"
"783";"13";"2";"1";"4";"1";"1";"10";"1";"[1,14,17,25]";"1";"0";"1"
"784";"31";"2";"1";"36";"1";"1";"10";"1";"[2,21,24,32]";"1";"0";"1"
"785";"19";"2";"1";"10";"1";"1";"10";"1";"[12,19,28,33,38]";"1";"0";"1"
"786";"40";"2";"1";"38";"1";"1";"10";"1";"[10,17]";"1";"0";"1"
"787";"2";"3";"1";"2";"1";"1";"10";"1";"[15,36,39]";"1";"0";"1"
"788";"11";"3";"1";"17";"1";"1";"10";"1";"[1,4,7,14,18,25,28,38]";"1";"0";"1"
"789";"7";"3";"1";"6";"1";"1";"10";"1";"[5,26,32]";"1";"0";"1"
"790";"10";"3";"1";"14";"1";"1";"10";"2";"[4,8,17,22,37,40]";"1";"0";"1"
"791";"26";"3";"1";"39";"1";"1";"10";"1";"[2,19,22,29]";"1";"0";"1"
"792";"38";"3";"1";"32";"1";"1";"10";"2";"[6,21,26,33,36]";"1";"0";"1"
"793";"27";"3";"1";"16";"1";"1";"10";"1";"[1,3,8,21,24]";"1";"0";"1"
"794";"5";"3";"1";"40";"1";"1";"10";"1";"[3,14,23,26]";"1";"0";"1"
"795";"31";"3";"1";"36";"1";"1";"10";"1";"[2,21,24,32]";"1";"0";"1"
"796";"19";"3";"1";"10";"1";"1";"10";"1";"[12,19,28,33,38]";"1";"0";"1"
"797";"40";"3";"1";"38";"1";"1";"10";"1";"[10,17]";"1";"0";"1"
"798";"2";"4";"1";"2";"1";"1";"10";"1";"[15,36,39]";"1";"0";"1"
"799";"23";"4";"1";"19";"1";"1";"10";"1";"[10,26,27,39]";"1";"0";"1"
"800";"21";"4";"1";"11";"1";"1";"10";"2";"[5,15,26,35]";"2";"0";"1"
"801";"7";"4";"1";"6";"1";"1";"10";"1";"[5,26,32]";"1";"0";"1"
"802";"35";"4";"1";"3";"1";"1";"10";"1";"[7,15,16,20,29,40]";"1";"0";"1"
"803";"10";"4";"1";"14";"1";"1";"10";"2";"[4,8,17,22,37,40]";"1";"0";"1"
"804";"26";"4";"1";"39";"1";"1";"10";"1";"[2,19,22,29]";"1";"0";"1"
"805";"34";"4";"1";"13";"1";"1";"10";"2";"[21,30]";"1";"0";"1"
"806";"38";"4";"1";"32";"1";"1";"10";"2";"[6,21,26,33,36]";"1";"0";"1"
"807";"5";"4";"1";"40";"1";"1";"10";"1";"[3,14,23,26]";"1";"0";"1"
"808";"3";"4";"1";"22";"1";"1";"10";"1";"[14,26,27,39]";"1";"0";"1"
"809";"6";"4";"1";"8";"1";"1";"10";"1";"[7,14,16]";"1";"0";"1"
"810";"39";"4";"1";"30";"1";"1";"10";"1";"[13]";"1";"0";"1"
"811";"23";"5";"1";"19";"1";"1";"10";"1";"[10,26,27,39]";"1";"0";"1"
"812";"21";"5";"1";"11";"1";"1";"10";"2";"[5,15,26,35]";"2";"0";"1"
"813";"17";"5";"1";"1";"1";"1";"10";"1";"[4,16,17]";"1";"0";"1"
"814";"14";"5";"1";"27";"1";"1";"10";"1";"[19,22,23,24,37]";"1";"0";"1"
"815";"35";"5";"1";"3";"1";"1";"10";"1";"[7,15,16,20,29,40]";"1";"0";"1"
"816";"34";"5";"1";"13";"1";"1";"10";"2";"[21,30]";"1";"0";"1"
"817";"3";"5";"1";"22";"1";"1";"10";"1";"[14,26,27,39]";"1";"0";"1"
"818";"6";"5";"1";"8";"1";"1";"10";"1";"[7,14,16]";"1";"0";"1"
"819";"39";"5";"1";"30";"1";"1";"10";"1";"[13]";"1";"0";"1"
"820";"17";"6";"1";"1";"1";"1";"10";"1";"[4,16,17]";"1";"0";"1"
"821";"14";"6";"1";"27";"1";"1";"10";"1";"[19,22,23,24,37]";"1";"0";"1"
"822";"8";"6";"1";"15";"1";"1";"10";"1";"[2,3,11,25]";"1";"0";"1"
"823";"20";"7";"1";"21";"1";"1";"10";"1";"[5,13,16,26,28,31,32,33,36]";"1";"0";"1"
"824";"9";"7";"1";"9";"1";"1";"10";"2";"[29,35]";"1";"0";"1"
"825";"8";"7";"1";"15";"1";"1";"10";"1";"[2,3,11,25]";"1";"0";"1"
"826";"20";"8";"1";"21";"1";"1";"10";"1";"[5,13,16,26,28,31,32,33,36]";"1";"0";"1"
"827";"9";"8";"1";"9";"1";"1";"10";"2";"[29,35]";"1";"0";"1"
"828";"15";"8";"1";"12";"1";"1";"10";"1";"[10,29]";"2";"0";"1"
"829";"28";"8";"1";"5";"1";"1";"10";"1";"[6,11,21,31]";"1";"0";"1"
"830";"1";"9";"1";"7";"1";"1";"10";"2";"[3,8,17,20]";"2";"0";"1"
"831";"15";"9";"1";"12";"1";"1";"10";"1";"[10,29]";"2";"0";"1"
"832";"28";"9";"1";"5";"1";"1";"10";"1";"[6,11,21,31]";"1";"0";"1"
"833";"1";"10";"1";"7";"1";"1";"10";"2";"[3,8,17,20]";"2";"0";"1"
"834";"18";"11";"1";"37";"1";"1";"10";"1";"[14,27,33]";"1";"0";"1"
"835";"30";"11";"1";"33";"1";"1";"10";"1";"[10,21,32,37]";"1";"0";"1"
"836";"18";"12";"1";"37";"1";"1";"10";"1";"[14,27,33]";"1";"0";"1"
"837";"36";"12";"1";"23";"1";"1";"10";"2";"[18,27,40]";"2";"0";"1"
"838";"30";"12";"1";"33";"1";"1";"10";"1";"[10,21,32,37]";"1";"0";"1"
"839";"4";"12";"1";"26";"1";"1";"10";"2";"[6,11,19,21,22,25,28,32,40]";"2";"0";"1"
"840";"22";"13";"1";"34";"1";"1";"10";"2";"[28]";"2";"0";"1"
"841";"36";"13";"1";"23";"1";"1";"10";"2";"[18,27,40]";"2";"0";"1"
"842";"4";"13";"1";"26";"1";"1";"10";"2";"[6,11,19,21,22,25,28,32,40]";"2";"0";"1"
"843";"29";"13";"1";"24";"1";"1";"10";"1";"[16,27,28,36]";"0";"8";"1"
"844";"37";"14";"1";"18";"1";"1";"10";"1";"[17,23]";"1";"0";"1"
"845";"12";"14";"1";"31";"1";"1";"10";"1";"[5,21,29]";"1";"0";"1"
"846";"22";"14";"1";"34";"1";"1";"10";"2";"[28]";"2";"0";"1"
"847";"37";"15";"1";"18";"1";"1";"10";"1";"[17,23]";"1";"0";"1"
"848";"12";"15";"1";"31";"1";"1";"10";"1";"[5,21,29]";"1";"0";"1"
"849";"29";"15";"1";"24";"1";"1";"10";"1";"[16,27,28,36]";"0";"7";"1"
"850";"29";"16";"1";"24";"1";"1";"10";"1";"[16,27,28,36]";"0";"6";"1"
"851";"29";"18";"1";"24";"1";"1";"10";"1";"[16,27,28,36]";"0";"5";"1"
"852";"24";"19";"1";"25";"1";"1";"10";"2";"[4,15,17,20,26]";"2";"0";"1"
"853";"33";"19";"1";"28";"1";"1";"10";"1";"[10,17,21,24,26,34]";"2";"0";"1"
"854";"25";"19";"1";"20";"1";"1";"10";"1";"[3,7,25]";"1";"0";"1"
"855";"24";"20";"1";"25";"1";"1";"10";"2";"[4,15,17,20,26]";"2";"0";"1"
"856";"32";"20";"1";"35";"1";"1";"10";"2";"[9,11]";"2";"0";"1"
"857";"29";"20";"1";"24";"1";"1";"10";"1";"[16,27,28,36]";"0";"9";"1"
"858";"33";"20";"1";"28";"1";"1";"10";"1";"[10,17,21,24,26,34]";"2";"0";"1"
"859";"25";"20";"1";"20";"1";"1";"10";"1";"[3,7,25]";"1";"0";"1"
"860";"32";"21";"1";"35";"1";"1";"10";"2";"[9,11]";"2";"0";"1"
"861";"29";"21";"1";"24";"1";"1";"10";"1";"[16,27,28,36]";"0";"11";"1"
"862";"29";"24";"1";"24";"1";"1";"10";"1";"[16,27,28,36]";"1";"11";"1"
"863";"29";"25";"1";"24";"1";"1";"10";"1";"[16,27,28,36]";"1";"11";"1"
"864";"40";"1";"1";"38";"1";"1";"11";"1";"[10,17]";"1";"0";"1"
"865";"13";"1";"1";"4";"1";"1";"11";"1";"[1,14,17,25]";"1";"0";"1"
"866";"17";"1";"1";"1";"1";"1";"11";"1";"[4,16,17]";"1";"0";"1"
"867";"27";"2";"1";"16";"1";"1";"11";"1";"[1,3,8,21,24]";"1";"0";"1"
"868";"31";"2";"1";"36";"1";"1";"11";"1";"[2,21,24,32]";"1";"0";"1"
"869";"10";"2";"1";"14";"1";"1";"11";"2";"[4,8,17,22,37,40]";"1";"0";"1"
"870";"26";"2";"1";"39";"1";"1";"11";"1";"[2,19,22,29]";"1";"0";"1"
"871";"7";"2";"1";"6";"1";"1";"11";"1";"[5,26,32]";"1";"0";"1"
"872";"40";"2";"1";"38";"1";"1";"11";"1";"[10,17]";"1";"0";"1"
"873";"34";"2";"1";"13";"1";"1";"11";"2";"[21,30]";"1";"0";"1"
"874";"23";"2";"1";"19";"1";"1";"11";"1";"[10,26,27,39]";"1";"0";"1"
"875";"13";"2";"1";"4";"1";"1";"11";"1";"[1,14,17,25]";"1";"0";"1"
"876";"11";"2";"1";"17";"1";"1";"11";"1";"[1,4,7,14,18,25,28,38]";"1";"0";"1"
"877";"17";"2";"1";"1";"1";"1";"11";"1";"[4,16,17]";"1";"0";"1"
"878";"27";"3";"1";"16";"1";"1";"11";"1";"[1,3,8,21,24]";"1";"0";"1"
"879";"31";"3";"1";"36";"1";"1";"11";"1";"[2,21,24,32]";"1";"0";"1"
"880";"2";"3";"1";"2";"1";"1";"11";"1";"[15,36,39]";"1";"0";"1"
"881";"10";"3";"1";"14";"1";"1";"11";"2";"[4,8,17,22,37,40]";"1";"0";"1"
"882";"38";"3";"1";"32";"1";"1";"11";"2";"[6,21,26,33,36]";"1";"0";"1"
"883";"16";"3";"1";"29";"1";"1";"11";"2";"[3,9,12,31,39]";"1";"0";"1"
"884";"39";"3";"1";"30";"1";"1";"11";"1";"[13]";"1";"0";"1"
"885";"26";"3";"1";"39";"1";"1";"11";"1";"[2,19,22,29]";"1";"0";"1"
"886";"7";"3";"1";"6";"1";"1";"11";"1";"[5,26,32]";"1";"0";"1"
"887";"6";"3";"1";"8";"1";"1";"11";"1";"[7,14,16]";"1";"0";"1"
"888";"37";"3";"1";"18";"1";"1";"11";"1";"[17,23]";"1";"0";"1"
"889";"34";"3";"1";"13";"1";"1";"11";"2";"[21,30]";"1";"0";"1"
"890";"23";"3";"1";"19";"1";"1";"11";"1";"[10,26,27,39]";"1";"0";"1"
"891";"11";"3";"1";"17";"1";"1";"11";"1";"[1,4,7,14,18,25,28,38]";"1";"0";"1"
"892";"2";"4";"1";"2";"1";"1";"11";"1";"[15,36,39]";"1";"0";"1"
"893";"12";"4";"1";"31";"1";"1";"11";"1";"[5,21,29]";"1";"0";"1"
"894";"38";"4";"1";"32";"1";"1";"11";"2";"[6,21,26,33,36]";"1";"0";"1"
"895";"16";"4";"1";"29";"1";"1";"11";"2";"[3,9,12,31,39]";"1";"0";"1"
"896";"39";"4";"1";"30";"1";"1";"11";"1";"[13]";"1";"0";"1"
"897";"6";"4";"1";"8";"1";"1";"11";"1";"[7,14,16]";"1";"0";"1"
"898";"37";"4";"1";"18";"1";"1";"11";"1";"[17,23]";"1";"0";"1"
"899";"7";"4";"1";"6";"1";"1";"11";"1";"[5,26,32]";"1";"1";"1"
"900";"14";"5";"1";"27";"1";"1";"11";"1";"[19,22,23,24,37]";"1";"0";"1"
"901";"12";"5";"1";"31";"1";"1";"11";"1";"[5,21,29]";"1";"0";"1"
"902";"3";"5";"1";"22";"1";"1";"11";"1";"[14,26,27,39]";"1";"0";"1"
"903";"28";"5";"1";"5";"1";"1";"11";"1";"[6,11,21,31]";"1";"0";"1"
"904";"29";"5";"1";"24";"1";"1";"11";"1";"[16,27,28,36]";"2";"0";"1"
"905";"5";"5";"1";"40";"1";"1";"11";"1";"[3,14,23,26]";"1";"0";"1"
"906";"9";"5";"1";"9";"1";"1";"11";"2";"[29,35]";"1";"0";"1"
"907";"19";"5";"1";"10";"1";"1";"11";"1";"[12,19,28,33,38]";"1";"0";"1"
"908";"14";"6";"1";"27";"1";"1";"11";"1";"[19,22,23,24,37]";"1";"0";"1"
"909";"30";"6";"1";"33";"1";"1";"11";"1";"[10,21,32,37]";"1";"0";"1"
"910";"3";"6";"1";"22";"1";"1";"11";"1";"[14,26,27,39]";"1";"0";"1"
"911";"24";"6";"1";"25";"1";"1";"11";"2";"[4,15,17,20,26]";"2";"0";"1"
"912";"28";"6";"1";"5";"1";"1";"11";"1";"[6,11,21,31]";"1";"0";"1"
"913";"29";"6";"1";"24";"1";"1";"11";"1";"[16,27,28,36]";"2";"0";"1"
"914";"5";"6";"1";"40";"1";"1";"11";"1";"[3,14,23,26]";"1";"0";"1"
"915";"9";"6";"1";"9";"1";"1";"11";"2";"[29,35]";"1";"0";"1"
"916";"19";"6";"1";"10";"1";"1";"11";"1";"[12,19,28,33,38]";"1";"0";"1"
"917";"15";"6";"1";"12";"1";"1";"11";"1";"[10,29]";"1";"0";"1"
"918";"7";"6";"1";"6";"1";"1";"11";"1";"[5,26,32]";"1";"2";"1"
"919";"30";"7";"1";"33";"1";"1";"11";"1";"[10,21,32,37]";"1";"0";"1"
"920";"24";"7";"1";"25";"1";"1";"11";"2";"[4,15,17,20,26]";"2";"0";"1"
"921";"15";"7";"1";"12";"1";"1";"11";"1";"[10,29]";"1";"0";"1"
"922";"4";"7";"1";"26";"1";"1";"11";"2";"[6,11,19,21,22,25,28,32,40]";"1";"0";"1"
"923";"35";"8";"1";"3";"1";"1";"11";"1";"[7,15,16,20,29,40]";"1";"0";"1"
"924";"1";"8";"1";"7";"1";"1";"11";"2";"[3,8,17,20]";"2";"0";"1"
"925";"21";"8";"1";"11";"1";"1";"11";"2";"[5,15,26,35]";"2";"0";"1"
"926";"4";"8";"1";"26";"1";"1";"11";"2";"[6,11,19,21,22,25,28,32,40]";"1";"0";"1"
"927";"22";"9";"1";"34";"1";"1";"11";"2";"[28]";"2";"0";"1"
"928";"35";"9";"1";"3";"1";"1";"11";"1";"[7,15,16,20,29,40]";"1";"0";"1"
"929";"1";"9";"1";"7";"1";"1";"11";"2";"[3,8,17,20]";"2";"0";"1"
"930";"21";"9";"1";"11";"1";"1";"11";"2";"[5,15,26,35]";"2";"0";"1"
"931";"22";"10";"1";"34";"1";"1";"11";"2";"[28]";"2";"0";"1"
"932";"8";"11";"1";"15";"1";"1";"11";"1";"[2,3,11,25]";"1";"0";"1"
"933";"18";"11";"1";"37";"1";"1";"11";"1";"[14,27,33]";"1";"0";"1"
"934";"8";"12";"1";"15";"1";"1";"11";"1";"[2,3,11,25]";"1";"0";"1"
"935";"18";"12";"1";"37";"1";"1";"11";"1";"[14,27,33]";"1";"0";"1"
"936";"25";"13";"1";"20";"1";"1";"11";"1";"[3,7,25]";"2";"0";"1"
"937";"7";"13";"1";"6";"1";"1";"11";"1";"[5,26,32]";"1";"3";"1"
"938";"36";"14";"1";"23";"1";"1";"11";"2";"[18,27,40]";"2";"0";"1"
"939";"25";"14";"1";"20";"1";"1";"11";"1";"[3,7,25]";"2";"0";"1"
"940";"36";"15";"1";"23";"1";"1";"11";"2";"[18,27,40]";"2";"0";"1"
"941";"33";"15";"1";"28";"1";"1";"11";"1";"[10,17,21,24,26,34]";"2";"0";"1"
"942";"33";"16";"1";"28";"1";"1";"11";"1";"[10,17,21,24,26,34]";"2";"0";"1"
"943";"7";"16";"1";"6";"1";"1";"11";"1";"[5,26,32]";"1";"10";"1"
"944";"7";"17";"1";"6";"1";"1";"11";"1";"[5,26,32]";"1";"11";"1"
"945";"32";"18";"1";"35";"1";"1";"11";"2";"[9,11]";"2";"0";"1"
"946";"32";"19";"1";"35";"1";"1";"11";"2";"[9,11]";"2";"0";"1"
"947";"20";"22";"1";"21";"1";"1";"11";"1";"[5,13,16,26,28,31,32,33,36]";"1";"0";"1"
"948";"20";"23";"1";"21";"1";"1";"11";"1";"[5,13,16,26,28,31,32,33,36]";"1";"0";"1"
"949";"40";"1";"1";"38";"1";"1";"12";"1";"[10,17]";"1";"0";"1"
"950";"11";"1";"1";"17";"1";"1";"12";"1";"[1,4,7,14,18,25,28,38]";"1";"0";"1"
"951";"26";"1";"1";"39";"1";"1";"12";"1";"[2,19,22,29]";"1";"0";"1"
"952";"7";"2";"1";"6";"1";"1";"12";"1";"[5,26,32]";"1";"0";"1"
"953";"17";"2";"1";"1";"1";"1";"12";"1";"[4,16,17]";"1";"0";"1"
"954";"27";"2";"1";"16";"1";"1";"12";"1";"[1,3,8,21,24]";"1";"0";"1"
"955";"2";"2";"1";"2";"1";"1";"12";"1";"[15,36,39]";"1";"0";"1"
"956";"40";"2";"1";"38";"1";"1";"12";"1";"[10,17]";"1";"0";"1"
"957";"28";"2";"1";"5";"1";"1";"12";"1";"[6,11,21,31]";"1";"0";"1"
"958";"11";"2";"1";"17";"1";"1";"12";"1";"[1,4,7,14,18,25,28,38]";"1";"0";"1"
"959";"16";"2";"1";"29";"1";"1";"12";"2";"[3,9,12,31,39]";"1";"0";"1"
"960";"29";"2";"1";"24";"1";"1";"12";"1";"[16,27,28,36]";"1";"0";"1"
"961";"30";"2";"1";"33";"1";"1";"12";"1";"[10,21,32,37]";"1";"0";"1"
"962";"5";"2";"1";"40";"1";"1";"12";"1";"[3,14,23,26]";"1";"0";"1"
"963";"26";"2";"1";"39";"1";"1";"12";"1";"[2,19,22,29]";"1";"0";"1"
"964";"38";"2";"1";"32";"1";"1";"12";"2";"[6,21,26,33,36]";"1";"0";"1"
"965";"7";"3";"1";"6";"1";"1";"12";"1";"[5,26,32]";"1";"0";"1"
"966";"13";"3";"1";"4";"1";"1";"12";"1";"[1,14,17,25]";"1";"0";"1"
"967";"31";"3";"1";"36";"1";"1";"12";"1";"[2,21,24,32]";"1";"0";"1"
"968";"17";"3";"1";"1";"1";"1";"12";"1";"[4,16,17]";"1";"0";"1"
"969";"27";"3";"1";"16";"1";"1";"12";"1";"[1,3,8,21,24]";"1";"0";"1"
"970";"15";"3";"1";"12";"1";"1";"12";"1";"[10,29]";"1";"0";"1"
"971";"34";"3";"1";"13";"1";"1";"12";"2";"[21,30]";"1";"0";"1"
"972";"37";"3";"1";"18";"1";"1";"12";"1";"[17,23]";"1";"0";"1"
"973";"2";"3";"1";"2";"1";"1";"12";"1";"[15,36,39]";"1";"0";"1"
"974";"10";"3";"1";"14";"1";"1";"12";"2";"[4,8,17,22,37,40]";"1";"0";"1"
"975";"12";"3";"1";"31";"1";"1";"12";"1";"[5,21,29]";"1";"0";"1"
"976";"39";"3";"1";"30";"1";"1";"12";"1";"[13]";"1";"0";"1"
"977";"28";"3";"1";"5";"1";"1";"12";"1";"[6,11,21,31]";"1";"0";"1"
"978";"32";"3";"1";"35";"1";"1";"12";"2";"[9,11]";"2";"0";"1"
"979";"16";"3";"1";"29";"1";"1";"12";"2";"[3,9,12,31,39]";"1";"0";"1"
"980";"29";"3";"1";"24";"1";"1";"12";"1";"[16,27,28,36]";"1";"0";"1"
"981";"30";"3";"1";"33";"1";"1";"12";"1";"[10,21,32,37]";"1";"0";"1"
"982";"5";"3";"1";"40";"1";"1";"12";"1";"[3,14,23,26]";"1";"0";"1"
"983";"38";"3";"1";"32";"1";"1";"12";"2";"[6,21,26,33,36]";"1";"0";"1"
"984";"13";"4";"1";"4";"1";"1";"12";"1";"[1,14,17,25]";"1";"0";"1"
"985";"31";"4";"1";"36";"1";"1";"12";"1";"[2,21,24,32]";"1";"0";"1"
"986";"15";"4";"1";"12";"1";"1";"12";"1";"[10,29]";"1";"0";"1"
"987";"34";"4";"1";"13";"1";"1";"12";"2";"[21,30]";"1";"0";"1"
"988";"37";"4";"1";"18";"1";"1";"12";"1";"[17,23]";"1";"0";"1"
"989";"8";"4";"1";"15";"1";"1";"12";"1";"[2,3,11,25]";"1";"0";"1"
"990";"10";"4";"1";"14";"1";"1";"12";"2";"[4,8,17,22,37,40]";"1";"0";"1"
"991";"9";"4";"1";"9";"1";"1";"12";"2";"[29,35]";"1";"0";"1"
"992";"24";"4";"1";"25";"1";"1";"12";"2";"[4,15,17,20,26]";"1";"0";"1"
"993";"19";"4";"1";"10";"1";"1";"12";"1";"[12,19,28,33,38]";"1";"0";"1"
"994";"12";"4";"1";"31";"1";"1";"12";"1";"[5,21,29]";"1";"0";"1"
"995";"39";"4";"1";"30";"1";"1";"12";"1";"[13]";"1";"0";"1"
"996";"23";"4";"1";"19";"1";"1";"12";"1";"[10,26,27,39]";"1";"0";"1"
"997";"32";"4";"1";"35";"1";"1";"12";"2";"[9,11]";"2";"0";"1"
"998";"3";"4";"1";"22";"1";"1";"12";"1";"[14,26,27,39]";"1";"0";"1"
"999";"33";"4";"1";"28";"1";"1";"12";"1";"[10,17,21,24,26,34]";"1";"0";"1"
"1000";"20";"5";"1";"21";"1";"1";"12";"1";"[5,13,16,26,28,31,32,33,36]";"1";"0";"1"
"1001";"8";"5";"1";"15";"1";"1";"12";"1";"[2,3,11,25]";"1";"0";"1"
"1002";"9";"5";"1";"9";"1";"1";"12";"2";"[29,35]";"1";"0";"1"
"1003";"19";"5";"1";"10";"1";"1";"12";"1";"[12,19,28,33,38]";"1";"0";"1"
"1004";"24";"5";"1";"25";"1";"1";"12";"2";"[4,15,17,20,26]";"1";"0";"1"
"1005";"23";"5";"1";"19";"1";"1";"12";"1";"[10,26,27,39]";"1";"0";"1"
"1006";"3";"5";"1";"22";"1";"1";"12";"1";"[14,26,27,39]";"1";"0";"1"
"1007";"4";"5";"1";"26";"1";"1";"12";"2";"[6,11,19,21,22,25,28,32,40]";"1";"0";"1"
"1008";"33";"5";"1";"28";"1";"1";"12";"1";"[10,17,21,24,26,34]";"1";"0";"1"
"1009";"6";"5";"1";"8";"1";"1";"12";"1";"[7,14,16]";"1";"0";"1"
"1010";"35";"6";"1";"3";"1";"1";"12";"1";"[7,15,16,20,29,40]";"1";"0";"1"
"1011";"20";"6";"1";"21";"1";"1";"12";"1";"[5,13,16,26,28,31,32,33,36]";"1";"0";"1"
"1012";"4";"6";"1";"26";"1";"1";"12";"2";"[6,11,19,21,22,25,28,32,40]";"1";"0";"1"
"1013";"6";"6";"1";"8";"1";"1";"12";"1";"[7,14,16]";"1";"0";"1"
"1014";"35";"7";"1";"3";"1";"1";"12";"1";"[7,15,16,20,29,40]";"1";"0";"1"
"1015";"14";"7";"1";"27";"1";"1";"12";"1";"[19,22,23,24,37]";"1";"0";"1"
"1016";"14";"8";"1";"27";"1";"1";"12";"1";"[19,22,23,24,37]";"1";"0";"1"
"1017";"25";"11";"1";"20";"1";"1";"12";"1";"[3,7,25]";"2";"0";"1"
"1018";"25";"12";"1";"20";"1";"1";"12";"1";"[3,7,25]";"2";"0";"1"
"1019";"22";"14";"1";"34";"1";"1";"12";"2";"[28]";"2";"0";"1"
"1020";"18";"14";"1";"37";"1";"1";"12";"1";"[14,27,33]";"1";"0";"1"
"1021";"22";"15";"1";"34";"1";"1";"12";"2";"[28]";"2";"0";"1"
"1022";"18";"15";"1";"37";"1";"1";"12";"1";"[14,27,33]";"1";"0";"1"
"1023";"36";"16";"1";"23";"1";"1";"12";"2";"[18,27,40]";"2";"0";"1"
"1024";"36";"17";"1";"23";"1";"1";"12";"2";"[18,27,40]";"2";"0";"1"
"1025";"1";"21";"1";"7";"1";"1";"12";"2";"[3,8,17,20]";"2";"0";"1"
"1026";"1";"22";"1";"7";"1";"1";"12";"2";"[3,8,17,20]";"2";"0";"1"
"1027";"21";"26";"1";"11";"1";"1";"12";"2";"[5,15,26,35]";"2";"0";"1"
"1028";"21";"27";"1";"11";"1";"1";"12";"2";"[5,15,26,35]";"2";"0";"1"
"1029";"13";"0";"1";"23";"1";"2";"12";"1";"[18,27,40]";"2";"0";"1"
"1030";"27";"0";"1";"16";"1";"2";"12";"2";"[1,3,8,21,24]";"1";"0";"1"
"1031";"15";"0";"1";"3";"1";"2";"12";"2";"[7,15,16,20,29,40]";"1";"0";"1"
"1032";"32";"0";"1";"19";"1";"2";"12";"2";"[10,26,27,39]";"1";"0";"1"
"1033";"21";"0";"1";"10";"1";"2";"12";"2";"[12,19,28,33,38]";"1";"0";"1"
"1034";"39";"0";"1";"21";"1";"2";"12";"2";"[5,13,16,26,28,31,32,33,36]";"1";"0";"1"
"1035";"16";"0";"1";"37";"1";"2";"12";"2";"[14,27,33]";"1";"0";"1"
"1036";"20";"0";"1";"11";"1";"2";"12";"1";"[5,15,26,35]";"2";"0";"1"
"1037";"24";"0";"1";"1";"1";"2";"12";"2";"[4,16,17]";"1";"0";"1"
"1038";"23";"0";"1";"39";"1";"2";"12";"1";"[2,19,22,29]";"1";"0";"1"
"1039";"26";"0";"1";"33";"1";"2";"12";"1";"[10,21,32,37]";"1";"0";"1"
"1040";"35";"0";"1";"30";"1";"2";"12";"2";"[13]";"1";"0";"1"
"1041";"19";"0";"1";"40";"1";"2";"12";"1";"[3,14,23,26]";"1";"0";"1"
"1042";"10";"0";"1";"4";"1";"2";"12";"2";"[1,14,17,25]";"1";"0";"1"
"1043";"6";"0";"1";"12";"1";"2";"12";"2";"[10,29]";"1";"0";"1"
"1044";"38";"0";"1";"28";"1";"2";"12";"1";"[10,17,21,24,26,34]";"1";"0";"1"
"1045";"14";"0";"1";"13";"1";"2";"12";"2";"[21,30]";"1";"0";"1"
"1046";"7";"0";"1";"27";"1";"2";"12";"2";"[19,22,23,24,37]";"1";"0";"1"
"1047";"31";"0";"1";"22";"1";"2";"12";"1";"[14,26,27,39]";"1";"0";"1"
"1048";"2";"0";"1";"15";"1";"2";"12";"1";"[2,3,11,25]";"1";"0";"1"
"1049";"1";"0";"1";"18";"1";"2";"12";"2";"[17,23]";"1";"0";"1"
"1050";"17";"0";"1";"9";"1";"2";"12";"2";"[29,35]";"1";"0";"1"
"1051";"8";"0";"1";"34";"1";"2";"12";"1";"[28]";"2";"0";"1"
"1052";"4";"0";"1";"14";"1";"2";"12";"2";"[4,8,17,22,37,40]";"1";"0";"1"
"1053";"11";"0";"1";"31";"1";"2";"12";"2";"[5,21,29]";"1";"0";"1"
"1054";"5";"0";"1";"20";"1";"2";"12";"2";"[3,7,25]";"2";"0";"1"
"1055";"12";"0";"1";"8";"1";"2";"12";"1";"[7,14,16]";"1";"0";"1"
"1056";"40";"0";"1";"36";"1";"2";"12";"2";"[2,21,24,32]";"1";"0";"1"
"1057";"22";"0";"1";"38";"1";"2";"12";"1";"[10,17]";"1";"0";"1"
"1058";"36";"0";"1";"24";"1";"2";"12";"2";"[16,27,28,36]";"1";"0";"1"
"1059";"18";"0";"1";"5";"1";"2";"12";"2";"[6,11,21,31]";"1";"0";"1"
"1060";"9";"0";"1";"7";"1";"2";"12";"2";"[3,8,17,20]";"2";"0";"1"
"1061";"3";"0";"1";"32";"1";"2";"12";"2";"[6,21,26,33,36]";"1";"0";"1"
"1062";"37";"0";"1";"2";"1";"2";"12";"2";"[15,36,39]";"1";"0";"1"
"1063";"33";"0";"1";"29";"1";"2";"12";"1";"[3,9,12,31,39]";"1";"0";"1"
"1064";"30";"0";"1";"25";"1";"2";"12";"2";"[4,15,17,20,26]";"1";"0";"1"
"1065";"29";"0";"1";"26";"1";"2";"12";"1";"[6,11,19,21,22,25,28,32,40]";"1";"0";"1"
"1066";"28";"0";"1";"6";"1";"2";"12";"2";"[5,26,32]";"1";"0";"1"
"1067";"34";"0";"1";"35";"1";"2";"12";"2";"[9,11]";"2";"0";"1"
"1068";"25";"0";"1";"17";"1";"2";"12";"2";"[1,4,7,14,18,25,28,38]";"1";"0";"1"
"1069";"2";"3";"1";"15";"1";"2";"1";"1";"[2,3,11,25]";"1";"0";"1"
"1070";"26";"3";"1";"33";"1";"2";"1";"1";"[10,21,32,37]";"1";"0";"1"
"1071";"32";"3";"1";"19";"1";"2";"1";"2";"[10,26,27,39]";"2";"0";"1"
"1072";"13";"3";"1";"23";"1";"2";"1";"1";"[18,27,40]";"1";"0";"1"
"1073";"11";"4";"1";"31";"1";"2";"1";"2";"[5,21,29]";"2";"0";"1"
"1074";"40";"4";"1";"36";"1";"2";"1";"2";"[2,21,24,32]";"2";"0";"1"
"1075";"38";"4";"1";"28";"1";"2";"1";"1";"[10,17,21,24,26,34]";"1";"0";"1"
"1076";"27";"4";"1";"16";"1";"2";"1";"2";"[1,3,8,21,24]";"2";"0";"1"
"1077";"2";"4";"1";"15";"1";"2";"1";"1";"[2,3,11,25]";"1";"0";"1"
"1078";"26";"4";"1";"33";"1";"2";"1";"1";"[10,21,32,37]";"1";"0";"1"
"1079";"4";"4";"1";"14";"1";"2";"1";"2";"[4,8,17,22,37,40]";"1";"0";"1"
"1080";"16";"4";"1";"37";"1";"2";"1";"2";"[14,27,33]";"2";"0";"1"
"1081";"32";"4";"1";"19";"1";"2";"1";"2";"[10,26,27,39]";"2";"0";"1"
"1082";"24";"4";"1";"1";"1";"2";"1";"2";"[4,16,17]";"2";"0";"1"
"1083";"8";"4";"1";"34";"1";"2";"1";"1";"[28]";"1";"0";"1"
"1084";"13";"4";"1";"23";"1";"2";"1";"1";"[18,27,40]";"1";"0";"1"
"1085";"11";"5";"1";"31";"1";"2";"1";"2";"[5,21,29]";"2";"0";"1"
"1086";"40";"5";"1";"36";"1";"2";"1";"2";"[2,21,24,32]";"2";"0";"1"
"1087";"38";"5";"1";"28";"1";"2";"1";"1";"[10,17,21,24,26,34]";"1";"0";"1"
"1088";"27";"5";"1";"16";"1";"2";"1";"2";"[1,3,8,21,24]";"2";"0";"1"
"1089";"4";"5";"1";"14";"1";"2";"1";"2";"[4,8,17,22,37,40]";"1";"0";"1"
"1090";"16";"5";"1";"37";"1";"2";"1";"2";"[14,27,33]";"2";"0";"1"
"1091";"3";"5";"1";"32";"1";"2";"1";"2";"[6,21,26,33,36]";"2";"0";"1"
"1092";"31";"5";"1";"22";"1";"2";"1";"1";"[14,26,27,39]";"1";"0";"1"
"1093";"17";"5";"1";"9";"1";"2";"1";"2";"[29,35]";"2";"0";"1"
"1094";"24";"5";"1";"1";"1";"2";"1";"2";"[4,16,17]";"2";"0";"1"
"1095";"8";"5";"1";"34";"1";"2";"1";"1";"[28]";"1";"0";"1"
"1096";"29";"6";"1";"26";"1";"2";"1";"1";"[6,11,19,21,22,25,28,32,40]";"1";"0";"1"
"1097";"19";"6";"1";"40";"1";"2";"1";"1";"[3,14,23,26]";"1";"0";"1"
"1098";"34";"6";"1";"35";"1";"2";"1";"2";"[9,11]";"2";"0";"1"
"1099";"22";"6";"1";"38";"1";"2";"1";"1";"[10,17]";"1";"0";"1"
"1100";"1";"6";"1";"18";"1";"2";"1";"2";"[17,23]";"2";"0";"1"
"1101";"15";"6";"1";"3";"1";"2";"1";"2";"[7,15,16,20,29,40]";"2";"0";"1"
"1102";"10";"6";"1";"4";"1";"2";"1";"2";"[1,14,17,25]";"2";"0";"1"
"1103";"6";"6";"1";"12";"1";"2";"1";"2";"[10,29]";"2";"0";"1"
"1104";"33";"6";"1";"29";"1";"2";"1";"1";"[3,9,12,31,39]";"1";"0";"1"
"1105";"3";"6";"1";"32";"1";"2";"1";"2";"[6,21,26,33,36]";"2";"0";"1"
"1106";"31";"6";"1";"22";"1";"2";"1";"1";"[14,26,27,39]";"1";"0";"1"
"1107";"17";"6";"1";"9";"1";"2";"1";"2";"[29,35]";"2";"0";"1"
"1108";"20";"6";"1";"11";"1";"2";"1";"1";"[5,15,26,35]";"1";"0";"1"
"1109";"21";"6";"1";"10";"1";"2";"1";"2";"[12,19,28,33,38]";"2";"0";"1"
"1110";"29";"7";"1";"26";"1";"2";"1";"1";"[6,11,19,21,22,25,28,32,40]";"1";"0";"1"
"1111";"19";"7";"1";"40";"1";"2";"1";"1";"[3,14,23,26]";"1";"0";"1"
"1112";"34";"7";"1";"35";"1";"2";"1";"2";"[9,11]";"2";"0";"1"
"1113";"22";"7";"1";"38";"1";"2";"1";"1";"[10,17]";"1";"0";"1"
"1114";"1";"7";"1";"18";"1";"2";"1";"2";"[17,23]";"2";"0";"1"
"1115";"15";"7";"1";"3";"1";"2";"1";"2";"[7,15,16,20,29,40]";"2";"0";"1"
"1116";"10";"7";"1";"4";"1";"2";"1";"2";"[1,14,17,25]";"2";"0";"1"
"1117";"9";"7";"1";"7";"1";"2";"1";"2";"[3,8,17,20]";"2";"0";"1"
"1118";"6";"7";"1";"12";"1";"2";"1";"2";"[10,29]";"2";"0";"1"
"1119";"33";"7";"1";"29";"1";"2";"1";"1";"[3,9,12,31,39]";"1";"0";"1"
"1120";"20";"7";"1";"11";"1";"2";"1";"1";"[5,15,26,35]";"1";"0";"1"
"1121";"21";"7";"1";"10";"1";"2";"1";"2";"[12,19,28,33,38]";"2";"0";"1"
"1122";"36";"8";"1";"24";"1";"2";"1";"2";"[16,27,28,36]";"2";"0";"1"
"1123";"35";"8";"1";"30";"1";"2";"1";"2";"[13]";"2";"0";"1"
"1124";"9";"8";"1";"7";"1";"2";"1";"2";"[3,8,17,20]";"2";"0";"1"
"1125";"39";"8";"1";"21";"1";"2";"1";"2";"[5,13,16,26,28,31,32,33,36]";"2";"0";"1"
"1126";"36";"9";"1";"24";"1";"2";"1";"2";"[16,27,28,36]";"2";"0";"1"
"1127";"5";"9";"1";"20";"1";"2";"1";"2";"[3,7,25]";"2";"0";"1"
"1128";"35";"9";"1";"30";"1";"2";"1";"2";"[13]";"2";"0";"1"
"1129";"39";"9";"1";"21";"1";"2";"1";"2";"[5,13,16,26,28,31,32,33,36]";"2";"0";"1"
"1130";"37";"10";"1";"2";"1";"2";"1";"2";"[15,36,39]";"2";"0";"1"
"1131";"5";"10";"1";"20";"1";"2";"1";"2";"[3,7,25]";"2";"0";"1"
"1132";"23";"10";"1";"39";"1";"2";"1";"1";"[2,19,22,29]";"1";"0";"1"
"1133";"25";"10";"1";"17";"1";"2";"1";"2";"[1,4,7,14,18,25,28,38]";"1";"0";"1"
"1134";"12";"10";"1";"8";"1";"2";"1";"1";"[7,14,16]";"1";"0";"1"
"1135";"37";"11";"1";"2";"1";"2";"1";"2";"[15,36,39]";"2";"0";"1"
"1136";"18";"11";"1";"5";"1";"2";"1";"2";"[6,11,21,31]";"2";"0";"1"
"1137";"23";"11";"1";"39";"1";"2";"1";"1";"[2,19,22,29]";"1";"0";"1"
"1138";"25";"11";"1";"17";"1";"2";"1";"2";"[1,4,7,14,18,25,28,38]";"1";"0";"1"
"1139";"12";"11";"1";"8";"1";"2";"1";"1";"[7,14,16]";"1";"0";"1"
"1140";"28";"11";"1";"6";"1";"2";"1";"2";"[5,26,32]";"2";"0";"1"
"1141";"18";"12";"1";"5";"1";"2";"1";"2";"[6,11,21,31]";"2";"0";"1"
"1142";"14";"12";"1";"13";"1";"2";"1";"2";"[21,30]";"2";"0";"1"
"1143";"28";"12";"1";"6";"1";"2";"1";"2";"[5,26,32]";"2";"0";"1"
"1144";"30";"13";"1";"25";"1";"2";"1";"2";"[4,15,17,20,26]";"2";"0";"1"
"1145";"14";"13";"1";"13";"1";"2";"1";"2";"[21,30]";"2";"0";"1"
"1146";"30";"14";"1";"25";"1";"2";"1";"2";"[4,15,17,20,26]";"2";"0";"1"
"1147";"7";"15";"1";"27";"1";"2";"1";"2";"[19,22,23,24,37]";"2";"0";"1"
"1148";"7";"16";"1";"27";"1";"2";"1";"2";"[19,22,23,24,37]";"2";"0";"1"
"1149";"26";"2";"1";"33";"1";"2";"2";"1";"[10,21,32,37]";"2";"0";"1"
"1150";"40";"2";"1";"36";"1";"2";"2";"2";"[2,21,24,32]";"2";"0";"1"
"1151";"2";"2";"1";"15";"1";"2";"2";"1";"[2,3,11,25]";"2";"0";"1"
"1152";"26";"3";"1";"33";"1";"2";"2";"1";"[10,21,32,37]";"2";"0";"1"
"1153";"11";"3";"1";"31";"1";"2";"2";"2";"[5,21,29]";"2";"0";"1"
"1154";"13";"3";"1";"23";"1";"2";"2";"1";"[18,27,40]";"1";"0";"1"
"1155";"40";"3";"1";"36";"1";"2";"2";"2";"[2,21,24,32]";"2";"0";"1"
"1156";"27";"3";"1";"16";"1";"2";"2";"2";"[1,3,8,21,24]";"2";"0";"1"
"1157";"2";"3";"1";"15";"1";"2";"2";"1";"[2,3,11,25]";"2";"0";"1"
"1158";"35";"4";"1";"30";"1";"2";"2";"2";"[13]";"2";"0";"1"
"1159";"11";"4";"1";"31";"1";"2";"2";"2";"[5,21,29]";"2";"0";"1"
"1160";"13";"4";"1";"23";"1";"2";"2";"1";"[18,27,40]";"1";"0";"1"
"1161";"27";"4";"1";"16";"1";"2";"2";"2";"[1,3,8,21,24]";"2";"0";"1"
"1162";"16";"4";"1";"37";"1";"2";"2";"2";"[14,27,33]";"1";"0";"1"
"1163";"31";"4";"1";"22";"1";"2";"2";"1";"[14,26,27,39]";"1";"0";"1"
"1164";"24";"5";"1";"1";"1";"2";"2";"2";"[4,16,17]";"2";"0";"1"
"1165";"17";"5";"1";"9";"1";"2";"2";"2";"[29,35]";"2";"0";"1"
"1166";"35";"5";"1";"30";"1";"2";"2";"2";"[13]";"2";"0";"1"
"1167";"19";"5";"1";"40";"1";"2";"2";"1";"[3,14,23,26]";"1";"0";"1"
"1168";"6";"5";"1";"12";"1";"2";"2";"2";"[10,29]";"2";"0";"1"
"1169";"16";"5";"1";"37";"1";"2";"2";"2";"[14,27,33]";"1";"0";"1"
"1170";"37";"5";"1";"2";"1";"2";"2";"2";"[15,36,39]";"2";"0";"1"
"1171";"31";"5";"1";"22";"1";"2";"2";"1";"[14,26,27,39]";"1";"0";"1"
"1172";"24";"6";"1";"1";"1";"2";"2";"2";"[4,16,17]";"2";"0";"1"
"1173";"17";"6";"1";"9";"1";"2";"2";"2";"[29,35]";"2";"0";"1"
"1174";"12";"6";"1";"8";"1";"2";"2";"1";"[7,14,16]";"1";"0";"1"
"1175";"20";"6";"1";"11";"1";"2";"2";"1";"[5,15,26,35]";"1";"0";"1"
"1176";"6";"6";"1";"12";"1";"2";"2";"2";"[10,29]";"2";"0";"1"
"1177";"19";"6";"1";"40";"1";"2";"2";"1";"[3,14,23,26]";"1";"0";"1"
"1178";"3";"6";"1";"32";"1";"2";"2";"2";"[6,21,26,33,36]";"2";"0";"1"
"1179";"37";"6";"1";"2";"1";"2";"2";"2";"[15,36,39]";"2";"0";"1"
"1180";"22";"7";"1";"38";"1";"2";"2";"1";"[10,17]";"1";"0";"1"
"1181";"12";"7";"1";"8";"1";"2";"2";"1";"[7,14,16]";"1";"0";"1"
"1182";"7";"7";"1";"27";"1";"2";"2";"2";"[19,22,23,24,37]";"2";"0";"1"
"1183";"5";"7";"1";"20";"1";"2";"2";"2";"[3,7,25]";"2";"0";"1"
"1184";"20";"7";"1";"11";"1";"2";"2";"1";"[5,15,26,35]";"1";"0";"1"
"1185";"28";"7";"1";"6";"1";"2";"2";"2";"[5,26,32]";"2";"0";"1"
"1186";"3";"7";"1";"32";"1";"2";"2";"2";"[6,21,26,33,36]";"2";"0";"1"
"1187";"22";"8";"1";"38";"1";"2";"2";"1";"[10,17]";"1";"0";"1"
"1188";"7";"8";"1";"27";"1";"2";"2";"2";"[19,22,23,24,37]";"2";"0";"1"
"1189";"5";"8";"1";"20";"1";"2";"2";"2";"[3,7,25]";"2";"0";"1"
"1190";"28";"8";"1";"6";"1";"2";"2";"2";"[5,26,32]";"2";"0";"1"
"1191";"36";"8";"1";"24";"1";"2";"2";"2";"[16,27,28,36]";"2";"0";"1"
"1192";"18";"8";"1";"5";"1";"2";"2";"2";"[6,11,21,31]";"2";"0";"1"
"1193";"32";"8";"1";"19";"1";"2";"2";"2";"[10,26,27,39]";"2";"0";"1"
"1194";"39";"9";"1";"21";"1";"2";"2";"2";"[5,13,16,26,28,31,32,33,36]";"2";"0";"1"
"1195";"15";"9";"1";"3";"1";"2";"2";"2";"[7,15,16,20,29,40]";"2";"0";"1"
"1196";"8";"9";"1";"34";"1";"2";"2";"1";"[28]";"1";"0";"1"
"1197";"36";"9";"1";"24";"1";"2";"2";"2";"[16,27,28,36]";"2";"0";"1"
"1198";"18";"9";"1";"5";"1";"2";"2";"2";"[6,11,21,31]";"2";"0";"1"
"1199";"32";"9";"1";"19";"1";"2";"2";"2";"[10,26,27,39]";"2";"0";"1"
"1200";"33";"9";"1";"29";"1";"2";"2";"1";"[3,9,12,31,39]";"2";"0";"1"
"1201";"39";"10";"1";"21";"1";"2";"2";"2";"[5,13,16,26,28,31,32,33,36]";"2";"0";"1"
"1202";"15";"10";"1";"3";"1";"2";"2";"2";"[7,15,16,20,29,40]";"2";"0";"1"
"1203";"38";"10";"1";"28";"1";"2";"2";"1";"[10,17,21,24,26,34]";"1";"0";"1"
"1204";"8";"10";"1";"34";"1";"2";"2";"1";"[28]";"1";"0";"1"
"1205";"21";"10";"1";"10";"1";"2";"2";"2";"[12,19,28,33,38]";"2";"0";"1"
"1206";"33";"10";"1";"29";"1";"2";"2";"1";"[3,9,12,31,39]";"2";"0";"1"
"1207";"38";"11";"1";"28";"1";"2";"2";"1";"[10,17,21,24,26,34]";"1";"0";"1"
"1208";"21";"11";"1";"10";"1";"2";"2";"2";"[12,19,28,33,38]";"2";"0";"1"
"1209";"25";"11";"1";"17";"1";"2";"2";"2";"[1,4,7,14,18,25,28,38]";"2";"0";"1"
"1210";"14";"11";"1";"13";"1";"2";"2";"2";"[21,30]";"2";"0";"1"
"1211";"29";"11";"1";"26";"1";"2";"2";"1";"[6,11,19,21,22,25,28,32,40]";"1";"0";"1"
"1212";"1";"12";"1";"18";"1";"2";"2";"2";"[17,23]";"2";"0";"1"
"1213";"25";"12";"1";"17";"1";"2";"2";"2";"[1,4,7,14,18,25,28,38]";"2";"0";"1"
"1214";"14";"12";"1";"13";"1";"2";"2";"2";"[21,30]";"2";"0";"1"
"1215";"29";"12";"1";"26";"1";"2";"2";"1";"[6,11,19,21,22,25,28,32,40]";"1";"0";"1"
"1216";"1";"13";"1";"18";"1";"2";"2";"2";"[17,23]";"2";"0";"1"
"1217";"30";"13";"1";"25";"1";"2";"2";"2";"[4,15,17,20,26]";"2";"0";"1"
"1218";"30";"14";"1";"25";"1";"2";"2";"2";"[4,15,17,20,26]";"2";"0";"1"
"1219";"4";"14";"1";"14";"1";"2";"2";"2";"[4,8,17,22,37,40]";"1";"0";"1"
"1220";"10";"15";"1";"4";"1";"2";"2";"2";"[1,14,17,25]";"2";"0";"1"
"1221";"4";"15";"1";"14";"1";"2";"2";"2";"[4,8,17,22,37,40]";"1";"0";"1"
"1222";"10";"16";"1";"4";"1";"2";"2";"2";"[1,14,17,25]";"2";"0";"1"
"1223";"34";"17";"1";"35";"1";"2";"2";"2";"[9,11]";"1";"0";"1"
"1224";"34";"18";"1";"35";"1";"2";"2";"2";"[9,11]";"1";"0";"1"
"1225";"9";"24";"1";"7";"1";"2";"2";"2";"[3,8,17,20]";"2";"0";"1"
"1226";"9";"25";"1";"7";"1";"2";"2";"2";"[3,8,17,20]";"2";"0";"1"
"1227";"23";"25";"1";"39";"1";"2";"2";"1";"[2,19,22,29]";"1";"0";"1"
"1228";"23";"26";"1";"39";"1";"2";"2";"1";"[2,19,22,29]";"1";"0";"1"
"1229";"11";"2";"1";"31";"1";"2";"3";"2";"[5,21,29]";"2";"0";"1"
"1230";"31";"2";"1";"22";"1";"2";"3";"1";"[14,26,27,39]";"1";"0";"1"
"1231";"40";"2";"1";"36";"1";"2";"3";"2";"[2,21,24,32]";"2";"0";"1"
"1232";"27";"3";"1";"16";"1";"2";"3";"2";"[1,3,8,21,24]";"2";"0";"1"
"1233";"11";"3";"1";"31";"1";"2";"3";"2";"[5,21,29]";"2";"0";"1"
"1234";"31";"3";"1";"22";"1";"2";"3";"1";"[14,26,27,39]";"1";"0";"1"
"1235";"13";"3";"1";"23";"1";"2";"3";"1";"[18,27,40]";"1";"0";"1"
"1236";"40";"3";"1";"36";"1";"2";"3";"2";"[2,21,24,32]";"2";"0";"1"
"1237";"5";"3";"1";"20";"1";"2";"3";"2";"[3,7,25]";"2";"0";"1"
"1238";"17";"3";"1";"9";"1";"2";"3";"2";"[29,35]";"2";"0";"1"
"1239";"7";"4";"1";"27";"1";"2";"3";"2";"[19,22,23,24,37]";"2";"0";"1"
"1240";"39";"4";"1";"21";"1";"2";"3";"2";"[5,13,16,26,28,31,32,33,36]";"2";"0";"1"
"1241";"34";"4";"1";"35";"1";"2";"3";"2";"[9,11]";"1";"0";"1"
"1242";"27";"4";"1";"16";"1";"2";"3";"2";"[1,3,8,21,24]";"2";"0";"1"
"1243";"15";"4";"1";"3";"1";"2";"3";"2";"[7,15,16,20,29,40]";"2";"0";"1"
"1244";"13";"4";"1";"23";"1";"2";"3";"1";"[18,27,40]";"1";"0";"1"
"1245";"19";"4";"1";"40";"1";"2";"3";"1";"[3,14,23,26]";"1";"0";"1"
"1246";"24";"4";"1";"1";"1";"2";"3";"2";"[4,16,17]";"2";"0";"1"
"1247";"21";"4";"1";"10";"1";"2";"3";"2";"[12,19,28,33,38]";"2";"0";"1"
"1248";"14";"4";"1";"13";"1";"2";"3";"2";"[21,30]";"2";"0";"1"
"1249";"5";"4";"1";"20";"1";"2";"3";"2";"[3,7,25]";"2";"0";"1"
"1250";"17";"4";"1";"9";"1";"2";"3";"2";"[29,35]";"2";"0";"1"
"1251";"2";"4";"1";"15";"1";"2";"3";"1";"[2,3,11,25]";"2";"0";"1"
"1252";"7";"5";"1";"27";"1";"2";"3";"2";"[19,22,23,24,37]";"2";"0";"1"
"1253";"30";"5";"1";"25";"1";"2";"3";"2";"[4,15,17,20,26]";"2";"0";"1"
"1254";"39";"5";"1";"21";"1";"2";"3";"2";"[5,13,16,26,28,31,32,33,36]";"2";"0";"1"
"1255";"6";"5";"1";"12";"1";"2";"3";"2";"[10,29]";"2";"0";"1"
"1256";"34";"5";"1";"35";"1";"2";"3";"2";"[9,11]";"1";"0";"1"
"1257";"29";"5";"1";"26";"1";"2";"3";"1";"[6,11,19,21,22,25,28,32,40]";"1";"0";"1"
"1258";"37";"5";"1";"2";"1";"2";"3";"2";"[15,36,39]";"2";"0";"1"
"1259";"38";"5";"1";"28";"1";"2";"3";"1";"[10,17,21,24,26,34]";"1";"0";"1"
"1260";"15";"5";"1";"3";"1";"2";"3";"2";"[7,15,16,20,29,40]";"2";"0";"1"
"1261";"33";"5";"1";"29";"1";"2";"3";"1";"[3,9,12,31,39]";"2";"0";"1"
"1262";"19";"5";"1";"40";"1";"2";"3";"1";"[3,14,23,26]";"1";"0";"1"
"1263";"26";"5";"1";"33";"1";"2";"3";"1";"[10,21,32,37]";"1";"0";"1"
"1264";"24";"5";"1";"1";"1";"2";"3";"2";"[4,16,17]";"2";"0";"1"
"1265";"21";"5";"1";"10";"1";"2";"3";"2";"[12,19,28,33,38]";"2";"0";"1"
"1266";"14";"5";"1";"13";"1";"2";"3";"2";"[21,30]";"2";"0";"1"
"1267";"25";"5";"1";"17";"1";"2";"3";"2";"[1,4,7,14,18,25,28,38]";"1";"0";"1"
"1268";"3";"5";"1";"32";"1";"2";"3";"2";"[6,21,26,33,36]";"2";"0";"1"
"1269";"2";"5";"1";"15";"1";"2";"3";"1";"[2,3,11,25]";"2";"0";"1"
"1270";"30";"6";"1";"25";"1";"2";"3";"2";"[4,15,17,20,26]";"2";"0";"1"
"1271";"6";"6";"1";"12";"1";"2";"3";"2";"[10,29]";"2";"0";"1"
"1272";"29";"6";"1";"26";"1";"2";"3";"1";"[6,11,19,21,22,25,28,32,40]";"1";"0";"1"
"1273";"8";"6";"1";"34";"1";"2";"3";"1";"[28]";"2";"0";"1"
"1274";"37";"6";"1";"2";"1";"2";"3";"2";"[15,36,39]";"2";"0";"1"
"1275";"38";"6";"1";"28";"1";"2";"3";"1";"[10,17,21,24,26,34]";"1";"0";"1"
"1276";"33";"6";"1";"29";"1";"2";"3";"1";"[3,9,12,31,39]";"2";"0";"1"
"1277";"26";"6";"1";"33";"1";"2";"3";"1";"[10,21,32,37]";"1";"0";"1"
"1278";"3";"6";"1";"32";"1";"2";"3";"2";"[6,21,26,33,36]";"2";"0";"1"
"1279";"25";"6";"1";"17";"1";"2";"3";"2";"[1,4,7,14,18,25,28,38]";"1";"0";"1"
"1280";"12";"6";"1";"8";"1";"2";"3";"1";"[7,14,16]";"1";"0";"1"
"1281";"8";"7";"1";"34";"1";"2";"3";"1";"[28]";"2";"0";"1"
"1282";"1";"7";"1";"18";"1";"2";"3";"2";"[17,23]";"2";"0";"1"
"1283";"12";"7";"1";"8";"1";"2";"3";"1";"[7,14,16]";"1";"0";"1"
"1284";"22";"7";"1";"38";"1";"2";"3";"1";"[10,17]";"1";"0";"1"
"1285";"20";"7";"1";"11";"1";"2";"3";"1";"[5,15,26,35]";"1";"0";"1"
"1286";"4";"8";"1";"14";"1";"2";"3";"2";"[4,8,17,22,37,40]";"1";"0";"1"
"1287";"28";"8";"1";"6";"1";"2";"3";"2";"[5,26,32]";"2";"0";"1"
"1288";"16";"8";"1";"37";"1";"2";"3";"2";"[14,27,33]";"2";"0";"1"
"1289";"1";"8";"1";"18";"1";"2";"3";"2";"[17,23]";"2";"0";"1"
"1290";"22";"8";"1";"38";"1";"2";"3";"1";"[10,17]";"1";"0";"1"
"1291";"20";"8";"1";"11";"1";"2";"3";"1";"[5,15,26,35]";"1";"0";"1"
"1292";"4";"9";"1";"14";"1";"2";"3";"2";"[4,8,17,22,37,40]";"1";"0";"1"
"1293";"32";"9";"1";"19";"1";"2";"3";"2";"[10,26,27,39]";"2";"0";"1"
"1294";"16";"9";"1";"37";"1";"2";"3";"2";"[14,27,33]";"2";"0";"1"
"1295";"28";"9";"1";"6";"1";"2";"3";"2";"[5,26,32]";"2";"0";"1"
"1296";"23";"9";"1";"39";"1";"2";"3";"1";"[2,19,22,29]";"2";"0";"1"
"1297";"35";"10";"1";"30";"1";"2";"3";"2";"[13]";"2";"0";"1"
"1298";"32";"10";"1";"19";"1";"2";"3";"2";"[10,26,27,39]";"2";"0";"1"
"1299";"23";"10";"1";"39";"1";"2";"3";"1";"[2,19,22,29]";"2";"0";"1"
"1300";"35";"11";"1";"30";"1";"2";"3";"2";"[13]";"2";"0";"1"
"1301";"36";"11";"1";"24";"1";"2";"3";"2";"[16,27,28,36]";"2";"0";"1"
"1302";"9";"12";"1";"7";"1";"2";"3";"2";"[3,8,17,20]";"2";"0";"1"
"1303";"36";"12";"1";"24";"1";"2";"3";"2";"[16,27,28,36]";"2";"0";"1"
"1304";"9";"13";"1";"7";"1";"2";"3";"2";"[3,8,17,20]";"2";"0";"1"
"1305";"18";"14";"1";"5";"1";"2";"3";"2";"[6,11,21,31]";"2";"0";"1"
"1306";"18";"15";"1";"5";"1";"2";"3";"2";"[6,11,21,31]";"2";"0";"1"
"1307";"10";"16";"1";"4";"1";"2";"3";"2";"[1,14,17,25]";"2";"0";"1"
"1308";"10";"17";"1";"4";"1";"2";"3";"2";"[1,14,17,25]";"2";"0";"1"
"1309";"17";"1";"1";"9";"1";"2";"4";"2";"[29,35]";"2";"0";"1"
"1310";"11";"2";"1";"31";"1";"2";"4";"2";"[5,21,29]";"2";"0";"1"
"1311";"26";"2";"1";"33";"1";"2";"4";"1";"[10,21,32,37]";"1";"0";"1"
"1312";"15";"2";"1";"3";"1";"2";"4";"2";"[7,15,16,20,29,40]";"1";"0";"1"
"1313";"27";"2";"1";"16";"1";"2";"4";"2";"[1,3,8,21,24]";"2";"0";"1"
"1314";"17";"2";"1";"9";"1";"2";"4";"2";"[29,35]";"2";"0";"1"
"1315";"39";"2";"1";"21";"1";"2";"4";"2";"[5,13,16,26,28,31,32,33,36]";"2";"0";"1"
"1316";"29";"2";"1";"26";"1";"2";"4";"1";"[6,11,19,21,22,25,28,32,40]";"1";"0";"1"
"1317";"11";"3";"1";"31";"1";"2";"4";"2";"[5,21,29]";"2";"0";"1"
"1318";"40";"3";"1";"36";"1";"2";"4";"2";"[2,21,24,32]";"2";"0";"1"
"1319";"2";"3";"1";"15";"1";"2";"4";"1";"[2,3,11,25]";"2";"0";"1"
"1320";"26";"3";"1";"33";"1";"2";"4";"1";"[10,21,32,37]";"1";"0";"1"
"1321";"15";"3";"1";"3";"1";"2";"4";"2";"[7,15,16,20,29,40]";"1";"0";"1"
"1322";"37";"3";"1";"2";"1";"2";"4";"2";"[15,36,39]";"2";"0";"1"
"1323";"27";"3";"1";"16";"1";"2";"4";"2";"[1,3,8,21,24]";"2";"0";"1"
"1324";"7";"3";"1";"27";"1";"2";"4";"2";"[19,22,23,24,37]";"2";"0";"1"
"1325";"38";"3";"1";"28";"1";"2";"4";"1";"[10,17,21,24,26,34]";"1";"0";"1"
"1326";"1";"3";"1";"18";"1";"2";"4";"2";"[17,23]";"1";"0";"1"
"1327";"39";"3";"1";"21";"1";"2";"4";"2";"[5,13,16,26,28,31,32,33,36]";"2";"0";"1"
"1328";"29";"3";"1";"26";"1";"2";"4";"1";"[6,11,19,21,22,25,28,32,40]";"1";"0";"1"
"1329";"32";"4";"1";"19";"1";"2";"4";"2";"[10,26,27,39]";"2";"0";"1"
"1330";"16";"4";"1";"37";"1";"2";"4";"2";"[14,27,33]";"1";"0";"1"
"1331";"22";"4";"1";"38";"1";"2";"4";"1";"[10,17]";"1";"0";"1"
"1332";"40";"4";"1";"36";"1";"2";"4";"2";"[2,21,24,32]";"2";"0";"1"
"1333";"2";"4";"1";"15";"1";"2";"4";"1";"[2,3,11,25]";"2";"0";"1"
"1334";"13";"4";"1";"23";"1";"2";"4";"1";"[18,27,40]";"1";"0";"1"
"1335";"37";"4";"1";"2";"1";"2";"4";"2";"[15,36,39]";"2";"0";"1"
"1336";"6";"4";"1";"12";"1";"2";"4";"2";"[10,29]";"2";"0";"1"
"1337";"7";"4";"1";"27";"1";"2";"4";"2";"[19,22,23,24,37]";"2";"0";"1"
"1338";"38";"4";"1";"28";"1";"2";"4";"1";"[10,17,21,24,26,34]";"1";"0";"1"
"1339";"1";"4";"1";"18";"1";"2";"4";"2";"[17,23]";"1";"0";"1"
"1340";"32";"5";"1";"19";"1";"2";"4";"2";"[10,26,27,39]";"2";"0";"1"
"1341";"16";"5";"1";"37";"1";"2";"4";"2";"[14,27,33]";"1";"0";"1"
"1342";"22";"5";"1";"38";"1";"2";"4";"1";"[10,17]";"1";"0";"1"
"1343";"14";"5";"1";"13";"1";"2";"4";"2";"[21,30]";"2";"0";"1"
"1344";"13";"5";"1";"23";"1";"2";"4";"1";"[18,27,40]";"1";"0";"1"
"1345";"4";"5";"1";"14";"1";"2";"4";"2";"[4,8,17,22,37,40]";"1";"0";"1"
"1346";"35";"5";"1";"30";"1";"2";"4";"2";"[13]";"2";"0";"1"
"1347";"6";"5";"1";"12";"1";"2";"4";"2";"[10,29]";"2";"0";"1"
"1348";"5";"5";"1";"20";"1";"2";"4";"2";"[3,7,25]";"2";"0";"1"
"1349";"21";"5";"1";"10";"1";"2";"4";"2";"[12,19,28,33,38]";"2";"0";"1"
"1350";"31";"5";"1";"22";"1";"2";"4";"1";"[14,26,27,39]";"1";"0";"1"
"1351";"14";"6";"1";"13";"1";"2";"4";"2";"[21,30]";"2";"0";"1"
"1352";"4";"6";"1";"14";"1";"2";"4";"2";"[4,8,17,22,37,40]";"1";"0";"1"
"1353";"35";"6";"1";"30";"1";"2";"4";"2";"[13]";"2";"0";"1"
"1354";"33";"6";"1";"29";"1";"2";"4";"1";"[3,9,12,31,39]";"1";"0";"1"
"1355";"23";"6";"1";"39";"1";"2";"4";"1";"[2,19,22,29]";"2";"0";"1"
"1356";"24";"6";"1";"1";"1";"2";"4";"2";"[4,16,17]";"2";"0";"1"
"1357";"5";"6";"1";"20";"1";"2";"4";"2";"[3,7,25]";"2";"0";"1"
"1358";"25";"6";"1";"17";"1";"2";"4";"2";"[1,4,7,14,18,25,28,38]";"1";"0";"1"
"1359";"21";"6";"1";"10";"1";"2";"4";"2";"[12,19,28,33,38]";"2";"0";"1"
"1360";"19";"6";"1";"40";"1";"2";"4";"1";"[3,14,23,26]";"1";"0";"1"
"1361";"31";"6";"1";"22";"1";"2";"4";"1";"[14,26,27,39]";"1";"0";"1"
"1362";"12";"7";"1";"8";"1";"2";"4";"1";"[7,14,16]";"2";"0";"1"
"1363";"8";"7";"1";"34";"1";"2";"4";"1";"[28]";"1";"0";"1"
"1364";"3";"7";"1";"32";"1";"2";"4";"2";"[6,21,26,33,36]";"2";"0";"1"
"1365";"33";"7";"1";"29";"1";"2";"4";"1";"[3,9,12,31,39]";"1";"0";"1"
"1366";"23";"7";"1";"39";"1";"2";"4";"1";"[2,19,22,29]";"2";"0";"1"
"1367";"24";"7";"1";"1";"1";"2";"4";"2";"[4,16,17]";"2";"0";"1"
"1368";"25";"7";"1";"17";"1";"2";"4";"2";"[1,4,7,14,18,25,28,38]";"1";"0";"1"
"1369";"19";"7";"1";"40";"1";"2";"4";"1";"[3,14,23,26]";"1";"0";"1"
"1370";"12";"8";"1";"8";"1";"2";"4";"1";"[7,14,16]";"2";"0";"1"
"1371";"8";"8";"1";"34";"1";"2";"4";"1";"[28]";"1";"0";"1"
"1372";"3";"8";"1";"32";"1";"2";"4";"2";"[6,21,26,33,36]";"2";"0";"1"
"1373";"36";"10";"1";"24";"1";"2";"4";"2";"[16,27,28,36]";"2";"0";"1"
"1374";"36";"11";"1";"24";"1";"2";"4";"2";"[16,27,28,36]";"2";"0";"1"
"1375";"18";"11";"1";"5";"1";"2";"4";"2";"[6,11,21,31]";"2";"0";"1"
"1376";"18";"12";"1";"5";"1";"2";"4";"2";"[6,11,21,31]";"2";"0";"1"
"1377";"20";"13";"1";"11";"1";"2";"4";"1";"[5,15,26,35]";"1";"0";"1"
"1378";"20";"14";"1";"11";"1";"2";"4";"1";"[5,15,26,35]";"1";"0";"1"
"1379";"34";"16";"1";"35";"1";"2";"4";"2";"[9,11]";"1";"0";"1"
"1380";"10";"16";"1";"4";"1";"2";"4";"2";"[1,14,17,25]";"2";"0";"1"
"1381";"28";"16";"1";"6";"1";"2";"4";"2";"[5,26,32]";"2";"0";"1"
"1382";"30";"17";"1";"25";"1";"2";"4";"2";"[4,15,17,20,26]";"1";"0";"1"
"1383";"34";"17";"1";"35";"1";"2";"4";"2";"[9,11]";"1";"0";"1"
"1384";"10";"17";"1";"4";"1";"2";"4";"2";"[1,14,17,25]";"2";"0";"1"
"1385";"28";"17";"1";"6";"1";"2";"4";"2";"[5,26,32]";"2";"0";"1"
"1386";"30";"18";"1";"25";"1";"2";"4";"2";"[4,15,17,20,26]";"1";"0";"1"
"1387";"9";"23";"1";"7";"1";"2";"4";"2";"[3,8,17,20]";"2";"0";"1"
"1388";"9";"24";"1";"7";"1";"2";"4";"2";"[3,8,17,20]";"2";"0";"1"
"1389";"17";"1";"1";"9";"1";"2";"5";"2";"[29,35]";"2";"0";"1"
"1390";"16";"1";"1";"37";"1";"2";"5";"2";"[14,27,33]";"1";"0";"1"
"1391";"39";"1";"1";"21";"1";"2";"5";"2";"[5,13,16,26,28,31,32,33,36]";"2";"0";"1"
"1392";"11";"2";"1";"31";"1";"2";"5";"2";"[5,21,29]";"2";"0";"1"
"1393";"17";"2";"1";"9";"1";"2";"5";"2";"[29,35]";"2";"0";"1"
"1394";"37";"2";"1";"2";"1";"2";"5";"2";"[15,36,39]";"2";"0";"1"
"1395";"16";"2";"1";"37";"1";"2";"5";"2";"[14,27,33]";"1";"0";"1"
"1396";"26";"2";"1";"33";"1";"2";"5";"1";"[10,21,32,37]";"1";"0";"1"
"1397";"27";"2";"1";"16";"1";"2";"5";"2";"[1,3,8,21,24]";"2";"0";"1"
"1398";"10";"2";"1";"4";"1";"2";"5";"2";"[1,14,17,25]";"1";"0";"1"
"1399";"28";"2";"1";"6";"1";"2";"5";"2";"[5,26,32]";"2";"0";"1"
"1400";"38";"2";"1";"28";"1";"2";"5";"1";"[10,17,21,24,26,34]";"1";"0";"1"
"1401";"19";"2";"1";"40";"1";"2";"5";"1";"[3,14,23,26]";"1";"0";"1"
"1402";"39";"3";"1";"21";"1";"2";"5";"2";"[5,13,16,26,28,31,32,33,36]";"2";"0";"1"
"1403";"31";"3";"1";"22";"1";"2";"5";"1";"[14,26,27,39]";"1";"0";"1"
"1404";"40";"3";"1";"36";"1";"2";"5";"2";"[2,21,24,32]";"2";"0";"1"
"1405";"34";"3";"1";"35";"1";"2";"5";"2";"[9,11]";"1";"0";"1"
"1406";"8";"3";"1";"34";"1";"2";"5";"1";"[28]";"1";"0";"1"
"1407";"11";"3";"1";"31";"1";"2";"5";"2";"[5,21,29]";"2";"0";"1"
"1408";"37";"3";"1";"2";"1";"2";"5";"2";"[15,36,39]";"2";"0";"1"
"1409";"26";"3";"1";"33";"1";"2";"5";"1";"[10,21,32,37]";"1";"0";"1"
"1410";"27";"3";"1";"16";"1";"2";"5";"2";"[1,3,8,21,24]";"2";"0";"1"
"1411";"10";"3";"1";"4";"1";"2";"5";"2";"[1,14,17,25]";"1";"0";"1"
"1412";"14";"3";"1";"13";"1";"2";"5";"2";"[21,30]";"2";"0";"1"
"1413";"29";"3";"1";"26";"1";"2";"5";"1";"[6,11,19,21,22,25,28,32,40]";"1";"0";"1"
"1414";"28";"3";"1";"6";"1";"2";"5";"2";"[5,26,32]";"2";"0";"1"
"1415";"35";"3";"1";"30";"1";"2";"5";"2";"[13]";"2";"0";"1"
"1416";"5";"3";"1";"20";"1";"2";"5";"2";"[3,7,25]";"2";"0";"1"
"1417";"3";"3";"1";"32";"1";"2";"5";"2";"[6,21,26,33,36]";"2";"0";"1"
"1418";"38";"3";"1";"28";"1";"2";"5";"1";"[10,17,21,24,26,34]";"1";"0";"1"
"1419";"19";"3";"1";"40";"1";"2";"5";"1";"[3,14,23,26]";"1";"0";"1"
"1420";"31";"4";"1";"22";"1";"2";"5";"1";"[14,26,27,39]";"1";"0";"1"
"1421";"40";"4";"1";"36";"1";"2";"5";"2";"[2,21,24,32]";"2";"0";"1"
"1422";"22";"4";"1";"38";"1";"2";"5";"1";"[10,17]";"1";"0";"1"
"1423";"34";"4";"1";"35";"1";"2";"5";"2";"[9,11]";"1";"0";"1"
"1424";"8";"4";"1";"34";"1";"2";"5";"1";"[28]";"1";"0";"1"
"1425";"1";"4";"1";"18";"1";"2";"5";"2";"[17,23]";"1";"0";"1"
"1426";"14";"4";"1";"13";"1";"2";"5";"2";"[21,30]";"2";"0";"1"
"1427";"29";"4";"1";"26";"1";"2";"5";"1";"[6,11,19,21,22,25,28,32,40]";"1";"0";"1"
"1428";"12";"4";"1";"8";"1";"2";"5";"1";"[7,14,16]";"2";"0";"1"
"1429";"35";"4";"1";"30";"1";"2";"5";"2";"[13]";"2";"0";"1"
"1430";"5";"4";"1";"20";"1";"2";"5";"2";"[3,7,25]";"2";"0";"1"
"1431";"3";"4";"1";"32";"1";"2";"5";"2";"[6,21,26,33,36]";"2";"0";"1"
"1432";"6";"5";"1";"12";"1";"2";"5";"2";"[10,29]";"2";"0";"1"
"1433";"22";"5";"1";"38";"1";"2";"5";"1";"[10,17]";"1";"0";"1"
"1434";"1";"5";"1";"18";"1";"2";"5";"2";"[17,23]";"1";"0";"1"
"1435";"12";"5";"1";"8";"1";"2";"5";"1";"[7,14,16]";"2";"0";"1"
"1436";"6";"6";"1";"12";"1";"2";"5";"2";"[10,29]";"2";"0";"1"
"1437";"15";"6";"1";"3";"1";"2";"5";"2";"[7,15,16,20,29,40]";"1";"0";"1"
"1438";"33";"7";"1";"29";"1";"2";"5";"1";"[3,9,12,31,39]";"2";"0";"1"
"1439";"13";"7";"1";"23";"1";"2";"5";"1";"[18,27,40]";"1";"0";"1"
"1440";"15";"7";"1";"3";"1";"2";"5";"2";"[7,15,16,20,29,40]";"1";"0";"1"
"1441";"20";"8";"1";"11";"1";"2";"5";"1";"[5,15,26,35]";"1";"0";"1"
"1442";"33";"8";"1";"29";"1";"2";"5";"1";"[3,9,12,31,39]";"2";"0";"1"
"1443";"13";"8";"1";"23";"1";"2";"5";"1";"[18,27,40]";"1";"0";"1"
"1444";"30";"8";"1";"25";"1";"2";"5";"2";"[4,15,17,20,26]";"2";"0";"1"
"1445";"20";"9";"1";"11";"1";"2";"5";"1";"[5,15,26,35]";"1";"0";"1"
"1446";"30";"9";"1";"25";"1";"2";"5";"2";"[4,15,17,20,26]";"2";"0";"1"
"1447";"18";"9";"1";"5";"1";"2";"5";"2";"[6,11,21,31]";"2";"0";"1"
"1448";"2";"10";"1";"15";"1";"2";"5";"1";"[2,3,11,25]";"2";"0";"1"
"1449";"18";"10";"1";"5";"1";"2";"5";"2";"[6,11,21,31]";"2";"0";"1"
"1450";"21";"10";"1";"10";"1";"2";"5";"2";"[12,19,28,33,38]";"2";"0";"1"
"1451";"25";"11";"1";"17";"1";"2";"5";"2";"[1,4,7,14,18,25,28,38]";"1";"0";"1"
"1452";"2";"11";"1";"15";"1";"2";"5";"1";"[2,3,11,25]";"2";"0";"1"
"1453";"23";"11";"1";"39";"1";"2";"5";"1";"[2,19,22,29]";"2";"0";"1"
"1454";"21";"11";"1";"10";"1";"2";"5";"2";"[12,19,28,33,38]";"2";"0";"1"
"1455";"25";"12";"1";"17";"1";"2";"5";"2";"[1,4,7,14,18,25,28,38]";"1";"0";"1"
"1456";"23";"12";"1";"39";"1";"2";"5";"1";"[2,19,22,29]";"2";"0";"1"
"1457";"36";"12";"1";"24";"1";"2";"5";"2";"[16,27,28,36]";"2";"0";"1"
"1458";"36";"13";"1";"24";"1";"2";"5";"2";"[16,27,28,36]";"2";"0";"1"
"1459";"4";"14";"1";"14";"1";"2";"5";"2";"[4,8,17,22,37,40]";"1";"0";"1"
