"id";"id_subj";"time";"session";"id_grp";"grp";"round";"period";"sig";"links";"choice";"hist";"active"
"1";"7";"0";"1";"6";"1";"1";"1";"1";"[2,7,8,9,10]";"0";"0";"1"
"2";"10";"0";"1";"6";"4";"1";"1";"1";"[2,7,8,9,10]";"0";"0";"1"
"3";"29";"0";"1";"10";"4";"1";"1";"1";"[6,7,8,9]";"0";"0";"1"
"4";"19";"0";"1";"4";"2";"1";"1";"2";"[1,2,5]";"0";"0";"1"
"5";"5";"0";"1";"2";"2";"1";"1";"1";"[1,3,4,5,6]";"0";"0";"1"
"6";"40";"0";"1";"1";"2";"1";"1";"2";"[2,3,4,5]";"0";"0";"1"
"7";"15";"0";"1";"9";"2";"1";"1";"1";"[6,7,8,10]";"0";"0";"1"
"8";"27";"0";"1";"7";"4";"1";"1";"1";"[6,8,9,10]";"0";"0";"1"
"9";"4";"0";"1";"2";"4";"1";"1";"1";"[1,3,4,5,6]";"0";"0";"1"
"10";"23";"0";"1";"1";"4";"1";"1";"1";"[2,3,4,5]";"0";"0";"1"
"11";"21";"0";"1";"10";"1";"1";"1";"1";"[6,7,8,9]";"0";"0";"1"
"12";"24";"0";"1";"5";"4";"1";"1";"1";"[1,2,3,4]";"0";"0";"1"
"13";"22";"0";"1";"5";"1";"1";"1";"1";"[1,2,3,4]";"0";"0";"1"
"14";"33";"0";"1";"9";"1";"1";"1";"1";"[6,7,8,10]";"0";"0";"1"
"15";"6";"0";"1";"10";"2";"1";"1";"2";"[6,7,8,9]";"0";"0";"1"
"16";"12";"0";"1";"7";"1";"1";"1";"1";"[6,8,9,10]";"0";"0";"1"
"17";"26";"0";"1";"3";"2";"1";"1";"1";"[1,2,5]";"0";"0";"1"
"18";"35";"0";"1";"5";"3";"1";"1";"2";"[1,2,3,4]";"0";"0";"1"
"19";"11";"0";"1";"2";"3";"1";"1";"1";"[1,3,4,5,6]";"0";"0";"1"
"20";"31";"0";"1";"8";"4";"1";"1";"1";"[6,7,9,10]";"0";"0";"1"
"21";"2";"0";"1";"5";"2";"1";"1";"2";"[1,2,3,4]";"0";"0";"1"
"22";"39";"0";"1";"6";"3";"1";"1";"2";"[2,7,8,9,10]";"0";"0";"1"
"23";"30";"0";"1";"1";"3";"1";"1";"2";"[2,3,4,5]";"0";"0";"1"
"24";"32";"0";"1";"6";"2";"1";"1";"1";"[2,7,8,9,10]";"0";"0";"1"
"25";"34";"0";"1";"9";"3";"1";"1";"2";"[6,7,8,10]";"0";"0";"1"
"26";"37";"0";"1";"1";"1";"1";"1";"2";"[2,3,4,5]";"0";"0";"1"
"27";"18";"0";"1";"8";"2";"1";"1";"2";"[6,7,9,10]";"0";"0";"1"
"28";"1";"0";"1";"10";"3";"1";"1";"2";"[6,7,8,9]";"0";"0";"1"
"29";"28";"0";"1";"4";"1";"1";"1";"2";"[1,2,5]";"0";"0";"1"
"30";"13";"0";"1";"7";"3";"1";"1";"2";"[6,8,9,10]";"0";"0";"1"
"31";"38";"0";"1";"3";"1";"1";"1";"2";"[1,2,5]";"0";"0";"1"
"32";"9";"0";"1";"4";"4";"1";"1";"1";"[1,2,5]";"0";"0";"1"
"33";"3";"0";"1";"8";"3";"1";"1";"2";"[6,7,9,10]";"0";"0";"1"
"34";"25";"0";"1";"3";"4";"1";"1";"1";"[1,2,5]";"0";"0";"1"
"35";"17";"0";"1";"3";"3";"1";"1";"1";"[1,2,5]";"0";"0";"1"
"36";"16";"0";"1";"8";"1";"1";"1";"2";"[6,7,9,10]";"0";"0";"1"
"37";"36";"0";"1";"2";"1";"1";"1";"1";"[1,3,4,5,6]";"0";"0";"1"
"38";"8";"0";"1";"7";"2";"1";"1";"1";"[6,8,9,10]";"0";"0";"1"
"39";"14";"0";"1";"4";"3";"1";"1";"2";"[1,2,5]";"0";"0";"1"
"40";"20";"0";"1";"9";"4";"1";"1";"2";"[6,7,8,10]";"0";"0";"1"
"41";"18";"3";"1";"8";"2";"1";"1";"2";"[6,7,9,10]";"2";"0";"1"
"42";"32";"4";"1";"6";"2";"1";"1";"1";"[2,7,8,9,10]";"1";"0";"1"
"43";"7";"4";"1";"6";"1";"1";"1";"1";"[2,7,8,9,10]";"1";"0";"1"
"44";"3";"4";"1";"8";"3";"1";"1";"2";"[6,7,9,10]";"2";"0";"1"
"45";"18";"4";"1";"8";"2";"1";"1";"2";"[6,7,9,10]";"2";"0";"1"
"46";"32";"5";"1";"6";"2";"1";"1";"1";"[2,7,8,9,10]";"1";"0";"1"
"47";"5";"5";"1";"2";"2";"1";"1";"1";"[1,3,4,5,6]";"1";"0";"1"
"48";"19";"5";"1";"4";"2";"1";"1";"2";"[1,2,5]";"2";"0";"1"
"49";"7";"5";"1";"6";"1";"1";"1";"1";"[2,7,8,9,10]";"1";"0";"1"
"50";"15";"5";"1";"9";"2";"1";"1";"1";"[6,7,8,10]";"1";"0";"1"
"51";"22";"5";"1";"5";"1";"1";"1";"1";"[1,2,3,4]";"1";"0";"1"
"52";"3";"5";"1";"8";"3";"1";"1";"2";"[6,7,9,10]";"2";"0";"1"
"53";"30";"5";"1";"1";"3";"1";"1";"2";"[2,3,4,5]";"2";"0";"1"
"54";"33";"6";"1";"9";"1";"1";"1";"1";"[6,7,8,10]";"1";"0";"1"
"55";"6";"6";"1";"10";"2";"1";"1";"2";"[6,7,8,9]";"2";"0";"1"
"56";"5";"6";"1";"2";"2";"1";"1";"1";"[1,3,4,5,6]";"1";"0";"1"
"57";"19";"6";"1";"4";"2";"1";"1";"2";"[1,2,5]";"2";"0";"1"
"58";"37";"6";"1";"1";"1";"1";"1";"2";"[2,3,4,5]";"2";"0";"1"
"59";"15";"6";"1";"9";"2";"1";"1";"1";"[6,7,8,10]";"1";"0";"1"
"60";"22";"6";"1";"5";"1";"1";"1";"1";"[1,2,3,4]";"1";"0";"1"
"61";"36";"6";"1";"2";"1";"1";"1";"1";"[1,3,4,5,6]";"1";"0";"1"
"62";"4";"6";"1";"2";"4";"1";"1";"1";"[1,3,4,5,6]";"1";"0";"1"
"63";"30";"6";"1";"1";"3";"1";"1";"2";"[2,3,4,5]";"2";"0";"1"
"64";"33";"7";"1";"9";"1";"1";"1";"1";"[6,7,8,10]";"1";"0";"1"
"65";"16";"7";"1";"8";"1";"1";"1";"2";"[6,7,9,10]";"2";"0";"1"
"66";"6";"7";"1";"10";"2";"1";"1";"2";"[6,7,8,9]";"2";"0";"1"
"67";"11";"7";"1";"2";"3";"1";"1";"1";"[1,3,4,5,6]";"2";"0";"1"
"68";"37";"7";"1";"1";"1";"1";"1";"2";"[2,3,4,5]";"2";"0";"1"
"69";"13";"7";"1";"7";"3";"1";"1";"2";"[6,8,9,10]";"2";"0";"1"
"70";"36";"7";"1";"2";"1";"1";"1";"1";"[1,3,4,5,6]";"1";"0";"1"
"71";"4";"7";"1";"2";"4";"1";"1";"1";"[1,3,4,5,6]";"1";"0";"1"
"72";"31";"7";"1";"8";"4";"1";"1";"1";"[6,7,9,10]";"1";"0";"1"
"73";"40";"7";"1";"1";"2";"1";"1";"2";"[2,3,4,5]";"1";"0";"1"
"74";"16";"8";"1";"8";"1";"1";"1";"2";"[6,7,9,10]";"2";"0";"1"
"75";"8";"8";"1";"7";"2";"1";"1";"1";"[6,8,9,10]";"1";"0";"1"
"76";"11";"8";"1";"2";"3";"1";"1";"1";"[1,3,4,5,6]";"2";"0";"1"
"77";"13";"8";"1";"7";"3";"1";"1";"2";"[6,8,9,10]";"2";"0";"1"
"78";"24";"8";"1";"5";"4";"1";"1";"1";"[1,2,3,4]";"2";"0";"1"
"79";"31";"8";"1";"8";"4";"1";"1";"1";"[6,7,9,10]";"1";"0";"1"
"80";"40";"8";"1";"1";"2";"1";"1";"2";"[2,3,4,5]";"1";"0";"1"
"81";"34";"8";"1";"9";"3";"1";"1";"2";"[6,7,8,10]";"2";"0";"1"
"82";"27";"8";"1";"7";"4";"1";"1";"1";"[6,8,9,10]";"1";"0";"1"
"83";"29";"9";"1";"10";"4";"1";"1";"1";"[6,7,8,9]";"1";"0";"1"
"84";"17";"9";"1";"3";"3";"1";"1";"1";"[1,2,5]";"1";"0";"1"
"85";"8";"9";"1";"7";"2";"1";"1";"1";"[6,8,9,10]";"1";"0";"1"
"86";"14";"9";"1";"4";"3";"1";"1";"2";"[1,2,5]";"2";"0";"1"
"87";"20";"9";"1";"9";"4";"1";"1";"2";"[6,7,8,10]";"2";"0";"1"
"88";"24";"9";"1";"5";"4";"1";"1";"1";"[1,2,3,4]";"2";"0";"1"
"89";"34";"9";"1";"9";"3";"1";"1";"2";"[6,7,8,10]";"2";"0";"1"
"90";"27";"9";"1";"7";"4";"1";"1";"1";"[6,8,9,10]";"1";"0";"1"
"91";"29";"10";"1";"10";"4";"1";"1";"1";"[6,7,8,9]";"1";"0";"1"
"92";"17";"10";"1";"3";"3";"1";"1";"1";"[1,2,5]";"1";"0";"1"
"93";"14";"10";"1";"4";"3";"1";"1";"2";"[1,2,5]";"2";"0";"1"
"94";"12";"10";"1";"7";"1";"1";"1";"1";"[6,8,9,10]";"1";"0";"1"
"95";"20";"10";"1";"9";"4";"1";"1";"2";"[6,7,8,10]";"2";"0";"1"
"96";"9";"10";"1";"4";"4";"1";"1";"1";"[1,2,5]";"1";"0";"1"
"97";"12";"11";"1";"7";"1";"1";"1";"1";"[6,8,9,10]";"1";"0";"1"
"98";"9";"11";"1";"4";"4";"1";"1";"1";"[1,2,5]";"1";"0";"1"
"99";"28";"12";"1";"4";"1";"1";"1";"2";"[1,2,5]";"2";"0";"1"
"100";"26";"12";"1";"3";"2";"1";"1";"1";"[1,2,5]";"2";"0";"1"
"101";"35";"12";"1";"5";"3";"1";"1";"2";"[1,2,3,4]";"2";"0";"1"
"102";"25";"12";"1";"3";"4";"1";"1";"1";"[1,2,5]";"1";"0";"1"
"103";"1";"12";"1";"10";"3";"1";"1";"2";"[6,7,8,9]";"2";"0";"1"
"104";"28";"13";"1";"4";"1";"1";"1";"2";"[1,2,5]";"2";"0";"1"
"105";"26";"13";"1";"3";"2";"1";"1";"1";"[1,2,5]";"2";"0";"1"
"106";"35";"13";"1";"5";"3";"1";"1";"2";"[1,2,3,4]";"2";"0";"1"
"107";"25";"13";"1";"3";"4";"1";"1";"1";"[1,2,5]";"1";"0";"1"
"108";"10";"13";"1";"6";"4";"1";"1";"1";"[2,7,8,9,10]";"1";"0";"1"
"109";"1";"13";"1";"10";"3";"1";"1";"2";"[6,7,8,9]";"2";"0";"1"
"110";"10";"14";"1";"6";"4";"1";"1";"1";"[2,7,8,9,10]";"1";"0";"1"
"111";"23";"14";"1";"1";"4";"1";"1";"1";"[2,3,4,5]";"1";"0";"1"
"112";"23";"15";"1";"1";"4";"1";"1";"1";"[2,3,4,5]";"1";"0";"1"
"113";"2";"18";"1";"5";"2";"1";"1";"2";"[1,2,3,4]";"2";"0";"1"
"114";"2";"20";"1";"5";"2";"1";"1";"2";"[1,2,3,4]";"2";"0";"1"
"115";"38";"20";"1";"3";"1";"1";"1";"2";"[1,2,5]";"2";"0";"1"
"116";"38";"21";"1";"3";"1";"1";"1";"2";"[1,2,5]";"2";"0";"1"
"117";"39";"25";"1";"6";"3";"1";"1";"2";"[2,7,8,9,10]";"2";"0";"1"
"118";"39";"26";"1";"6";"3";"1";"1";"2";"[2,7,8,9,10]";"2";"0";"1"
"119";"21";"30";"1";"10";"1";"1";"1";"1";"[6,7,8,9]";"0";"0";"1"
"120";"0";"30";"1";"10";"1";"1";"1";"1";"[6,7,8,9]";"1";"0";"0"
"121";"7";"3";"1";"6";"1";"1";"2";"1";"[2,7,8,9,10]";"1";"0";"1"
"122";"32";"33";"1";"6";"2";"1";"2";"1";"[2,7,8,9,10]";"1";"0";"1"
"123";"4";"33";"1";"2";"4";"1";"2";"1";"[1,3,4,5,6]";"1";"0";"1"
"124";"7";"4";"1";"6";"1";"1";"2";"1";"[2,7,8,9,10]";"1";"0";"1"
"125";"32";"34";"1";"6";"2";"1";"2";"1";"[2,7,8,9,10]";"1";"0";"1"
"126";"4";"34";"1";"2";"4";"1";"2";"1";"[1,3,4,5,6]";"1";"0";"1"
"127";"40";"34";"1";"1";"2";"1";"2";"2";"[2,3,4,5]";"2";"0";"1"
"128";"3";"35";"1";"8";"3";"1";"2";"2";"[6,7,9,10]";"2";"0";"1"
"129";"34";"35";"1";"9";"3";"1";"2";"2";"[6,7,8,10]";"2";"0";"1"
"130";"6";"35";"1";"10";"2";"1";"2";"2";"[6,7,8,9]";"1";"0";"1"
"131";"40";"35";"1";"1";"2";"1";"2";"2";"[2,3,4,5]";"2";"0";"1"
"132";"25";"35";"1";"3";"4";"1";"2";"1";"[1,2,5]";"1";"0";"1"
"133";"3";"36";"1";"8";"3";"1";"2";"2";"[6,7,9,10]";"2";"0";"1"
"134";"5";"36";"1";"2";"2";"1";"2";"1";"[1,3,4,5,6]";"1";"0";"1"
"135";"34";"36";"1";"9";"3";"1";"2";"2";"[6,7,8,10]";"2";"0";"1"
"136";"6";"36";"1";"10";"2";"1";"2";"2";"[6,7,8,9]";"1";"0";"1"
"137";"30";"36";"1";"1";"3";"1";"2";"2";"[2,3,4,5]";"2";"0";"1"
"138";"33";"6";"1";"9";"1";"1";"2";"1";"[6,7,8,10]";"1";"0";"1"
"139";"25";"36";"1";"3";"4";"1";"2";"1";"[1,2,5]";"1";"0";"1"
"140";"29";"37";"1";"10";"4";"1";"2";"1";"[6,7,8,9]";"1";"0";"1"
"141";"14";"37";"1";"4";"3";"1";"2";"2";"[1,2,5]";"2";"0";"1"
"142";"5";"37";"1";"2";"2";"1";"2";"1";"[1,3,4,5,6]";"1";"0";"1"
"143";"30";"37";"1";"1";"3";"1";"2";"2";"[2,3,4,5]";"2";"0";"1"
"144";"33";"7";"1";"9";"1";"1";"2";"1";"[6,7,8,10]";"1";"0";"1"
"145";"12";"8";"1";"7";"1";"1";"2";"1";"[6,8,9,10]";"1";"0";"1"
"146";"29";"38";"1";"10";"4";"1";"2";"1";"[6,7,8,9]";"1";"0";"1"
"147";"27";"38";"1";"7";"4";"1";"2";"1";"[6,8,9,10]";"1";"0";"1"
"148";"14";"38";"1";"4";"3";"1";"2";"2";"[1,2,5]";"2";"0";"1"
"149";"26";"38";"1";"3";"2";"1";"2";"1";"[1,2,5]";"2";"0";"1"
"150";"31";"38";"1";"8";"4";"1";"2";"1";"[6,7,9,10]";"1";"0";"1"
"151";"19";"38";"1";"4";"2";"1";"2";"2";"[1,2,5]";"2";"0";"1"
"152";"11";"38";"1";"2";"3";"1";"2";"1";"[1,3,4,5,6]";"1";"0";"1"
"153";"13";"38";"1";"7";"3";"1";"2";"2";"[6,8,9,10]";"2";"0";"1"
"154";"15";"38";"1";"9";"2";"1";"2";"1";"[6,7,8,10]";"1";"0";"1"
"155";"12";"9";"1";"7";"1";"1";"2";"1";"[6,8,9,10]";"1";"0";"1"
"156";"27";"39";"1";"7";"4";"1";"2";"1";"[6,8,9,10]";"1";"0";"1"
"157";"26";"39";"1";"3";"2";"1";"2";"1";"[1,2,5]";"2";"0";"1"
"158";"1";"39";"1";"10";"3";"1";"2";"2";"[6,7,8,9]";"2";"0";"1"
"159";"38";"9";"1";"3";"1";"1";"2";"2";"[1,2,5]";"2";"0";"1"
"160";"31";"39";"1";"8";"4";"1";"2";"1";"[6,7,9,10]";"1";"0";"1"
"161";"19";"39";"1";"4";"2";"1";"2";"2";"[1,2,5]";"2";"0";"1"
"162";"16";"9";"1";"8";"1";"1";"2";"2";"[6,7,9,10]";"1";"0";"1"
"163";"11";"39";"1";"2";"3";"1";"2";"1";"[1,3,4,5,6]";"1";"0";"1"
"164";"13";"39";"1";"7";"3";"1";"2";"2";"[6,8,9,10]";"2";"0";"1"
"165";"9";"39";"1";"4";"4";"1";"2";"1";"[1,2,5]";"1";"0";"1"
"166";"15";"39";"1";"9";"2";"1";"2";"1";"[6,7,8,10]";"1";"0";"1"
"167";"1";"40";"1";"10";"3";"1";"2";"2";"[6,7,8,9]";"2";"0";"1"
"168";"38";"10";"1";"3";"1";"1";"2";"2";"[1,2,5]";"2";"0";"1"
"169";"16";"10";"1";"8";"1";"1";"2";"2";"[6,7,9,10]";"1";"0";"1"
"170";"17";"40";"1";"3";"3";"1";"2";"1";"[1,2,5]";"1";"0";"1"
"171";"9";"40";"1";"4";"4";"1";"2";"1";"[1,2,5]";"1";"0";"1"
"172";"18";"41";"1";"8";"2";"1";"2";"2";"[6,7,9,10]";"1";"0";"1"
"173";"8";"41";"1";"7";"2";"1";"2";"1";"[6,8,9,10]";"1";"0";"1"
"174";"24";"41";"1";"5";"4";"1";"2";"1";"[1,2,3,4]";"2";"0";"1"
"175";"37";"11";"1";"1";"1";"1";"2";"2";"[2,3,4,5]";"2";"0";"1"
"176";"17";"41";"1";"3";"3";"1";"2";"1";"[1,2,5]";"1";"0";"1"
"177";"35";"41";"1";"5";"3";"1";"2";"2";"[1,2,3,4]";"2";"0";"1"
"178";"18";"42";"1";"8";"2";"1";"2";"2";"[6,7,9,10]";"1";"0";"1"
"179";"20";"42";"1";"9";"4";"1";"2";"2";"[6,7,8,10]";"1";"0";"1"
"180";"8";"42";"1";"7";"2";"1";"2";"1";"[6,8,9,10]";"1";"0";"1"
"181";"24";"42";"1";"5";"4";"1";"2";"1";"[1,2,3,4]";"2";"0";"1"
"182";"37";"12";"1";"1";"1";"1";"2";"2";"[2,3,4,5]";"2";"0";"1"
"183";"35";"42";"1";"5";"3";"1";"2";"2";"[1,2,3,4]";"2";"0";"1"
"184";"22";"13";"1";"5";"1";"1";"2";"1";"[1,2,3,4]";"2";"0";"1"
"185";"20";"43";"1";"9";"4";"1";"2";"2";"[6,7,8,10]";"1";"0";"1"
"186";"23";"43";"1";"1";"4";"1";"2";"1";"[2,3,4,5]";"1";"0";"1"
"187";"22";"14";"1";"5";"1";"1";"2";"1";"[1,2,3,4]";"2";"0";"1"
"188";"23";"44";"1";"1";"4";"1";"2";"1";"[2,3,4,5]";"1";"0";"1"
"189";"28";"15";"1";"4";"1";"1";"2";"2";"[1,2,5]";"2";"0";"1"
"190";"2";"46";"1";"5";"2";"1";"2";"2";"[1,2,3,4]";"2";"0";"1"
"191";"28";"16";"1";"4";"1";"1";"2";"2";"[1,2,5]";"2";"0";"1"
"192";"2";"47";"1";"5";"2";"1";"2";"2";"[1,2,3,4]";"2";"0";"1"
"193";"39";"49";"1";"6";"3";"1";"2";"2";"[2,7,8,9,10]";"2";"0";"1"
"194";"39";"50";"1";"6";"3";"1";"2";"2";"[2,7,8,9,10]";"2";"0";"1"
"195";"10";"53";"1";"6";"4";"1";"2";"1";"[2,7,8,9,10]";"1";"0";"1"
"196";"10";"54";"1";"6";"4";"1";"2";"1";"[2,7,8,9,10]";"1";"0";"1"
"197";"36";"25";"1";"2";"1";"1";"2";"1";"[1,3,4,5,6]";"2";"0";"1"
"198";"36";"26";"1";"2";"1";"1";"2";"1";"[1,3,4,5,6]";"2";"0";"1"
"199";"21";"31";"1";"10";"1";"1";"2";"1";"[6,7,8,9]";"0";"0";"1"
"200";"0";"30";"1";"10";"1";"1";"2";"1";"[6,7,8,9]";"1";"0";"0"
"201";"4";"63";"1";"2";"4";"1";"3";"1";"[1,3,4,5,6]";"1";"0";"1"
"202";"7";"2";"1";"6";"1";"1";"3";"1";"[2,7,8,9,10]";"1";"0";"1"
"203";"32";"64";"1";"6";"2";"1";"3";"1";"[2,7,8,9,10]";"1";"0";"1"
"204";"4";"64";"1";"2";"4";"1";"3";"1";"[1,3,4,5,6]";"1";"0";"1"
"205";"27";"64";"1";"7";"4";"1";"3";"1";"[6,8,9,10]";"1";"0";"1"
"206";"7";"3";"1";"6";"1";"1";"3";"1";"[2,7,8,9,10]";"1";"0";"1"
"207";"12";"3";"1";"7";"1";"1";"3";"1";"[6,8,9,10]";"1";"0";"1"
"208";"10";"64";"1";"6";"4";"1";"3";"1";"[2,7,8,9,10]";"1";"0";"1"
"209";"11";"64";"1";"2";"3";"1";"3";"1";"[1,3,4,5,6]";"2";"0";"1"
"210";"40";"64";"1";"1";"2";"1";"3";"2";"[2,3,4,5]";"2";"0";"1"
"211";"18";"65";"1";"8";"2";"1";"3";"2";"[6,7,9,10]";"1";"0";"1"
"212";"6";"65";"1";"10";"2";"1";"3";"2";"[6,7,8,9]";"1";"0";"1"
"213";"32";"65";"1";"6";"2";"1";"3";"1";"[2,7,8,9,10]";"1";"0";"1"
"214";"27";"65";"1";"7";"4";"1";"3";"1";"[6,8,9,10]";"1";"0";"1"
"215";"37";"4";"1";"1";"1";"1";"3";"2";"[2,3,4,5]";"2";"0";"1"
"216";"12";"4";"1";"7";"1";"1";"3";"1";"[6,8,9,10]";"1";"0";"1"
"217";"15";"65";"1";"9";"2";"1";"3";"1";"[6,7,8,10]";"1";"0";"1"
"218";"10";"65";"1";"6";"4";"1";"3";"1";"[2,7,8,9,10]";"1";"0";"1"
"219";"11";"65";"1";"2";"3";"1";"3";"1";"[1,3,4,5,6]";"2";"0";"1"
"220";"40";"65";"1";"1";"2";"1";"3";"2";"[2,3,4,5]";"2";"0";"1"
"221";"33";"4";"1";"9";"1";"1";"3";"1";"[6,7,8,10]";"1";"0";"1"
"222";"18";"66";"1";"8";"2";"1";"3";"2";"[6,7,9,10]";"1";"0";"1"
"223";"6";"66";"1";"10";"2";"1";"3";"2";"[6,7,8,9]";"1";"0";"1"
"224";"29";"66";"1";"10";"4";"1";"3";"1";"[6,7,8,9]";"1";"0";"1"
"225";"37";"5";"1";"1";"1";"1";"3";"2";"[2,3,4,5]";"2";"0";"1"
"226";"19";"66";"1";"4";"2";"1";"3";"2";"[1,2,5]";"2";"0";"1"
"227";"5";"66";"1";"2";"2";"1";"3";"1";"[1,3,4,5,6]";"2";"0";"1"
"228";"15";"66";"1";"9";"2";"1";"3";"1";"[6,7,8,10]";"1";"0";"1"
"229";"33";"5";"1";"9";"1";"1";"3";"1";"[6,7,8,10]";"1";"0";"1"
"230";"25";"66";"1";"3";"4";"1";"3";"1";"[1,2,5]";"1";"0";"1"
"231";"30";"67";"1";"1";"3";"1";"3";"2";"[2,3,4,5]";"2";"0";"1"
"232";"29";"67";"1";"10";"4";"1";"3";"1";"[6,7,8,9]";"1";"0";"1"
"233";"19";"67";"1";"4";"2";"1";"3";"2";"[1,2,5]";"2";"0";"1"
"234";"5";"67";"1";"2";"2";"1";"3";"1";"[1,3,4,5,6]";"2";"0";"1"
"235";"31";"67";"1";"8";"4";"1";"3";"1";"[6,7,9,10]";"1";"0";"1"
"236";"25";"67";"1";"3";"4";"1";"3";"1";"[1,2,5]";"1";"0";"1"
"237";"24";"68";"1";"5";"4";"1";"3";"1";"[1,2,3,4]";"2";"0";"1"
"238";"23";"68";"1";"1";"4";"1";"3";"1";"[2,3,4,5]";"1";"0";"1"
"239";"30";"68";"1";"1";"3";"1";"3";"2";"[2,3,4,5]";"2";"0";"1"
"240";"8";"68";"1";"7";"2";"1";"3";"1";"[6,8,9,10]";"1";"0";"1"
"241";"31";"68";"1";"8";"4";"1";"3";"1";"[6,7,9,10]";"1";"0";"1"
"242";"24";"69";"1";"5";"4";"1";"3";"1";"[1,2,3,4]";"2";"0";"1"
"243";"16";"8";"1";"8";"1";"1";"3";"2";"[6,7,9,10]";"1";"0";"1"
"244";"23";"69";"1";"1";"4";"1";"3";"1";"[2,3,4,5]";"1";"0";"1"
"245";"22";"8";"1";"5";"1";"1";"3";"1";"[1,2,3,4]";"2";"0";"1"
"246";"8";"69";"1";"7";"2";"1";"3";"1";"[6,8,9,10]";"1";"0";"1"
"247";"1";"69";"1";"10";"3";"1";"3";"2";"[6,7,8,9]";"2";"0";"1"
"248";"16";"9";"1";"8";"1";"1";"3";"2";"[6,7,9,10]";"1";"0";"1"
"249";"22";"9";"1";"5";"1";"1";"3";"1";"[1,2,3,4]";"2";"0";"1"
"250";"1";"70";"1";"10";"3";"1";"3";"2";"[6,7,8,9]";"2";"0";"1"
"251";"38";"10";"1";"3";"1";"1";"3";"2";"[1,2,5]";"2";"0";"1"
"252";"26";"72";"1";"3";"2";"1";"3";"1";"[1,2,5]";"2";"0";"1"
"253";"38";"11";"1";"3";"1";"1";"3";"2";"[1,2,5]";"2";"0";"1"
"254";"34";"73";"1";"9";"3";"1";"3";"2";"[6,7,8,10]";"2";"0";"1"
"255";"28";"12";"1";"4";"1";"1";"3";"2";"[1,2,5]";"2";"0";"1"
"256";"26";"73";"1";"3";"2";"1";"3";"1";"[1,2,5]";"2";"0";"1"
"257";"34";"74";"1";"9";"3";"1";"3";"2";"[6,7,8,10]";"2";"0";"1"
"258";"28";"13";"1";"4";"1";"1";"3";"2";"[1,2,5]";"2";"0";"1"
"259";"3";"74";"1";"8";"3";"1";"3";"2";"[6,7,9,10]";"2";"0";"1"
"260";"35";"74";"1";"5";"3";"1";"3";"2";"[1,2,3,4]";"2";"0";"1"
"261";"14";"74";"1";"4";"3";"1";"3";"2";"[1,2,5]";"2";"0";"1"
"262";"4";"74";"1";"2";"4";"1";"3";"1";"[1,3,4,5,6]";"1";"1";"1"
"263";"3";"75";"1";"8";"3";"1";"3";"2";"[6,7,9,10]";"2";"0";"1"
"264";"13";"75";"1";"7";"3";"1";"3";"2";"[6,8,9,10]";"2";"0";"1"
"265";"35";"75";"1";"5";"3";"1";"3";"2";"[1,2,3,4]";"2";"0";"1"
"266";"14";"75";"1";"4";"3";"1";"3";"2";"[1,2,5]";"2";"0";"1"
"267";"36";"15";"1";"2";"1";"1";"3";"1";"[1,3,4,5,6]";"2";"0";"1"
"268";"4";"76";"1";"2";"4";"1";"3";"1";"[1,3,4,5,6]";"1";"2";"1"
"269";"13";"76";"1";"7";"3";"1";"3";"2";"[6,8,9,10]";"2";"0";"1"
"270";"36";"16";"1";"2";"1";"1";"3";"1";"[1,3,4,5,6]";"2";"0";"1"
"271";"17";"78";"1";"3";"3";"1";"3";"1";"[1,2,5]";"2";"0";"1"
"272";"34";"78";"1";"9";"3";"1";"3";"2";"[6,7,8,10]";"2";"3";"1"
"273";"17";"79";"1";"3";"3";"1";"3";"1";"[1,2,5]";"2";"0";"1"
"274";"9";"80";"1";"4";"4";"1";"3";"1";"[1,2,5]";"1";"0";"1"
"275";"20";"81";"1";"9";"4";"1";"3";"2";"[6,7,8,10]";"2";"0";"1"
"276";"9";"81";"1";"4";"4";"1";"3";"1";"[1,2,5]";"1";"0";"1"
"277";"2";"81";"1";"5";"2";"1";"3";"2";"[1,2,3,4]";"2";"0";"1"
"278";"20";"82";"1";"9";"4";"1";"3";"2";"[6,7,8,10]";"2";"0";"1"
"279";"2";"82";"1";"5";"2";"1";"3";"2";"[1,2,3,4]";"2";"0";"1"
"280";"23";"87";"1";"1";"4";"1";"3";"1";"[2,3,4,5]";"1";"1";"1"
"281";"39";"87";"1";"6";"3";"1";"3";"2";"[2,7,8,9,10]";"2";"0";"1"
"282";"8";"87";"1";"7";"2";"1";"3";"1";"[6,8,9,10]";"1";"1";"1"
"283";"23";"88";"1";"1";"4";"1";"3";"1";"[2,3,4,5]";"1";"2";"1"
"284";"39";"88";"1";"6";"3";"1";"3";"2";"[2,7,8,9,10]";"2";"0";"1"
"285";"8";"89";"1";"7";"2";"1";"3";"1";"[6,8,9,10]";"1";"2";"1"
"286";"21";"31";"1";"10";"1";"1";"3";"1";"[6,7,8,9]";"0";"0";"1"
"287";"0";"30";"1";"10";"1";"1";"3";"1";"[6,7,8,9]";"1";"0";"0"
"288";"12";"1";"1";"7";"1";"1";"4";"1";"[6,8,9,10]";"1";"0";"1"
"289";"32";"94";"1";"6";"2";"1";"4";"1";"[2,7,8,9,10]";"1";"0";"1"
"290";"7";"2";"1";"6";"1";"1";"4";"1";"[2,7,8,9,10]";"1";"0";"1"
"291";"16";"2";"1";"8";"1";"1";"4";"2";"[6,7,9,10]";"2";"0";"1"
"292";"12";"2";"1";"7";"1";"1";"4";"1";"[6,8,9,10]";"1";"0";"1"
"293";"4";"95";"1";"2";"4";"1";"4";"1";"[1,3,4,5,6]";"1";"0";"1"
"294";"19";"95";"1";"4";"2";"1";"4";"2";"[1,2,5]";"2";"0";"1"
"295";"23";"95";"1";"1";"4";"1";"4";"1";"[2,3,4,5]";"1";"0";"1"
"296";"32";"95";"1";"6";"2";"1";"4";"1";"[2,7,8,9,10]";"1";"0";"1"
"297";"7";"3";"1";"6";"1";"1";"4";"1";"[2,7,8,9,10]";"1";"0";"1"
"298";"16";"3";"1";"8";"1";"1";"4";"2";"[6,7,9,10]";"2";"0";"1"
"299";"10";"95";"1";"6";"4";"1";"4";"1";"[2,7,8,9,10]";"1";"0";"1"
"300";"40";"95";"1";"1";"2";"1";"4";"2";"[2,3,4,5]";"2";"0";"1"
"301";"4";"96";"1";"2";"4";"1";"4";"1";"[1,3,4,5,6]";"1";"0";"1"
"302";"35";"96";"1";"5";"3";"1";"4";"2";"[1,2,3,4]";"2";"0";"1"
"303";"12";"4";"1";"7";"1";"1";"4";"1";"[6,8,9,10]";"1";"1";"1"
"304";"19";"96";"1";"4";"2";"1";"4";"2";"[1,2,5]";"2";"0";"1"
"305";"29";"96";"1";"10";"4";"1";"4";"1";"[6,7,8,9]";"1";"0";"1"
"306";"37";"4";"1";"1";"1";"1";"4";"2";"[2,3,4,5]";"2";"0";"1"
"307";"18";"96";"1";"8";"2";"1";"4";"2";"[6,7,9,10]";"1";"0";"1"
"308";"33";"4";"1";"9";"1";"1";"4";"1";"[6,7,8,10]";"1";"0";"1"
"309";"36";"4";"1";"2";"1";"1";"4";"1";"[1,3,4,5,6]";"0";"2";"1"
"310";"30";"96";"1";"1";"3";"1";"4";"2";"[2,3,4,5]";"2";"0";"1"
"311";"4";"96";"1";"2";"4";"1";"4";"1";"[1,3,4,5,6]";"1";"2";"1"
"312";"15";"96";"1";"9";"2";"1";"4";"1";"[6,7,8,10]";"2";"0";"1"
"313";"3";"96";"1";"8";"3";"1";"4";"2";"[6,7,9,10]";"2";"0";"1"
"314";"23";"96";"1";"1";"4";"1";"4";"1";"[2,3,4,5]";"1";"0";"1"
"315";"10";"96";"1";"6";"4";"1";"4";"1";"[2,7,8,9,10]";"1";"0";"1"
"316";"40";"96";"1";"1";"2";"1";"4";"2";"[2,3,4,5]";"2";"0";"1"
"317";"36";"5";"1";"2";"1";"1";"4";"1";"[1,3,4,5,6]";"0";"1";"1"
"318";"20";"97";"1";"9";"4";"1";"4";"2";"[6,7,8,10]";"2";"0";"1"
"319";"35";"97";"1";"5";"3";"1";"4";"2";"[1,2,3,4]";"2";"0";"1"
"320";"29";"97";"1";"10";"4";"1";"4";"1";"[6,7,8,9]";"1";"0";"1"
"321";"37";"5";"1";"1";"1";"1";"4";"2";"[2,3,4,5]";"2";"0";"1"
"322";"18";"97";"1";"8";"2";"1";"4";"2";"[6,7,9,10]";"1";"0";"1"
"323";"33";"5";"1";"9";"1";"1";"4";"1";"[6,7,8,10]";"1";"0";"1"
"324";"30";"97";"1";"1";"3";"1";"4";"2";"[2,3,4,5]";"2";"0";"1"
"325";"15";"97";"1";"9";"2";"1";"4";"1";"[6,7,8,10]";"2";"0";"1"
"326";"3";"97";"1";"8";"3";"1";"4";"2";"[6,7,9,10]";"2";"0";"1"
"327";"25";"97";"1";"3";"4";"1";"4";"1";"[1,2,5]";"1";"0";"1"
"328";"6";"97";"1";"10";"2";"1";"4";"2";"[6,7,8,9]";"1";"0";"1"
"329";"12";"5";"1";"7";"1";"1";"4";"1";"[6,8,9,10]";"1";"2";"1"
"330";"38";"6";"1";"3";"1";"1";"4";"2";"[1,2,5]";"2";"0";"1"
"331";"20";"98";"1";"9";"4";"1";"4";"2";"[6,7,8,10]";"2";"0";"1"
"332";"8";"98";"1";"7";"2";"1";"4";"1";"[6,8,9,10]";"1";"0";"1"
"333";"27";"98";"1";"7";"4";"1";"4";"1";"[6,8,9,10]";"1";"0";"1"
"334";"4";"98";"1";"2";"4";"1";"4";"1";"[1,3,4,5,6]";"1";"3";"1"
"335";"25";"98";"1";"3";"4";"1";"4";"1";"[1,2,5]";"1";"0";"1"
"336";"6";"98";"1";"10";"2";"1";"4";"2";"[6,7,8,9]";"1";"0";"1"
"337";"13";"98";"1";"7";"3";"1";"4";"2";"[6,8,9,10]";"1";"0";"1"
"338";"38";"7";"1";"3";"1";"1";"4";"2";"[1,2,5]";"2";"0";"1"
"339";"8";"99";"1";"7";"2";"1";"4";"1";"[6,8,9,10]";"1";"0";"1"
"340";"27";"99";"1";"7";"4";"1";"4";"1";"[6,8,9,10]";"1";"0";"1"
"341";"13";"99";"1";"7";"3";"1";"4";"2";"[6,8,9,10]";"1";"0";"1"
"342";"12";"8";"1";"7";"1";"1";"4";"1";"[6,8,9,10]";"1";"3";"1"
"343";"24";"100";"1";"5";"4";"1";"4";"1";"[1,2,3,4]";"2";"0";"1"
"344";"36";"8";"1";"2";"1";"1";"4";"1";"[1,3,4,5,6]";"0";"6";"1"
"345";"22";"8";"1";"5";"1";"1";"4";"1";"[1,2,3,4]";"1";"0";"1"
"346";"24";"101";"1";"5";"4";"1";"4";"1";"[1,2,3,4]";"2";"0";"1"
"347";"12";"9";"1";"7";"1";"1";"4";"1";"[6,8,9,10]";"1";"4";"1"
"348";"1";"101";"1";"10";"3";"1";"4";"2";"[6,7,8,9]";"2";"0";"1"
"349";"22";"9";"1";"5";"1";"1";"4";"1";"[1,2,3,4]";"1";"0";"1"
"350";"17";"102";"1";"3";"3";"1";"4";"1";"[1,2,5]";"2";"0";"1"
"351";"1";"102";"1";"10";"3";"1";"4";"2";"[6,7,8,9]";"2";"0";"1"
"352";"31";"103";"1";"8";"4";"1";"4";"1";"[6,7,9,10]";"1";"0";"1"
"353";"36";"11";"1";"2";"1";"1";"4";"1";"[1,3,4,5,6]";"0";"1";"1"
"354";"9";"103";"1";"4";"4";"1";"4";"1";"[1,2,5]";"1";"0";"1"
"355";"17";"103";"1";"3";"3";"1";"4";"1";"[1,2,5]";"2";"0";"1"
"356";"28";"11";"1";"4";"1";"1";"4";"2";"[1,2,5]";"2";"0";"1"
"357";"14";"103";"1";"4";"3";"1";"4";"2";"[1,2,5]";"2";"0";"1"
"358";"26";"103";"1";"3";"2";"1";"4";"1";"[1,2,5]";"2";"0";"1"
"359";"5";"104";"1";"2";"2";"1";"4";"1";"[1,3,4,5,6]";"1";"0";"1"
"360";"31";"104";"1";"8";"4";"1";"4";"1";"[6,7,9,10]";"1";"0";"1"
"361";"9";"104";"1";"4";"4";"1";"4";"1";"[1,2,5]";"1";"0";"1"
"362";"28";"12";"1";"4";"1";"1";"4";"2";"[1,2,5]";"2";"0";"1"
"363";"2";"104";"1";"5";"2";"1";"4";"2";"[1,2,3,4]";"2";"0";"1"
"364";"26";"104";"1";"3";"2";"1";"4";"1";"[1,2,5]";"2";"0";"1"
"365";"14";"104";"1";"4";"3";"1";"4";"2";"[1,2,5]";"2";"0";"1"
"366";"5";"105";"1";"2";"2";"1";"4";"1";"[1,3,4,5,6]";"1";"0";"1"
"367";"2";"105";"1";"5";"2";"1";"4";"2";"[1,2,3,4]";"2";"0";"1"
"368";"36";"14";"1";"2";"1";"1";"4";"1";"[1,3,4,5,6]";"0";"4";"1"
"369";"36";"17";"1";"2";"1";"1";"4";"1";"[1,3,4,5,6]";"2";"4";"1"
"370";"34";"110";"1";"9";"3";"1";"4";"2";"[6,7,8,10]";"2";"0";"1"
"371";"36";"18";"1";"2";"1";"1";"4";"1";"[1,3,4,5,6]";"2";"4";"1"
"372";"34";"111";"1";"9";"3";"1";"4";"2";"[6,7,8,10]";"2";"0";"1"
"373";"40";"112";"1";"1";"2";"1";"4";"2";"[2,3,4,5]";"2";"1";"1"
"374";"39";"113";"1";"6";"3";"1";"4";"2";"[2,7,8,9,10]";"2";"0";"1"
"375";"40";"114";"1";"1";"2";"1";"4";"2";"[2,3,4,5]";"2";"7";"1"
"376";"11";"114";"1";"2";"3";"1";"4";"1";"[1,3,4,5,6]";"1";"0";"1"
"377";"39";"115";"1";"6";"3";"1";"4";"2";"[2,7,8,9,10]";"2";"0";"1"
"378";"11";"115";"1";"2";"3";"1";"4";"1";"[1,3,4,5,6]";"1";"0";"1"
"379";"40";"116";"1";"1";"2";"1";"4";"2";"[2,3,4,5]";"2";"1";"1"
"380";"40";"117";"1";"1";"2";"1";"4";"2";"[2,3,4,5]";"2";"2";"1"
"381";"40";"118";"1";"1";"2";"1";"4";"2";"[2,3,4,5]";"2";"4";"1"
"382";"36";"31";"1";"2";"1";"1";"4";"1";"[1,3,4,5,6]";"2";"1";"1"
"383";"21";"31";"1";"10";"1";"1";"4";"1";"[6,7,8,9]";"0";"0";"1"
"384";"0";"30";"1";"10";"1";"1";"4";"1";"[6,7,8,9]";"1";"0";"0"
"385";"37";"2";"1";"1";"1";"1";"5";"2";"[2,3,4,5]";"2";"0";"1"
"386";"32";"125";"1";"6";"2";"1";"5";"1";"[2,7,8,9,10]";"1";"0";"1"
"387";"29";"125";"1";"10";"4";"1";"5";"1";"[6,7,8,9]";"1";"0";"1"
"388";"19";"125";"1";"4";"2";"1";"5";"2";"[1,2,5]";"2";"0";"1"
"389";"23";"125";"1";"1";"4";"1";"5";"1";"[2,3,4,5]";"1";"0";"1"
"390";"7";"2";"1";"6";"1";"1";"5";"1";"[2,7,8,9,10]";"1";"0";"1"
"391";"15";"126";"1";"9";"2";"1";"5";"1";"[6,7,8,10]";"1";"0";"1"
"392";"36";"3";"1";"2";"1";"1";"5";"1";"[1,3,4,5,6]";"0";"7";"1"
"393";"24";"126";"1";"5";"4";"1";"5";"1";"[1,2,3,4]";"2";"0";"1"
"394";"37";"3";"1";"1";"1";"1";"5";"2";"[2,3,4,5]";"2";"0";"1"
"395";"32";"126";"1";"6";"2";"1";"5";"1";"[2,7,8,9,10]";"1";"0";"1"
"396";"20";"126";"1";"9";"4";"1";"5";"2";"[6,7,8,10]";"2";"0";"1"
"397";"30";"126";"1";"1";"3";"1";"5";"2";"[2,3,4,5]";"2";"0";"1"
"398";"29";"126";"1";"10";"4";"1";"5";"1";"[6,7,8,9]";"1";"0";"1"
"399";"19";"126";"1";"4";"2";"1";"5";"2";"[1,2,5]";"2";"0";"1"
"400";"23";"126";"1";"1";"4";"1";"5";"1";"[2,3,4,5]";"1";"0";"1"
"401";"4";"126";"1";"2";"4";"1";"5";"1";"[1,3,4,5,6]";"0";"3";"1"
"402";"7";"3";"1";"6";"1";"1";"5";"1";"[2,7,8,9,10]";"1";"0";"1"
"403";"18";"126";"1";"8";"2";"1";"5";"2";"[6,7,9,10]";"1";"0";"1"
"404";"15";"127";"1";"9";"2";"1";"5";"1";"[6,7,8,10]";"1";"0";"1"
"405";"9";"127";"1";"4";"4";"1";"5";"1";"[1,2,5]";"1";"0";"1"
"406";"35";"127";"1";"5";"3";"1";"5";"2";"[1,2,3,4]";"2";"0";"1"
"407";"33";"4";"1";"9";"1";"1";"5";"1";"[6,7,8,10]";"1";"0";"1"
"408";"24";"127";"1";"5";"4";"1";"5";"1";"[1,2,3,4]";"2";"0";"1"
"409";"40";"127";"1";"1";"2";"1";"5";"2";"[2,3,4,5]";"2";"0";"1"
"410";"1";"127";"1";"10";"3";"1";"5";"2";"[6,7,8,9]";"2";"0";"1"
"411";"20";"127";"1";"9";"4";"1";"5";"2";"[6,7,8,10]";"2";"0";"1"
"412";"16";"4";"1";"8";"1";"1";"5";"2";"[6,7,9,10]";"2";"0";"1"
"413";"4";"127";"1";"2";"4";"1";"5";"1";"[1,3,4,5,6]";"0";"2";"1"
"414";"30";"127";"1";"1";"3";"1";"5";"2";"[2,3,4,5]";"2";"0";"1"
"415";"18";"128";"1";"8";"2";"1";"5";"2";"[6,7,9,10]";"1";"0";"1"
"416";"9";"128";"1";"4";"4";"1";"5";"1";"[1,2,5]";"1";"0";"1"
"417";"35";"128";"1";"5";"3";"1";"5";"2";"[1,2,3,4]";"2";"0";"1"
"418";"33";"5";"1";"9";"1";"1";"5";"1";"[6,7,8,10]";"1";"0";"1"
"419";"31";"128";"1";"8";"4";"1";"5";"1";"[6,7,9,10]";"1";"0";"1"
"420";"40";"128";"1";"1";"2";"1";"5";"2";"[2,3,4,5]";"2";"0";"1"
"421";"1";"128";"1";"10";"3";"1";"5";"2";"[6,7,8,9]";"2";"0";"1"
"422";"16";"5";"1";"8";"1";"1";"5";"2";"[6,7,9,10]";"2";"0";"1"
"423";"13";"128";"1";"7";"3";"1";"5";"2";"[6,8,9,10]";"2";"0";"1"
"424";"25";"128";"1";"3";"4";"1";"5";"1";"[1,2,5]";"1";"0";"1"
"425";"27";"129";"1";"7";"4";"1";"5";"1";"[6,8,9,10]";"1";"0";"1"
"426";"6";"129";"1";"10";"2";"1";"5";"2";"[6,7,8,9]";"1";"0";"1"
"427";"4";"129";"1";"2";"4";"1";"5";"1";"[1,3,4,5,6]";"0";"4";"1"
"428";"31";"129";"1";"8";"4";"1";"5";"1";"[6,7,9,10]";"1";"0";"1"
"429";"5";"129";"1";"2";"2";"1";"5";"1";"[1,3,4,5,6]";"2";"0";"1"
"430";"10";"129";"1";"6";"4";"1";"5";"1";"[2,7,8,9,10]";"1";"0";"1"
"431";"13";"129";"1";"7";"3";"1";"5";"2";"[6,8,9,10]";"2";"0";"1"
"432";"4";"129";"1";"2";"4";"1";"5";"1";"[1,3,4,5,6]";"1";"4";"1"
"433";"25";"129";"1";"3";"4";"1";"5";"1";"[1,2,5]";"1";"0";"1"
"434";"27";"130";"1";"7";"4";"1";"5";"1";"[6,8,9,10]";"1";"0";"1"
"435";"6";"130";"1";"10";"2";"1";"5";"2";"[6,7,8,9]";"1";"0";"1"
"436";"12";"7";"1";"7";"1";"1";"5";"1";"[6,8,9,10]";"1";"0";"1"
"437";"11";"130";"1";"2";"3";"1";"5";"1";"[1,3,4,5,6]";"1";"0";"1"
"438";"5";"130";"1";"2";"2";"1";"5";"1";"[1,3,4,5,6]";"2";"0";"1"
"439";"10";"130";"1";"6";"4";"1";"5";"1";"[2,7,8,9,10]";"1";"0";"1"
"440";"4";"130";"1";"2";"4";"1";"5";"1";"[1,3,4,5,6]";"1";"4";"1"
"441";"8";"130";"1";"7";"2";"1";"5";"1";"[6,8,9,10]";"1";"0";"1"
"442";"12";"8";"1";"7";"1";"1";"5";"1";"[6,8,9,10]";"1";"0";"1"
"443";"11";"131";"1";"2";"3";"1";"5";"1";"[1,3,4,5,6]";"1";"0";"1"
"444";"3";"131";"1";"8";"3";"1";"5";"2";"[6,7,9,10]";"2";"0";"1"
"445";"8";"131";"1";"7";"2";"1";"5";"1";"[6,8,9,10]";"1";"0";"1"
"446";"3";"132";"1";"8";"3";"1";"5";"2";"[6,7,9,10]";"2";"0";"1"
"447";"38";"9";"1";"3";"1";"1";"5";"2";"[1,2,5]";"2";"0";"1"
"448";"38";"10";"1";"3";"1";"1";"5";"2";"[1,2,5]";"2";"0";"1"
"449";"34";"135";"1";"9";"3";"1";"5";"2";"[6,7,8,10]";"2";"0";"1"
"450";"26";"136";"1";"3";"2";"1";"5";"1";"[1,2,5]";"1";"0";"1"
"451";"34";"136";"1";"9";"3";"1";"5";"2";"[6,7,8,10]";"2";"0";"1"
"452";"26";"137";"1";"3";"2";"1";"5";"1";"[1,2,5]";"1";"0";"1"
"453";"17";"138";"1";"3";"3";"1";"5";"1";"[1,2,5]";"2";"0";"1"
"454";"39";"139";"1";"6";"3";"1";"5";"2";"[2,7,8,9,10]";"1";"0";"1"
"455";"17";"139";"1";"3";"3";"1";"5";"1";"[1,2,5]";"2";"0";"1"
"456";"39";"140";"1";"6";"3";"1";"5";"2";"[2,7,8,9,10]";"1";"0";"1"
"457";"36";"18";"1";"2";"1";"1";"5";"1";"[1,3,4,5,6]";"1";"7";"1"
"458";"14";"142";"1";"4";"3";"1";"5";"2";"[1,2,5]";"2";"0";"1"
"459";"36";"19";"1";"2";"1";"1";"5";"1";"[1,3,4,5,6]";"1";"7";"1"
"460";"14";"143";"1";"4";"3";"1";"5";"2";"[1,2,5]";"2";"0";"1"
"461";"22";"22";"1";"5";"1";"1";"5";"1";"[1,2,3,4]";"2";"0";"1"
"462";"28";"22";"1";"4";"1";"1";"5";"2";"[1,2,5]";"2";"0";"1"
"463";"2";"145";"1";"5";"2";"1";"5";"2";"[1,2,3,4]";"2";"0";"1"
"464";"22";"23";"1";"5";"1";"1";"5";"1";"[1,2,3,4]";"2";"0";"1"
"465";"28";"23";"1";"4";"1";"1";"5";"2";"[1,2,5]";"2";"0";"1"
"466";"2";"146";"1";"5";"2";"1";"5";"2";"[1,2,3,4]";"2";"0";"1"
"467";"26";"150";"1";"3";"2";"1";"5";"1";"[1,2,5]";"1";"3";"1"
"468";"26";"152";"1";"3";"2";"1";"5";"1";"[1,2,5]";"1";"4";"1"
"469";"21";"31";"1";"10";"1";"1";"5";"1";"[6,7,8,9]";"0";"0";"1"
"470";"0";"30";"1";"10";"1";"1";"5";"1";"[6,7,8,9]";"1";"0";"0"
"471";"32";"155";"1";"6";"2";"1";"6";"1";"[2,7,8,9,10]";"1";"0";"1"
"472";"40";"156";"1";"1";"2";"1";"6";"2";"[2,3,4,5]";"2";"0";"1"
"473";"7";"2";"1";"6";"1";"1";"6";"1";"[2,7,8,9,10]";"1";"0";"1"
"474";"25";"156";"1";"3";"4";"1";"6";"1";"[1,2,5]";"1";"0";"1"
"475";"19";"156";"1";"4";"2";"1";"6";"2";"[1,2,5]";"2";"0";"1"
"476";"15";"156";"1";"9";"2";"1";"6";"1";"[6,7,8,10]";"1";"0";"1"
"477";"35";"156";"1";"5";"3";"1";"6";"2";"[1,2,3,4]";"2";"0";"1"
"478";"27";"156";"1";"7";"4";"1";"6";"1";"[6,8,9,10]";"1";"0";"1"
"479";"10";"156";"1";"6";"4";"1";"6";"1";"[2,7,8,9,10]";"1";"0";"1"
"480";"32";"156";"1";"6";"2";"1";"6";"1";"[2,7,8,9,10]";"1";"0";"1"
"481";"30";"157";"1";"1";"3";"1";"6";"2";"[2,3,4,5]";"2";"0";"1"
"482";"23";"157";"1";"1";"4";"1";"6";"1";"[2,3,4,5]";"1";"0";"1"
"483";"40";"157";"1";"1";"2";"1";"6";"2";"[2,3,4,5]";"2";"0";"1"
"484";"7";"3";"1";"6";"1";"1";"6";"1";"[2,7,8,9,10]";"1";"0";"1"
"485";"25";"157";"1";"3";"4";"1";"6";"1";"[1,2,5]";"1";"0";"1"
"486";"18";"157";"1";"8";"2";"1";"6";"2";"[6,7,9,10]";"1";"0";"1"
"487";"29";"157";"1";"10";"4";"1";"6";"1";"[6,7,8,9]";"1";"0";"1"
"488";"12";"3";"1";"7";"1";"1";"6";"1";"[6,8,9,10]";"1";"0";"1"
"489";"8";"157";"1";"7";"2";"1";"6";"1";"[6,8,9,10]";"1";"0";"1"
"490";"19";"157";"1";"4";"2";"1";"6";"2";"[1,2,5]";"2";"0";"1"
"491";"34";"157";"1";"9";"3";"1";"6";"2";"[6,7,8,10]";"2";"0";"1"
"492";"15";"157";"1";"9";"2";"1";"6";"1";"[6,7,8,10]";"1";"0";"1"
"493";"4";"157";"1";"2";"4";"1";"6";"1";"[1,3,4,5,6]";"1";"0";"1"
"494";"35";"157";"1";"5";"3";"1";"6";"2";"[1,2,3,4]";"2";"0";"1"
"495";"27";"157";"1";"7";"4";"1";"6";"1";"[6,8,9,10]";"1";"0";"1"
"496";"33";"3";"1";"9";"1";"1";"6";"1";"[6,7,8,10]";"1";"0";"1"
"497";"10";"157";"1";"6";"4";"1";"6";"1";"[2,7,8,9,10]";"1";"0";"1"
"498";"30";"158";"1";"1";"3";"1";"6";"2";"[2,3,4,5]";"2";"0";"1"
"499";"23";"158";"1";"1";"4";"1";"6";"1";"[2,3,4,5]";"1";"0";"1"
"500";"24";"158";"1";"5";"4";"1";"6";"1";"[1,2,3,4]";"2";"0";"1"
"501";"18";"158";"1";"8";"2";"1";"6";"2";"[6,7,9,10]";"1";"0";"1"
"502";"29";"158";"1";"10";"4";"1";"6";"1";"[6,7,8,9]";"1";"0";"1"
"503";"1";"158";"1";"10";"3";"1";"6";"2";"[6,7,8,9]";"2";"0";"1"
"504";"12";"4";"1";"7";"1";"1";"6";"1";"[6,8,9,10]";"1";"0";"1"
"505";"8";"158";"1";"7";"2";"1";"6";"1";"[6,8,9,10]";"1";"0";"1"
"506";"34";"158";"1";"9";"3";"1";"6";"2";"[6,7,8,10]";"2";"0";"1"
"507";"4";"158";"1";"2";"4";"1";"6";"1";"[1,3,4,5,6]";"1";"0";"1"
"508";"33";"4";"1";"9";"1";"1";"6";"1";"[6,7,8,10]";"1";"0";"1"
"509";"6";"158";"1";"10";"2";"1";"6";"2";"[6,7,8,9]";"1";"0";"1"
"510";"24";"159";"1";"5";"4";"1";"6";"1";"[1,2,3,4]";"2";"0";"1"
"511";"17";"159";"1";"3";"3";"1";"6";"1";"[1,2,5]";"1";"0";"1"
"512";"1";"159";"1";"10";"3";"1";"6";"2";"[6,7,8,9]";"2";"0";"1"
"513";"16";"5";"1";"8";"1";"1";"6";"2";"[6,7,9,10]";"1";"0";"1"
"514";"31";"159";"1";"8";"4";"1";"6";"1";"[6,7,9,10]";"1";"0";"1"
"515";"6";"159";"1";"10";"2";"1";"6";"2";"[6,7,8,9]";"1";"0";"1"
"516";"17";"160";"1";"3";"3";"1";"6";"1";"[1,2,5]";"1";"0";"1"
"517";"16";"6";"1";"8";"1";"1";"6";"2";"[6,7,9,10]";"1";"0";"1"
"518";"37";"6";"1";"1";"1";"1";"6";"2";"[2,3,4,5]";"2";"0";"1"
"519";"31";"160";"1";"8";"4";"1";"6";"1";"[6,7,9,10]";"1";"0";"1"
"520";"2";"160";"1";"5";"2";"1";"6";"2";"[1,2,3,4]";"2";"0";"1"
"521";"37";"7";"1";"1";"1";"1";"6";"2";"[2,3,4,5]";"2";"0";"1"
"522";"2";"161";"1";"5";"2";"1";"6";"2";"[1,2,3,4]";"2";"0";"1"
"523";"5";"162";"1";"2";"2";"1";"6";"1";"[1,3,4,5,6]";"1";"0";"1"
"524";"5";"163";"1";"2";"2";"1";"6";"1";"[1,3,4,5,6]";"1";"0";"1"
"525";"3";"163";"1";"8";"3";"1";"6";"2";"[6,7,9,10]";"2";"0";"1"
"526";"22";"9";"1";"5";"1";"1";"6";"1";"[1,2,3,4]";"1";"0";"1"
"527";"3";"164";"1";"8";"3";"1";"6";"2";"[6,7,9,10]";"2";"0";"1"
"528";"22";"10";"1";"5";"1";"1";"6";"1";"[1,2,3,4]";"1";"0";"1"
"529";"28";"11";"1";"4";"1";"1";"6";"2";"[1,2,5]";"1";"0";"1"
"530";"20";"165";"1";"9";"4";"1";"6";"2";"[6,7,8,10]";"2";"0";"1"
"531";"28";"12";"1";"4";"1";"1";"6";"2";"[1,2,5]";"1";"0";"1"
"532";"20";"166";"1";"9";"4";"1";"6";"2";"[6,7,8,10]";"2";"0";"1"
"533";"14";"168";"1";"4";"3";"1";"6";"2";"[1,2,5]";"2";"0";"1"
"534";"38";"14";"1";"3";"1";"1";"6";"2";"[1,2,5]";"2";"0";"1"
"535";"13";"168";"1";"7";"3";"1";"6";"2";"[6,8,9,10]";"2";"0";"1"
"536";"14";"169";"1";"4";"3";"1";"6";"2";"[1,2,5]";"2";"0";"1"
"537";"38";"15";"1";"3";"1";"1";"6";"2";"[1,2,5]";"2";"0";"1"
"538";"13";"169";"1";"7";"3";"1";"6";"2";"[6,8,9,10]";"2";"0";"1"
"539";"9";"173";"1";"4";"4";"1";"6";"1";"[1,2,5]";"1";"0";"1"
"540";"9";"174";"1";"4";"4";"1";"6";"1";"[1,2,5]";"1";"0";"1"
"541";"26";"176";"1";"3";"2";"1";"6";"1";"[1,2,5]";"2";"0";"1"
"542";"11";"177";"1";"2";"3";"1";"6";"1";"[1,3,4,5,6]";"2";"0";"1"
"543";"26";"177";"1";"3";"2";"1";"6";"1";"[1,2,5]";"2";"0";"1"
"544";"11";"178";"1";"2";"3";"1";"6";"1";"[1,3,4,5,6]";"2";"0";"1"
"545";"39";"179";"1";"6";"3";"1";"6";"2";"[2,7,8,9,10]";"2";"0";"1"
"546";"36";"26";"1";"2";"1";"1";"6";"1";"[1,3,4,5,6]";"1";"0";"1"
"547";"39";"180";"1";"6";"3";"1";"6";"2";"[2,7,8,9,10]";"2";"0";"1"
"548";"36";"27";"1";"2";"1";"1";"6";"1";"[1,3,4,5,6]";"1";"0";"1"
"549";"21";"31";"1";"10";"1";"1";"6";"1";"[6,7,8,9]";"0";"0";"1"
"550";"0";"30";"1";"10";"1";"1";"6";"1";"[6,7,8,9]";"1";"0";"0"
"551";"4";"186";"1";"2";"4";"1";"7";"1";"[1,3,4,5,6]";"1";"0";"1"
"552";"40";"186";"1";"1";"2";"1";"7";"2";"[2,3,4,5]";"2";"0";"1"
"553";"25";"186";"1";"3";"4";"1";"7";"1";"[1,2,5]";"1";"0";"1"
"554";"32";"186";"1";"6";"2";"1";"7";"1";"[2,7,8,9,10]";"1";"0";"1"
"555";"16";"1";"1";"8";"1";"1";"7";"2";"[6,7,9,10]";"1";"0";"1"
"556";"29";"187";"1";"10";"4";"1";"7";"1";"[6,7,8,9]";"1";"0";"1"
"557";"20";"187";"1";"9";"4";"1";"7";"2";"[6,7,8,10]";"2";"0";"1"
"558";"15";"187";"1";"9";"2";"1";"7";"1";"[6,7,8,10]";"1";"0";"1"
"559";"1";"187";"1";"10";"3";"1";"7";"2";"[6,7,8,9]";"2";"0";"1"
"560";"27";"187";"1";"7";"4";"1";"7";"1";"[6,8,9,10]";"1";"0";"1"
"561";"4";"187";"1";"2";"4";"1";"7";"1";"[1,3,4,5,6]";"1";"0";"1"
"562";"40";"187";"1";"1";"2";"1";"7";"2";"[2,3,4,5]";"2";"0";"1"
"563";"7";"2";"1";"6";"1";"1";"7";"1";"[2,7,8,9,10]";"1";"0";"1"
"564";"30";"187";"1";"1";"3";"1";"7";"2";"[2,3,4,5]";"2";"0";"1"
"565";"12";"2";"1";"7";"1";"1";"7";"1";"[6,8,9,10]";"1";"0";"1"
"566";"25";"187";"1";"3";"4";"1";"7";"1";"[1,2,5]";"1";"0";"1"
"567";"32";"187";"1";"6";"2";"1";"7";"1";"[2,7,8,9,10]";"1";"0";"1"
"568";"35";"187";"1";"5";"3";"1";"7";"2";"[1,2,3,4]";"2";"0";"1"
"569";"16";"2";"1";"8";"1";"1";"7";"2";"[6,7,9,10]";"1";"0";"1"
"570";"34";"188";"1";"9";"3";"1";"7";"2";"[6,7,8,10]";"2";"0";"1"
"571";"29";"188";"1";"10";"4";"1";"7";"1";"[6,7,8,9]";"1";"0";"1"
"572";"20";"188";"1";"9";"4";"1";"7";"2";"[6,7,8,10]";"2";"0";"1"
"573";"15";"188";"1";"9";"2";"1";"7";"1";"[6,7,8,10]";"1";"0";"1"
"574";"1";"188";"1";"10";"3";"1";"7";"2";"[6,7,8,9]";"2";"0";"1"
"575";"36";"3";"1";"2";"1";"1";"7";"1";"[1,3,4,5,6]";"0";"1";"1"
"576";"27";"188";"1";"7";"4";"1";"7";"1";"[6,8,9,10]";"1";"0";"1"
"577";"10";"188";"1";"6";"4";"1";"7";"1";"[2,7,8,9,10]";"1";"0";"1"
"578";"30";"188";"1";"1";"3";"1";"7";"2";"[2,3,4,5]";"2";"0";"1"
"579";"7";"3";"1";"6";"1";"1";"7";"1";"[2,7,8,9,10]";"1";"0";"1"
"580";"12";"3";"1";"7";"1";"1";"7";"1";"[6,8,9,10]";"1";"0";"1"
"581";"19";"188";"1";"4";"2";"1";"7";"2";"[1,2,5]";"2";"0";"1"
"582";"35";"188";"1";"5";"3";"1";"7";"2";"[1,2,3,4]";"2";"0";"1"
"583";"8";"189";"1";"7";"2";"1";"7";"1";"[6,8,9,10]";"1";"0";"1"
"584";"11";"189";"1";"2";"3";"1";"7";"1";"[1,3,4,5,6]";"2";"0";"1"
"585";"34";"189";"1";"9";"3";"1";"7";"2";"[6,7,8,10]";"2";"0";"1"
"586";"6";"189";"1";"10";"2";"1";"7";"2";"[6,7,8,9]";"1";"0";"1"
"587";"3";"189";"1";"8";"3";"1";"7";"2";"[6,7,9,10]";"2";"0";"1"
"588";"10";"189";"1";"6";"4";"1";"7";"1";"[2,7,8,9,10]";"1";"0";"1"
"589";"9";"189";"1";"4";"4";"1";"7";"1";"[1,2,5]";"1";"0";"1"
"590";"26";"189";"1";"3";"2";"1";"7";"1";"[1,2,5]";"2";"0";"1"
"591";"19";"189";"1";"4";"2";"1";"7";"2";"[1,2,5]";"2";"0";"1"
"592";"22";"4";"1";"5";"1";"1";"7";"1";"[1,2,3,4]";"1";"0";"1"
"593";"8";"190";"1";"7";"2";"1";"7";"1";"[6,8,9,10]";"1";"0";"1"
"594";"11";"190";"1";"2";"3";"1";"7";"1";"[1,3,4,5,6]";"2";"0";"1"
"595";"6";"190";"1";"10";"2";"1";"7";"2";"[6,7,8,9]";"1";"0";"1"
"596";"3";"190";"1";"8";"3";"1";"7";"2";"[6,7,9,10]";"2";"0";"1"
"597";"9";"190";"1";"4";"4";"1";"7";"1";"[1,2,5]";"1";"0";"1"
"598";"26";"190";"1";"3";"2";"1";"7";"1";"[1,2,5]";"2";"0";"1"
"599";"17";"190";"1";"3";"3";"1";"7";"1";"[1,2,5]";"2";"0";"1"
"600";"22";"5";"1";"5";"1";"1";"7";"1";"[1,2,3,4]";"1";"0";"1"
"601";"31";"191";"1";"8";"4";"1";"7";"1";"[6,7,9,10]";"1";"0";"1"
"602";"33";"6";"1";"9";"1";"1";"7";"1";"[6,7,8,10]";"1";"0";"1"
"603";"23";"191";"1";"1";"4";"1";"7";"1";"[2,3,4,5]";"1";"0";"1"
"604";"17";"191";"1";"3";"3";"1";"7";"1";"[1,2,5]";"2";"0";"1"
"605";"31";"192";"1";"8";"4";"1";"7";"1";"[6,7,9,10]";"1";"0";"1"
"606";"33";"7";"1";"9";"1";"1";"7";"1";"[6,7,8,10]";"1";"0";"1"
"607";"39";"192";"1";"6";"3";"1";"7";"2";"[2,7,8,9,10]";"2";"0";"1"
"608";"23";"192";"1";"1";"4";"1";"7";"1";"[2,3,4,5]";"1";"0";"1"
"609";"36";"8";"1";"2";"1";"1";"7";"1";"[1,3,4,5,6]";"0";"3";"1"
"610";"2";"193";"1";"5";"2";"1";"7";"2";"[1,2,3,4]";"2";"0";"1"
"611";"39";"193";"1";"6";"3";"1";"7";"2";"[2,7,8,9,10]";"2";"0";"1"
"612";"18";"193";"1";"8";"2";"1";"7";"2";"[6,7,9,10]";"1";"0";"1"
"613";"28";"9";"1";"4";"1";"1";"7";"2";"[1,2,5]";"2";"0";"1"
"614";"13";"194";"1";"7";"3";"1";"7";"2";"[6,8,9,10]";"1";"0";"1"
"615";"2";"194";"1";"5";"2";"1";"7";"2";"[1,2,3,4]";"2";"0";"1"
"616";"18";"194";"1";"8";"2";"1";"7";"2";"[6,7,9,10]";"1";"0";"1"
"617";"28";"10";"1";"4";"1";"1";"7";"2";"[1,2,5]";"2";"0";"1"
"618";"13";"195";"1";"7";"3";"1";"7";"2";"[6,8,9,10]";"1";"0";"1"
"619";"36";"10";"1";"2";"1";"1";"7";"1";"[1,3,4,5,6]";"0";"4";"1"
"620";"37";"11";"1";"1";"1";"1";"7";"2";"[2,3,4,5]";"2";"0";"1"
"621";"24";"196";"1";"5";"4";"1";"7";"1";"[1,2,3,4]";"2";"0";"1"
"622";"37";"12";"1";"1";"1";"1";"7";"2";"[2,3,4,5]";"2";"0";"1"
"623";"24";"197";"1";"5";"4";"1";"7";"1";"[1,2,3,4]";"2";"0";"1"
"624";"38";"15";"1";"3";"1";"1";"7";"2";"[1,2,5]";"2";"0";"1"
"625";"36";"15";"1";"2";"1";"1";"7";"1";"[1,3,4,5,6]";"0";"5";"1"
"626";"38";"16";"1";"3";"1";"1";"7";"2";"[1,2,5]";"2";"0";"1"
"627";"15";"201";"1";"9";"2";"1";"7";"1";"[6,7,8,10]";"1";"7";"1"
"628";"36";"17";"1";"2";"1";"1";"7";"1";"[1,3,4,5,6]";"0";"9";"1"
"629";"15";"203";"1";"9";"2";"1";"7";"1";"[6,7,8,10]";"1";"4";"1"
"630";"14";"203";"1";"4";"3";"1";"7";"2";"[1,2,5]";"2";"0";"1"
"631";"11";"203";"1";"2";"3";"1";"7";"1";"[1,3,4,5,6]";"2";"2";"1"
"632";"5";"203";"1";"2";"2";"1";"7";"1";"[1,3,4,5,6]";"1";"0";"1"
"633";"14";"204";"1";"4";"3";"1";"7";"2";"[1,2,5]";"2";"0";"1"
"634";"15";"204";"1";"9";"2";"1";"7";"1";"[6,7,8,10]";"1";"6";"1"
"635";"5";"204";"1";"2";"2";"1";"7";"1";"[1,3,4,5,6]";"1";"0";"1"
"636";"11";"204";"1";"2";"3";"1";"7";"1";"[1,3,4,5,6]";"2";"1";"1"
"637";"36";"21";"1";"2";"1";"1";"7";"1";"[1,3,4,5,6]";"1";"9";"1"
"638";"11";"206";"1";"2";"3";"1";"7";"1";"[1,3,4,5,6]";"2";"2";"1"
"639";"36";"22";"1";"2";"1";"1";"7";"1";"[1,3,4,5,6]";"1";"9";"1"
"640";"11";"208";"1";"2";"3";"1";"7";"1";"[1,3,4,5,6]";"2";"3";"1"
"641";"25";"209";"1";"3";"4";"1";"7";"1";"[1,2,5]";"1";"5";"1"
"642";"11";"210";"1";"2";"3";"1";"7";"1";"[1,3,4,5,6]";"2";"4";"1"
"643";"25";"210";"1";"3";"4";"1";"7";"1";"[1,2,5]";"1";"6";"1"
"644";"36";"25";"1";"2";"1";"1";"7";"1";"[1,3,4,5,6]";"1";"8";"1"
"645";"25";"211";"1";"3";"4";"1";"7";"1";"[1,2,5]";"1";"7";"1"
"646";"36";"27";"1";"2";"1";"1";"7";"1";"[1,3,4,5,6]";"1";"4";"1"
"647";"11";"213";"1";"2";"3";"1";"7";"1";"[1,3,4,5,6]";"2";"5";"1"
"648";"4";"213";"1";"2";"4";"1";"7";"1";"[1,3,4,5,6]";"1";"5";"1"
"649";"36";"29";"1";"2";"1";"1";"7";"1";"[1,3,4,5,6]";"1";"5";"1"
"650";"11";"214";"1";"2";"3";"1";"7";"1";"[1,3,4,5,6]";"2";"6";"1"
"651";"11";"216";"1";"2";"3";"1";"7";"1";"[1,3,4,5,6]";"2";"7";"1"
"652";"21";"31";"1";"10";"1";"1";"7";"1";"[6,7,8,9]";"0";"0";"1"
"653";"0";"30";"1";"10";"1";"1";"7";"1";"[6,7,8,9]";"1";"0";"0"
"654";"40";"217";"1";"1";"2";"1";"8";"2";"[2,3,4,5]";"2";"0";"1"
"655";"7";"1";"1";"6";"1";"1";"8";"1";"[2,7,8,9,10]";"1";"0";"1"
"656";"8";"217";"1";"7";"2";"1";"8";"1";"[6,8,9,10]";"1";"0";"1"
"657";"11";"217";"1";"2";"3";"1";"8";"1";"[1,3,4,5,6]";"2";"0";"1"
"658";"18";"218";"1";"8";"2";"1";"8";"2";"[6,7,9,10]";"1";"0";"1"
"659";"32";"218";"1";"6";"2";"1";"8";"1";"[2,7,8,9,10]";"1";"0";"1"
"660";"25";"218";"1";"3";"4";"1";"8";"1";"[1,2,5]";"1";"0";"1"
"661";"27";"218";"1";"7";"4";"1";"8";"1";"[6,8,9,10]";"1";"0";"1"
"662";"40";"218";"1";"1";"2";"1";"8";"2";"[2,3,4,5]";"2";"0";"1"
"663";"12";"2";"1";"7";"1";"1";"8";"1";"[6,8,9,10]";"1";"0";"1"
"664";"7";"2";"1";"6";"1";"1";"8";"1";"[2,7,8,9,10]";"1";"0";"1"
"665";"29";"218";"1";"10";"4";"1";"8";"1";"[6,7,8,9]";"1";"0";"1"
"666";"8";"218";"1";"7";"2";"1";"8";"1";"[6,8,9,10]";"1";"0";"1"
"667";"11";"218";"1";"2";"3";"1";"8";"1";"[1,3,4,5,6]";"2";"0";"1"
"668";"4";"219";"1";"2";"4";"1";"8";"1";"[1,3,4,5,6]";"0";"6";"1"
"669";"18";"219";"1";"8";"2";"1";"8";"2";"[6,7,9,10]";"1";"0";"1"
"670";"19";"219";"1";"4";"2";"1";"8";"2";"[1,2,5]";"2";"0";"1"
"671";"36";"3";"1";"2";"1";"1";"8";"1";"[1,3,4,5,6]";"0";"9";"1"
"672";"32";"219";"1";"6";"2";"1";"8";"1";"[2,7,8,9,10]";"1";"0";"1"
"673";"3";"219";"1";"8";"3";"1";"8";"2";"[6,7,9,10]";"2";"0";"1"
"674";"25";"219";"1";"3";"4";"1";"8";"1";"[1,2,5]";"1";"0";"1"
"675";"11";"219";"1";"2";"3";"1";"8";"1";"[1,3,4,5,6]";"2";"8";"1"
"676";"27";"219";"1";"7";"4";"1";"8";"1";"[6,8,9,10]";"1";"0";"1"
"677";"31";"219";"1";"8";"4";"1";"8";"1";"[6,7,9,10]";"1";"0";"1"
"678";"6";"219";"1";"10";"2";"1";"8";"2";"[6,7,8,9]";"1";"0";"1"
"679";"12";"3";"1";"7";"1";"1";"8";"1";"[6,8,9,10]";"1";"0";"1"
"680";"24";"219";"1";"5";"4";"1";"8";"1";"[1,2,3,4]";"2";"0";"1"
"681";"29";"219";"1";"10";"4";"1";"8";"1";"[6,7,8,9]";"1";"0";"1"
"682";"35";"220";"1";"5";"3";"1";"8";"2";"[1,2,3,4]";"2";"0";"1"
"683";"20";"220";"1";"9";"4";"1";"8";"2";"[6,7,8,10]";"2";"0";"1"
"684";"19";"220";"1";"4";"2";"1";"8";"2";"[1,2,5]";"2";"0";"1"
"685";"9";"220";"1";"4";"4";"1";"8";"1";"[1,2,5]";"1";"0";"1"
"686";"4";"220";"1";"2";"4";"1";"8";"1";"[1,3,4,5,6]";"0";"5";"1"
"687";"33";"4";"1";"9";"1";"1";"8";"1";"[6,7,8,10]";"1";"0";"1"
"688";"30";"220";"1";"1";"3";"1";"8";"2";"[2,3,4,5]";"2";"0";"1"
"689";"1";"220";"1";"10";"3";"1";"8";"2";"[6,7,8,9]";"2";"0";"1"
"690";"3";"220";"1";"8";"3";"1";"8";"2";"[6,7,9,10]";"2";"0";"1"
"691";"31";"220";"1";"8";"4";"1";"8";"1";"[6,7,9,10]";"1";"0";"1"
"692";"6";"220";"1";"10";"2";"1";"8";"2";"[6,7,8,9]";"1";"0";"1"
"693";"24";"220";"1";"5";"4";"1";"8";"1";"[1,2,3,4]";"2";"0";"1"
"694";"11";"220";"1";"2";"3";"1";"8";"1";"[1,3,4,5,6]";"2";"12";"1"
"695";"13";"221";"1";"7";"3";"1";"8";"2";"[6,8,9,10]";"2";"0";"1"
"696";"35";"221";"1";"5";"3";"1";"8";"2";"[1,2,3,4]";"2";"0";"1"
"697";"20";"221";"1";"9";"4";"1";"8";"2";"[6,7,8,10]";"2";"0";"1"
"698";"9";"221";"1";"4";"4";"1";"8";"1";"[1,2,5]";"1";"0";"1"
"699";"33";"5";"1";"9";"1";"1";"8";"1";"[6,7,8,10]";"1";"0";"1"
"700";"30";"221";"1";"1";"3";"1";"8";"2";"[2,3,4,5]";"2";"0";"1"
"701";"1";"221";"1";"10";"3";"1";"8";"2";"[6,7,8,9]";"2";"0";"1"
"702";"4";"221";"1";"2";"4";"1";"8";"1";"[1,3,4,5,6]";"0";"7";"1"
"703";"23";"221";"1";"1";"4";"1";"8";"1";"[2,3,4,5]";"1";"0";"1"
"704";"17";"222";"1";"3";"3";"1";"8";"1";"[1,2,5]";"2";"0";"1"
"705";"13";"222";"1";"7";"3";"1";"8";"2";"[6,8,9,10]";"2";"0";"1"
"706";"4";"222";"1";"2";"4";"1";"8";"1";"[1,3,4,5,6]";"1";"7";"1"
"707";"5";"222";"1";"2";"2";"1";"8";"1";"[1,3,4,5,6]";"1";"0";"1"
"708";"10";"222";"1";"6";"4";"1";"8";"1";"[2,7,8,9,10]";"1";"0";"1"
"709";"23";"222";"1";"1";"4";"1";"8";"1";"[2,3,4,5]";"1";"0";"1"
"710";"26";"222";"1";"3";"2";"1";"8";"1";"[1,2,5]";"2";"0";"1"
"711";"15";"222";"1";"9";"2";"1";"8";"1";"[6,7,8,10]";"1";"0";"1"
"712";"14";"222";"1";"4";"3";"1";"8";"2";"[1,2,5]";"2";"0";"1"
"713";"17";"223";"1";"3";"3";"1";"8";"1";"[1,2,5]";"2";"0";"1"
"714";"4";"223";"1";"2";"4";"1";"8";"1";"[1,3,4,5,6]";"1";"7";"1"
"715";"11";"223";"1";"2";"3";"1";"8";"1";"[1,3,4,5,6]";"2";"5";"1"
"716";"5";"223";"1";"2";"2";"1";"8";"1";"[1,3,4,5,6]";"1";"0";"1"
"717";"10";"223";"1";"6";"4";"1";"8";"1";"[2,7,8,9,10]";"1";"0";"1"
"718";"38";"7";"1";"3";"1";"1";"8";"2";"[1,2,5]";"2";"0";"1"
"719";"26";"223";"1";"3";"2";"1";"8";"1";"[1,2,5]";"2";"0";"1"
"720";"15";"223";"1";"9";"2";"1";"8";"1";"[6,7,8,10]";"1";"0";"1"
"721";"14";"223";"1";"4";"3";"1";"8";"2";"[1,2,5]";"2";"0";"1"
"722";"39";"224";"1";"6";"3";"1";"8";"2";"[2,7,8,9,10]";"2";"0";"1"
"723";"38";"8";"1";"3";"1";"1";"8";"2";"[1,2,5]";"2";"0";"1"
"724";"11";"225";"1";"2";"3";"1";"8";"1";"[1,3,4,5,6]";"2";"12";"1"
"725";"39";"225";"1";"6";"3";"1";"8";"2";"[2,7,8,9,10]";"2";"0";"1"
"726";"37";"12";"1";"1";"1";"1";"8";"2";"[2,3,4,5]";"2";"0";"1"
"727";"24";"229";"1";"5";"4";"1";"8";"1";"[1,2,3,4]";"2";"6";"1"
"728";"37";"13";"1";"1";"1";"1";"8";"2";"[2,3,4,5]";"2";"0";"1"
"729";"24";"230";"1";"5";"4";"1";"8";"1";"[1,2,3,4]";"2";"7";"1"
"730";"16";"14";"1";"8";"1";"1";"8";"2";"[6,7,9,10]";"1";"0";"1"
"731";"16";"15";"1";"8";"1";"1";"8";"2";"[6,7,9,10]";"1";"0";"1"
"732";"28";"16";"1";"4";"1";"1";"8";"2";"[1,2,5]";"1";"0";"1"
"733";"28";"17";"1";"4";"1";"1";"8";"2";"[1,2,5]";"1";"0";"1"
"734";"36";"17";"1";"2";"1";"1";"8";"1";"[1,3,4,5,6]";"0";"2";"1"
"735";"34";"233";"1";"9";"3";"1";"8";"2";"[6,7,8,10]";"2";"0";"1"
"736";"36";"18";"1";"2";"1";"1";"8";"1";"[1,3,4,5,6]";"0";"1";"1"
"737";"34";"234";"1";"9";"3";"1";"8";"2";"[6,7,8,10]";"2";"0";"1"
"738";"36";"18";"1";"2";"1";"1";"8";"1";"[1,3,4,5,6]";"0";"2";"1"
"739";"36";"19";"1";"2";"1";"1";"8";"1";"[1,3,4,5,6]";"0";"4";"1"
"740";"36";"19";"1";"2";"1";"1";"8";"1";"[1,3,4,5,6]";"0";"6";"1"
"741";"22";"21";"1";"5";"1";"1";"8";"1";"[1,2,3,4]";"2";"0";"1"
"742";"2";"238";"1";"5";"2";"1";"8";"2";"[1,2,3,4]";"2";"0";"1"
"743";"22";"22";"1";"5";"1";"1";"8";"1";"[1,2,3,4]";"2";"0";"1"
"744";"2";"239";"1";"5";"2";"1";"8";"2";"[1,2,3,4]";"2";"0";"1"
"745";"36";"23";"1";"2";"1";"1";"8";"1";"[1,3,4,5,6]";"1";"6";"1"
"746";"36";"24";"1";"2";"1";"1";"8";"1";"[1,3,4,5,6]";"1";"6";"1"
"747";"36";"26";"1";"2";"1";"1";"8";"1";"[1,3,4,5,6]";"1";"7";"1"
"748";"36";"27";"1";"2";"1";"1";"8";"1";"[1,3,4,5,6]";"1";"8";"1"
"749";"36";"31";"1";"2";"1";"1";"8";"1";"[1,3,4,5,6]";"1";"6";"1"
"750";"21";"31";"1";"10";"1";"1";"8";"1";"[6,7,8,9]";"0";"0";"1"
"751";"0";"30";"1";"10";"1";"1";"8";"1";"[6,7,8,9]";"1";"0";"0"
"752";"7";"1";"1";"6";"1";"1";"9";"1";"[2,7,8,9,10]";"1";"0";"1"
"753";"4";"248";"1";"2";"4";"1";"9";"1";"[1,3,4,5,6]";"1";"0";"1"
"754";"25";"249";"1";"3";"4";"1";"9";"1";"[1,2,5]";"1";"0";"1"
"755";"18";"249";"1";"8";"2";"1";"9";"2";"[6,7,9,10]";"1";"0";"1"
"756";"12";"2";"1";"7";"1";"1";"9";"1";"[6,8,9,10]";"1";"0";"1"
"757";"29";"249";"1";"10";"4";"1";"9";"1";"[6,7,8,9]";"1";"0";"1"
"758";"7";"2";"1";"6";"1";"1";"9";"1";"[2,7,8,9,10]";"1";"0";"1"
"759";"35";"249";"1";"5";"3";"1";"9";"2";"[1,2,3,4]";"2";"0";"1"
"760";"4";"249";"1";"2";"4";"1";"9";"1";"[1,3,4,5,6]";"1";"0";"1"
"761";"36";"3";"1";"2";"1";"1";"9";"1";"[1,3,4,5,6]";"0";"11";"1"
"762";"32";"250";"1";"6";"2";"1";"9";"1";"[2,7,8,9,10]";"1";"0";"1"
"763";"37";"3";"1";"1";"1";"1";"9";"2";"[2,3,4,5]";"2";"0";"1"
"764";"25";"250";"1";"3";"4";"1";"9";"1";"[1,2,5]";"1";"0";"1"
"765";"18";"250";"1";"8";"2";"1";"9";"2";"[6,7,9,10]";"1";"0";"1"
"766";"12";"3";"1";"7";"1";"1";"9";"1";"[6,8,9,10]";"1";"0";"1"
"767";"29";"250";"1";"10";"4";"1";"9";"1";"[6,7,8,9]";"1";"0";"1"
"768";"6";"250";"1";"10";"2";"1";"9";"2";"[6,7,8,9]";"1";"0";"1"
"769";"19";"250";"1";"4";"2";"1";"9";"2";"[1,2,5]";"2";"0";"1"
"770";"15";"250";"1";"9";"2";"1";"9";"1";"[6,7,8,10]";"1";"0";"1"
"771";"20";"250";"1";"9";"4";"1";"9";"2";"[6,7,8,10]";"2";"0";"1"
"772";"24";"250";"1";"5";"4";"1";"9";"1";"[1,2,3,4]";"2";"0";"1"
"773";"1";"250";"1";"10";"3";"1";"9";"2";"[6,7,8,9]";"2";"0";"1"
"774";"35";"250";"1";"5";"3";"1";"9";"2";"[1,2,3,4]";"2";"0";"1"
"775";"17";"250";"1";"3";"3";"1";"9";"1";"[1,2,5]";"2";"0";"1"
"776";"27";"250";"1";"7";"4";"1";"9";"1";"[6,8,9,10]";"1";"0";"1"
"777";"40";"250";"1";"1";"2";"1";"9";"2";"[2,3,4,5]";"2";"0";"1"
"778";"30";"250";"1";"1";"3";"1";"9";"2";"[2,3,4,5]";"2";"0";"1"
"779";"32";"251";"1";"6";"2";"1";"9";"1";"[2,7,8,9,10]";"1";"0";"1"
"780";"37";"4";"1";"1";"1";"1";"9";"2";"[2,3,4,5]";"2";"0";"1"
"781";"5";"251";"1";"2";"2";"1";"9";"1";"[1,3,4,5,6]";"2";"0";"1"
"782";"6";"251";"1";"10";"2";"1";"9";"2";"[6,7,8,9]";"1";"0";"1"
"783";"22";"4";"1";"5";"1";"1";"9";"1";"[1,2,3,4]";"1";"0";"1"
"784";"19";"251";"1";"4";"2";"1";"9";"2";"[1,2,5]";"2";"0";"1"
"785";"31";"251";"1";"8";"4";"1";"9";"1";"[6,7,9,10]";"1";"0";"1"
"786";"2";"251";"1";"5";"2";"1";"9";"2";"[1,2,3,4]";"2";"0";"1"
"787";"15";"251";"1";"9";"2";"1";"9";"1";"[6,7,8,10]";"1";"0";"1"
"788";"20";"251";"1";"9";"4";"1";"9";"2";"[6,7,8,10]";"2";"0";"1"
"789";"24";"251";"1";"5";"4";"1";"9";"1";"[1,2,3,4]";"2";"0";"1"
"790";"23";"251";"1";"1";"4";"1";"9";"1";"[2,3,4,5]";"1";"0";"1"
"791";"1";"251";"1";"10";"3";"1";"9";"2";"[6,7,8,9]";"2";"0";"1"
"792";"17";"251";"1";"3";"3";"1";"9";"1";"[1,2,5]";"2";"0";"1"
"793";"27";"251";"1";"7";"4";"1";"9";"1";"[6,8,9,10]";"1";"0";"1"
"794";"26";"251";"1";"3";"2";"1";"9";"1";"[1,2,5]";"2";"0";"1"
"795";"40";"251";"1";"1";"2";"1";"9";"2";"[2,3,4,5]";"2";"0";"1"
"796";"30";"251";"1";"1";"3";"1";"9";"2";"[2,3,4,5]";"2";"0";"1"
"797";"5";"252";"1";"2";"2";"1";"9";"1";"[1,3,4,5,6]";"2";"0";"1"
"798";"22";"5";"1";"5";"1";"1";"9";"1";"[1,2,3,4]";"1";"0";"1"
"799";"9";"252";"1";"4";"4";"1";"9";"1";"[1,2,5]";"1";"0";"1"
"800";"31";"252";"1";"8";"4";"1";"9";"1";"[6,7,9,10]";"1";"0";"1"
"801";"2";"252";"1";"5";"2";"1";"9";"2";"[1,2,3,4]";"2";"0";"1"
"802";"3";"252";"1";"8";"3";"1";"9";"2";"[6,7,9,10]";"2";"0";"1"
"803";"23";"252";"1";"1";"4";"1";"9";"1";"[2,3,4,5]";"1";"0";"1"
"804";"33";"5";"1";"9";"1";"1";"9";"1";"[6,7,8,10]";"1";"0";"1"
"805";"26";"252";"1";"3";"2";"1";"9";"1";"[1,2,5]";"2";"0";"1"
"806";"10";"253";"1";"6";"4";"1";"9";"1";"[2,7,8,9,10]";"1";"0";"1"
"807";"9";"253";"1";"4";"4";"1";"9";"1";"[1,2,5]";"1";"0";"1"
"808";"8";"253";"1";"7";"2";"1";"9";"1";"[6,8,9,10]";"1";"0";"1"
"809";"3";"253";"1";"8";"3";"1";"9";"2";"[6,7,9,10]";"2";"0";"1"
"810";"33";"6";"1";"9";"1";"1";"9";"1";"[6,7,8,10]";"1";"0";"1"
"811";"10";"254";"1";"6";"4";"1";"9";"1";"[2,7,8,9,10]";"1";"0";"1"
"812";"8";"254";"1";"7";"2";"1";"9";"1";"[6,8,9,10]";"1";"0";"1"
"813";"16";"7";"1";"8";"1";"1";"9";"2";"[6,7,9,10]";"1";"0";"1"
"814";"39";"254";"1";"6";"3";"1";"9";"2";"[2,7,8,9,10]";"2";"0";"1"
"815";"28";"7";"1";"4";"1";"1";"9";"2";"[1,2,5]";"2";"0";"1"
"816";"38";"8";"1";"3";"1";"1";"9";"2";"[1,2,5]";"2";"0";"1"
"817";"16";"8";"1";"8";"1";"1";"9";"2";"[6,7,9,10]";"1";"0";"1"
"818";"34";"255";"1";"9";"3";"1";"9";"2";"[6,7,8,10]";"2";"0";"1"
"819";"39";"255";"1";"6";"3";"1";"9";"2";"[2,7,8,9,10]";"2";"0";"1"
"820";"28";"8";"1";"4";"1";"1";"9";"2";"[1,2,5]";"2";"0";"1"
"821";"38";"9";"1";"3";"1";"1";"9";"2";"[1,2,5]";"2";"0";"1"
"822";"34";"256";"1";"9";"3";"1";"9";"2";"[6,7,8,10]";"2";"0";"1"
"823";"36";"9";"1";"2";"1";"1";"9";"1";"[1,3,4,5,6]";"0";"7";"1"
"824";"14";"257";"1";"4";"3";"1";"9";"2";"[1,2,5]";"2";"0";"1"
"825";"36";"11";"1";"2";"1";"1";"9";"1";"[1,3,4,5,6]";"0";"10";"1"
"826";"14";"258";"1";"4";"3";"1";"9";"2";"[1,2,5]";"2";"0";"1"
"827";"13";"262";"1";"7";"3";"1";"9";"2";"[6,8,9,10]";"1";"0";"1"
"828";"13";"263";"1";"7";"3";"1";"9";"2";"[6,8,9,10]";"1";"0";"1"
"829";"36";"16";"1";"2";"1";"1";"9";"1";"[1,3,4,5,6]";"0";"7";"1"
"830";"11";"263";"1";"2";"3";"1";"9";"1";"[1,3,4,5,6]";"2";"0";"1"
"831";"36";"16";"1";"2";"1";"1";"9";"1";"[1,3,4,5,6]";"0";"6";"1"
"832";"11";"264";"1";"2";"3";"1";"9";"1";"[1,3,4,5,6]";"2";"0";"1"
"833";"36";"17";"1";"2";"1";"1";"9";"1";"[1,3,4,5,6]";"0";"5";"1"
"834";"36";"19";"1";"2";"1";"1";"9";"1";"[1,3,4,5,6]";"0";"10";"1"
"835";"36";"20";"1";"2";"1";"1";"9";"1";"[1,3,4,5,6]";"1";"10";"1"
"836";"11";"267";"1";"2";"3";"1";"9";"1";"[1,3,4,5,6]";"2";"2";"1"
"837";"36";"21";"1";"2";"1";"1";"9";"1";"[1,3,4,5,6]";"1";"10";"1"
"838";"11";"269";"1";"2";"3";"1";"9";"1";"[1,3,4,5,6]";"2";"12";"1"
"839";"11";"271";"1";"2";"3";"1";"9";"1";"[1,3,4,5,6]";"2";"1";"1"
"840";"11";"273";"1";"2";"3";"1";"9";"1";"[1,3,4,5,6]";"2";"10";"1"
"841";"1";"273";"1";"10";"3";"1";"9";"2";"[6,7,8,9]";"2";"1";"1"
"842";"12";"29";"1";"7";"1";"1";"9";"1";"[6,8,9,10]";"1";"1";"1"
"843";"1";"276";"1";"10";"3";"1";"9";"2";"[6,7,8,9]";"2";"8";"1"
"844";"21";"31";"1";"10";"1";"1";"9";"1";"[6,7,8,9]";"0";"0";"1"
"845";"0";"30";"1";"10";"1";"1";"9";"1";"[6,7,8,9]";"1";"0";"0"
"846";"12";"0";"1";"7";"1";"1";"10";"1";"[6,8,9,10]";"0";"10";"1"
"847";"11";"279";"1";"2";"3";"1";"10";"1";"[1,3,4,5,6]";"0";"3";"1"
"848";"32";"280";"1";"6";"2";"1";"10";"1";"[2,7,8,9,10]";"1";"0";"1"
"849";"20";"280";"1";"9";"4";"1";"10";"2";"[6,7,8,10]";"2";"0";"1"
"850";"40";"280";"1";"1";"2";"1";"10";"2";"[2,3,4,5]";"2";"0";"1"
"851";"27";"280";"1";"7";"4";"1";"10";"1";"[6,8,9,10]";"1";"0";"1"
"852";"12";"2";"1";"7";"1";"1";"10";"1";"[6,8,9,10]";"1";"10";"1"
"853";"10";"280";"1";"6";"4";"1";"10";"1";"[2,7,8,9,10]";"1";"0";"1"
"854";"24";"280";"1";"5";"4";"1";"10";"1";"[1,2,3,4]";"2";"0";"1"
"855";"4";"280";"1";"2";"4";"1";"10";"1";"[1,3,4,5,6]";"1";"0";"1"
"856";"32";"281";"1";"6";"2";"1";"10";"1";"[2,7,8,9,10]";"1";"0";"1"
"857";"26";"281";"1";"3";"2";"1";"10";"1";"[1,2,5]";"2";"0";"1"
"858";"7";"3";"1";"6";"1";"1";"10";"1";"[2,7,8,9,10]";"1";"0";"1"
"859";"29";"281";"1";"10";"4";"1";"10";"1";"[6,7,8,9]";"1";"0";"1"
"860";"8";"281";"1";"7";"2";"1";"10";"1";"[6,8,9,10]";"1";"0";"1"
"861";"18";"281";"1";"8";"2";"1";"10";"2";"[6,7,9,10]";"1";"0";"1"
"862";"3";"281";"1";"8";"3";"1";"10";"2";"[6,7,9,10]";"2";"0";"1"
"863";"20";"281";"1";"9";"4";"1";"10";"2";"[6,7,8,10]";"2";"0";"1"
"864";"11";"281";"1";"2";"3";"1";"10";"1";"[1,3,4,5,6]";"0";"12";"1"
"865";"40";"281";"1";"1";"2";"1";"10";"2";"[2,3,4,5]";"2";"0";"1"
"866";"6";"281";"1";"10";"2";"1";"10";"2";"[6,7,8,9]";"1";"0";"1"
"867";"27";"281";"1";"7";"4";"1";"10";"1";"[6,8,9,10]";"1";"0";"1"
"868";"25";"281";"1";"3";"4";"1";"10";"1";"[1,2,5]";"1";"0";"1"
"869";"30";"281";"1";"1";"3";"1";"10";"2";"[2,3,4,5]";"2";"0";"1"
"870";"12";"3";"1";"7";"1";"1";"10";"1";"[6,8,9,10]";"1";"10";"1"
"871";"10";"281";"1";"6";"4";"1";"10";"1";"[2,7,8,9,10]";"1";"0";"1"
"872";"35";"281";"1";"5";"3";"1";"10";"2";"[1,2,3,4]";"2";"0";"1"
"873";"19";"281";"1";"4";"2";"1";"10";"2";"[1,2,5]";"2";"0";"1"
"874";"15";"281";"1";"9";"2";"1";"10";"1";"[6,7,8,10]";"2";"0";"1"
"875";"24";"281";"1";"5";"4";"1";"10";"1";"[1,2,3,4]";"2";"0";"1"
"876";"36";"3";"1";"2";"1";"1";"10";"1";"[1,3,4,5,6]";"0";"1";"1"
"877";"4";"281";"1";"2";"4";"1";"10";"1";"[1,3,4,5,6]";"1";"0";"1"
"878";"26";"282";"1";"3";"2";"1";"10";"1";"[1,2,5]";"2";"0";"1"
"879";"7";"4";"1";"6";"1";"1";"10";"1";"[2,7,8,9,10]";"1";"0";"1"
"880";"29";"282";"1";"10";"4";"1";"10";"1";"[6,7,8,9]";"1";"0";"1"
"881";"2";"282";"1";"5";"2";"1";"10";"2";"[1,2,3,4]";"2";"0";"1"
"882";"8";"282";"1";"7";"2";"1";"10";"1";"[6,8,9,10]";"1";"0";"1"
"883";"18";"282";"1";"8";"2";"1";"10";"2";"[6,7,9,10]";"1";"0";"1"
"884";"16";"4";"1";"8";"1";"1";"10";"2";"[6,7,9,10]";"2";"0";"1"
"885";"3";"282";"1";"8";"3";"1";"10";"2";"[6,7,9,10]";"2";"0";"1"
"886";"37";"4";"1";"1";"1";"1";"10";"2";"[2,3,4,5]";"2";"0";"1"
"887";"6";"282";"1";"10";"2";"1";"10";"2";"[6,7,8,9]";"1";"0";"1"
"888";"25";"282";"1";"3";"4";"1";"10";"1";"[1,2,5]";"1";"0";"1"
"889";"30";"282";"1";"1";"3";"1";"10";"2";"[2,3,4,5]";"2";"0";"1"
"890";"35";"282";"1";"5";"3";"1";"10";"2";"[1,2,3,4]";"2";"0";"1"
"891";"19";"282";"1";"4";"2";"1";"10";"2";"[1,2,5]";"2";"0";"1"
"892";"15";"282";"1";"9";"2";"1";"10";"1";"[6,7,8,10]";"2";"0";"1"
"893";"1";"283";"1";"10";"3";"1";"10";"2";"[6,7,8,9]";"2";"0";"1"
"894";"12";"5";"1";"7";"1";"1";"10";"1";"[6,8,9,10]";"1";"1";"1"
"895";"2";"283";"1";"5";"2";"1";"10";"2";"[1,2,3,4]";"2";"0";"1"
"896";"31";"283";"1";"8";"4";"1";"10";"1";"[6,7,9,10]";"1";"0";"1"
"897";"17";"283";"1";"3";"3";"1";"10";"1";"[1,2,5]";"2";"0";"1"
"898";"16";"5";"1";"8";"1";"1";"10";"2";"[6,7,9,10]";"2";"0";"1"
"899";"13";"283";"1";"7";"3";"1";"10";"2";"[6,8,9,10]";"1";"0";"1"
"900";"37";"5";"1";"1";"1";"1";"10";"2";"[2,3,4,5]";"2";"0";"1"
"901";"23";"284";"1";"1";"4";"1";"10";"1";"[2,3,4,5]";"1";"0";"1"
"902";"1";"284";"1";"10";"3";"1";"10";"2";"[6,7,8,9]";"2";"0";"1"
"903";"31";"284";"1";"8";"4";"1";"10";"1";"[6,7,9,10]";"1";"0";"1"
"904";"17";"284";"1";"3";"3";"1";"10";"1";"[1,2,5]";"2";"0";"1"
"905";"13";"284";"1";"7";"3";"1";"10";"2";"[6,8,9,10]";"1";"0";"1"
"906";"9";"284";"1";"4";"4";"1";"10";"1";"[1,2,5]";"1";"0";"1"
"907";"28";"6";"1";"4";"1";"1";"10";"2";"[1,2,5]";"2";"0";"1"
"908";"23";"285";"1";"1";"4";"1";"10";"1";"[2,3,4,5]";"1";"0";"1"
"909";"12";"7";"1";"7";"1";"1";"10";"1";"[6,8,9,10]";"1";"9";"1"
"910";"36";"7";"1";"2";"1";"1";"10";"1";"[1,3,4,5,6]";"0";"2";"1"
"911";"9";"285";"1";"4";"4";"1";"10";"1";"[1,2,5]";"1";"0";"1"
"912";"28";"7";"1";"4";"1";"1";"10";"2";"[1,2,5]";"2";"0";"1"
"913";"11";"285";"1";"2";"3";"1";"10";"1";"[1,3,4,5,6]";"0";"8";"1"
"914";"22";"8";"1";"5";"1";"1";"10";"1";"[1,2,3,4]";"1";"0";"1"
"915";"33";"8";"1";"9";"1";"1";"10";"1";"[6,7,8,10]";"1";"0";"1"
"916";"22";"9";"1";"5";"1";"1";"10";"1";"[1,2,3,4]";"1";"0";"1"
"917";"36";"9";"1";"2";"1";"1";"10";"1";"[1,3,4,5,6]";"0";"3";"1"
"918";"33";"9";"1";"9";"1";"1";"10";"1";"[6,7,8,10]";"1";"0";"1"
"919";"11";"287";"1";"2";"3";"1";"10";"1";"[1,3,4,5,6]";"0";"7";"1"
"920";"36";"10";"1";"2";"1";"1";"10";"1";"[1,3,4,5,6]";"0";"12";"1"
"921";"40";"288";"1";"1";"2";"1";"10";"2";"[2,3,4,5]";"2";"2";"1"
"922";"5";"289";"1";"2";"2";"1";"10";"1";"[1,3,4,5,6]";"2";"0";"1"
"923";"40";"289";"1";"1";"2";"1";"10";"2";"[2,3,4,5]";"2";"3";"1"
"924";"34";"289";"1";"9";"3";"1";"10";"2";"[6,7,8,10]";"0";"6";"1"
"925";"11";"289";"1";"2";"3";"1";"10";"1";"[1,3,4,5,6]";"0";"8";"1"
"926";"5";"290";"1";"2";"2";"1";"10";"1";"[1,3,4,5,6]";"2";"0";"1"
"927";"39";"290";"1";"6";"3";"1";"10";"2";"[2,7,8,9,10]";"2";"0";"1"
"928";"11";"290";"1";"2";"3";"1";"10";"1";"[1,3,4,5,6]";"0";"9";"1"
"929";"40";"290";"1";"1";"2";"1";"10";"2";"[2,3,4,5]";"2";"4";"1"
"930";"39";"291";"1";"6";"3";"1";"10";"2";"[2,7,8,9,10]";"2";"0";"1"
"931";"38";"13";"1";"3";"1";"1";"10";"2";"[1,2,5]";"2";"0";"1"
"932";"34";"291";"1";"9";"3";"1";"10";"2";"[6,7,8,10]";"0";"11";"1"
"933";"40";"291";"1";"1";"2";"1";"10";"2";"[2,3,4,5]";"2";"5";"1"
"934";"11";"292";"1";"2";"3";"1";"10";"1";"[1,3,4,5,6]";"0";"10";"1"
"935";"38";"14";"1";"3";"1";"1";"10";"2";"[1,2,5]";"2";"0";"1"
"936";"40";"293";"1";"1";"2";"1";"10";"2";"[2,3,4,5]";"2";"12";"1"
"937";"34";"293";"1";"9";"3";"1";"10";"2";"[6,7,8,10]";"2";"11";"1"
"938";"36";"16";"1";"2";"1";"1";"10";"1";"[1,3,4,5,6]";"0";"8";"1"
"939";"34";"294";"1";"9";"3";"1";"10";"2";"[6,7,8,10]";"2";"11";"1"
"940";"11";"295";"1";"2";"3";"1";"10";"1";"[1,3,4,5,6]";"1";"10";"1"
"941";"14";"296";"1";"4";"3";"1";"10";"2";"[1,2,5]";"2";"0";"1"
"942";"11";"296";"1";"2";"3";"1";"10";"1";"[1,3,4,5,6]";"1";"10";"1"
"943";"36";"18";"1";"2";"1";"1";"10";"1";"[1,3,4,5,6]";"0";"7";"1"
"944";"14";"297";"1";"4";"3";"1";"10";"2";"[1,2,5]";"2";"0";"1"
"945";"36";"19";"1";"2";"1";"1";"10";"1";"[1,3,4,5,6]";"0";"6";"1"
"946";"36";"21";"1";"2";"1";"1";"10";"1";"[1,3,4,5,6]";"0";"4";"1"
"947";"36";"23";"1";"2";"1";"1";"10";"1";"[1,3,4,5,6]";"0";"12";"1"
"948";"36";"25";"1";"2";"1";"1";"10";"1";"[1,3,4,5,6]";"1";"12";"1"
"949";"36";"26";"1";"2";"1";"1";"10";"1";"[1,3,4,5,6]";"1";"12";"1"
"950";"21";"31";"1";"10";"1";"1";"10";"1";"[6,7,8,9]";"0";"0";"1"
"951";"0";"30";"1";"10";"1";"1";"10";"1";"[6,7,8,9]";"1";"0";"0"
"952";"37";"1";"1";"1";"1";"1";"11";"2";"[2,3,4,5]";"2";"0";"1"
"953";"40";"311";"1";"1";"2";"1";"11";"2";"[2,3,4,5]";"2";"0";"1"
"954";"32";"311";"1";"6";"2";"1";"11";"1";"[2,7,8,9,10]";"1";"0";"1"
"955";"25";"311";"1";"3";"4";"1";"11";"1";"[1,2,5]";"1";"0";"1"
"956";"4";"311";"1";"2";"4";"1";"11";"1";"[1,3,4,5,6]";"1";"0";"1"
"957";"35";"311";"1";"5";"3";"1";"11";"2";"[1,2,3,4]";"2";"0";"1"
"958";"1";"311";"1";"10";"3";"1";"11";"2";"[6,7,8,9]";"2";"0";"1"
"959";"10";"311";"1";"6";"4";"1";"11";"1";"[2,7,8,9,10]";"1";"0";"1"
"960";"29";"311";"1";"10";"4";"1";"11";"1";"[6,7,8,9]";"1";"0";"1"
"961";"8";"311";"1";"7";"2";"1";"11";"1";"[6,8,9,10]";"1";"0";"1"
"962";"24";"311";"1";"5";"4";"1";"11";"1";"[1,2,3,4]";"2";"0";"1"
"963";"7";"2";"1";"6";"1";"1";"11";"1";"[2,7,8,9,10]";"1";"0";"1"
"964";"15";"311";"1";"9";"2";"1";"11";"1";"[6,7,8,10]";"1";"0";"1"
"965";"37";"2";"1";"1";"1";"1";"11";"2";"[2,3,4,5]";"2";"0";"1"
"966";"27";"311";"1";"7";"4";"1";"11";"1";"[6,8,9,10]";"1";"0";"1"
"967";"9";"311";"1";"4";"4";"1";"11";"1";"[1,2,5]";"1";"0";"1"
"968";"12";"3";"1";"7";"1";"1";"11";"1";"[6,8,9,10]";"1";"0";"1"
"969";"40";"312";"1";"1";"2";"1";"11";"2";"[2,3,4,5]";"2";"0";"1"
"970";"32";"312";"1";"6";"2";"1";"11";"1";"[2,7,8,9,10]";"1";"0";"1"
"971";"25";"312";"1";"3";"4";"1";"11";"1";"[1,2,5]";"1";"0";"1"
"972";"4";"312";"1";"2";"4";"1";"11";"1";"[1,3,4,5,6]";"1";"0";"1"
"973";"34";"312";"1";"9";"3";"1";"11";"2";"[6,7,8,10]";"2";"0";"1"
"974";"35";"312";"1";"5";"3";"1";"11";"2";"[1,2,3,4]";"2";"0";"1"
"975";"1";"312";"1";"10";"3";"1";"11";"2";"[6,7,8,9]";"2";"0";"1"
"976";"30";"312";"1";"1";"3";"1";"11";"2";"[2,3,4,5]";"2";"0";"1"
"977";"19";"312";"1";"4";"2";"1";"11";"2";"[1,2,5]";"2";"0";"1"
"978";"10";"312";"1";"6";"4";"1";"11";"1";"[2,7,8,9,10]";"1";"0";"1"
"979";"29";"312";"1";"10";"4";"1";"11";"1";"[6,7,8,9]";"1";"0";"1"
"980";"8";"312";"1";"7";"2";"1";"11";"1";"[6,8,9,10]";"1";"0";"1"
"981";"24";"312";"1";"5";"4";"1";"11";"1";"[1,2,3,4]";"2";"0";"1"
"982";"7";"3";"1";"6";"1";"1";"11";"1";"[2,7,8,9,10]";"1";"0";"1"
"983";"15";"312";"1";"9";"2";"1";"11";"1";"[6,7,8,10]";"1";"0";"1"
"984";"27";"312";"1";"7";"4";"1";"11";"1";"[6,8,9,10]";"1";"0";"1"
"985";"6";"312";"1";"10";"2";"1";"11";"2";"[6,7,8,9]";"1";"0";"1"
"986";"9";"312";"1";"4";"4";"1";"11";"1";"[1,2,5]";"1";"0";"1"
"987";"18";"313";"1";"8";"2";"1";"11";"2";"[6,7,9,10]";"1";"0";"1"
"988";"12";"4";"1";"7";"1";"1";"11";"1";"[6,8,9,10]";"1";"0";"1"
"989";"2";"313";"1";"5";"2";"1";"11";"2";"[1,2,3,4]";"2";"0";"1"
"990";"34";"313";"1";"9";"3";"1";"11";"2";"[6,7,8,10]";"2";"0";"1"
"991";"30";"313";"1";"1";"3";"1";"11";"2";"[2,3,4,5]";"2";"0";"1"
"992";"13";"313";"1";"7";"3";"1";"11";"2";"[6,8,9,10]";"2";"0";"1"
"993";"19";"313";"1";"4";"2";"1";"11";"2";"[1,2,5]";"2";"0";"1"
"994";"36";"4";"1";"2";"1";"1";"11";"1";"[1,3,4,5,6]";"0";"11";"1"
"995";"11";"313";"1";"2";"3";"1";"11";"1";"[1,3,4,5,6]";"2";"0";"1"
"996";"26";"313";"1";"3";"2";"1";"11";"1";"[1,2,5]";"2";"0";"1"
"997";"5";"313";"1";"2";"2";"1";"11";"1";"[1,3,4,5,6]";"2";"0";"1"
"998";"31";"313";"1";"8";"4";"1";"11";"1";"[6,7,9,10]";"1";"0";"1"
"999";"6";"313";"1";"10";"2";"1";"11";"2";"[6,7,8,9]";"1";"0";"1"
"1000";"18";"314";"1";"8";"2";"1";"11";"2";"[6,7,9,10]";"1";"0";"1"
"1001";"38";"5";"1";"3";"1";"1";"11";"2";"[1,2,5]";"2";"0";"1"
"1002";"23";"314";"1";"1";"4";"1";"11";"1";"[2,3,4,5]";"0";"9";"1"
"1003";"2";"314";"1";"5";"2";"1";"11";"2";"[1,2,3,4]";"2";"0";"1"
"1004";"33";"5";"1";"9";"1";"1";"11";"1";"[6,7,8,10]";"1";"0";"1"
"1005";"13";"314";"1";"7";"3";"1";"11";"2";"[6,8,9,10]";"2";"0";"1"
"1006";"11";"314";"1";"2";"3";"1";"11";"1";"[1,3,4,5,6]";"2";"0";"1"
"1007";"26";"314";"1";"3";"2";"1";"11";"1";"[1,2,5]";"2";"0";"1"
"1008";"23";"314";"1";"1";"4";"1";"11";"1";"[2,3,4,5]";"0";"8";"1"
"1009";"5";"314";"1";"2";"2";"1";"11";"1";"[1,3,4,5,6]";"2";"0";"1"
"1010";"31";"314";"1";"8";"4";"1";"11";"1";"[6,7,9,10]";"1";"0";"1"
"1011";"38";"6";"1";"3";"1";"1";"11";"2";"[1,2,5]";"2";"0";"1"
"1012";"33";"6";"1";"9";"1";"1";"11";"1";"[6,7,8,10]";"1";"0";"1"
"1013";"3";"315";"1";"8";"3";"1";"11";"2";"[6,7,9,10]";"2";"0";"1"
"1014";"23";"316";"1";"1";"4";"1";"11";"1";"[2,3,4,5]";"0";"10";"1"
"1015";"17";"316";"1";"3";"3";"1";"11";"1";"[1,2,5]";"1";"0";"1"
"1016";"3";"316";"1";"8";"3";"1";"11";"2";"[6,7,9,10]";"2";"0";"1"
"1017";"23";"317";"1";"1";"4";"1";"11";"1";"[2,3,4,5]";"0";"11";"1"
"1018";"17";"317";"1";"3";"3";"1";"11";"1";"[1,2,5]";"1";"0";"1"
"1019";"23";"318";"1";"1";"4";"1";"11";"1";"[2,3,4,5]";"0";"7";"1"
"1020";"36";"9";"1";"2";"1";"1";"11";"1";"[1,3,4,5,6]";"1";"11";"1"
"1021";"23";"318";"1";"1";"4";"1";"11";"1";"[2,3,4,5]";"0";"10";"1"
"1022";"36";"10";"1";"2";"1";"1";"11";"1";"[1,3,4,5,6]";"1";"11";"1"
"1023";"23";"319";"1";"1";"4";"1";"11";"1";"[2,3,4,5]";"1";"10";"1"
"1024";"22";"10";"1";"5";"1";"1";"11";"1";"[1,2,3,4]";"1";"0";"1"
"1025";"28";"11";"1";"4";"1";"1";"11";"2";"[1,2,5]";"1";"0";"1"
"1026";"23";"320";"1";"1";"4";"1";"11";"1";"[2,3,4,5]";"1";"10";"1"
"1027";"22";"11";"1";"5";"1";"1";"11";"1";"[1,2,3,4]";"1";"0";"1"
"1028";"28";"12";"1";"4";"1";"1";"11";"2";"[1,2,5]";"1";"0";"1"
"1029";"21";"12";"1";"10";"1";"1";"11";"1";"[6,7,8,9]";"2";"0";"1"
"1030";"16";"13";"1";"8";"1";"1";"11";"2";"[6,7,9,10]";"1";"0";"1"
"1031";"39";"322";"1";"6";"3";"1";"11";"2";"[2,7,8,9,10]";"1";"0";"1"
"1032";"21";"13";"1";"10";"1";"1";"11";"1";"[6,7,8,9]";"2";"0";"1"
"1033";"16";"14";"1";"8";"1";"1";"11";"2";"[6,7,9,10]";"1";"0";"1"
"1034";"39";"323";"1";"6";"3";"1";"11";"2";"[2,7,8,9,10]";"1";"0";"1"
"1035";"20";"325";"1";"9";"4";"1";"11";"2";"[6,7,8,10]";"1";"0";"1"
"1036";"14";"326";"1";"4";"3";"1";"11";"2";"[1,2,5]";"2";"0";"1"
"1037";"20";"326";"1";"9";"4";"1";"11";"2";"[6,7,8,10]";"1";"0";"1"
"1038";"14";"327";"1";"4";"3";"1";"11";"2";"[1,2,5]";"2";"0";"1"
"1039";"4";"329";"1";"2";"4";"1";"12";"1";"[1,3,4,5,6]";"1";"0";"1"
"1040";"35";"329";"1";"5";"3";"1";"12";"2";"[1,2,3,4]";"2";"0";"1"
"1041";"8";"329";"1";"7";"2";"1";"12";"1";"[6,8,9,10]";"1";"0";"1"
"1042";"5";"329";"1";"2";"2";"1";"12";"1";"[1,3,4,5,6]";"1";"0";"1"
"1043";"32";"329";"1";"6";"2";"1";"12";"1";"[2,7,8,9,10]";"1";"0";"1"
"1044";"24";"329";"1";"5";"4";"1";"12";"1";"[1,2,3,4]";"2";"0";"1"
"1045";"18";"329";"1";"8";"2";"1";"12";"2";"[6,7,9,10]";"1";"0";"1"
"1046";"14";"329";"1";"4";"3";"1";"12";"2";"[1,2,5]";"2";"0";"1"
"1047";"3";"329";"1";"8";"3";"1";"12";"2";"[6,7,9,10]";"2";"0";"1"
"1048";"10";"329";"1";"6";"4";"1";"12";"1";"[2,7,8,9,10]";"1";"0";"1"
"1049";"4";"330";"1";"2";"4";"1";"12";"1";"[1,3,4,5,6]";"1";"0";"1"
"1050";"35";"330";"1";"5";"3";"1";"12";"2";"[1,2,3,4]";"2";"0";"1"
"1051";"15";"330";"1";"9";"2";"1";"12";"1";"[6,7,8,10]";"1";"0";"1"
"1052";"40";"330";"1";"1";"2";"1";"12";"2";"[2,3,4,5]";"2";"0";"1"
"1053";"27";"330";"1";"7";"4";"1";"12";"1";"[6,8,9,10]";"1";"0";"1"
"1054";"8";"330";"1";"7";"2";"1";"12";"1";"[6,8,9,10]";"1";"0";"1"
"1055";"6";"330";"1";"10";"2";"1";"12";"2";"[6,7,8,9]";"1";"0";"1"
"1056";"5";"330";"1";"2";"2";"1";"12";"1";"[1,3,4,5,6]";"1";"0";"1"
"1057";"32";"330";"1";"6";"2";"1";"12";"1";"[2,7,8,9,10]";"1";"0";"1"
"1058";"30";"330";"1";"1";"3";"1";"12";"2";"[2,3,4,5]";"2";"0";"1"
"1059";"24";"330";"1";"5";"4";"1";"12";"1";"[1,2,3,4]";"2";"0";"1"
"1060";"7";"3";"1";"6";"1";"1";"12";"1";"[2,7,8,9,10]";"1";"0";"1"
"1061";"37";"3";"1";"1";"1";"1";"12";"2";"[2,3,4,5]";"2";"0";"1"
"1062";"18";"330";"1";"8";"2";"1";"12";"2";"[6,7,9,10]";"1";"0";"1"
"1063";"14";"330";"1";"4";"3";"1";"12";"2";"[1,2,5]";"2";"0";"1"
"1064";"3";"330";"1";"8";"3";"1";"12";"2";"[6,7,9,10]";"2";"0";"1"
"1065";"29";"330";"1";"10";"4";"1";"12";"1";"[6,7,8,9]";"1";"0";"1"
"1066";"23";"330";"1";"1";"4";"1";"12";"1";"[2,3,4,5]";"1";"0";"1"
"1067";"20";"330";"1";"9";"4";"1";"12";"2";"[6,7,8,10]";"1";"0";"1"
"1068";"1";"330";"1";"10";"3";"1";"12";"2";"[6,7,8,9]";"2";"0";"1"
"1069";"10";"331";"1";"6";"4";"1";"12";"1";"[2,7,8,9,10]";"1";"0";"1"
"1070";"12";"4";"1";"7";"1";"1";"12";"1";"[6,8,9,10]";"1";"0";"1"
"1071";"15";"331";"1";"9";"2";"1";"12";"1";"[6,7,8,10]";"1";"0";"1"
"1072";"40";"331";"1";"1";"2";"1";"12";"2";"[2,3,4,5]";"2";"0";"1"
"1073";"27";"331";"1";"7";"4";"1";"12";"1";"[6,8,9,10]";"1";"0";"1"
"1074";"33";"4";"1";"9";"1";"1";"12";"1";"[6,7,8,10]";"1";"0";"1"
"1075";"25";"331";"1";"3";"4";"1";"12";"1";"[1,2,5]";"1";"0";"1"
"1076";"9";"331";"1";"4";"4";"1";"12";"1";"[1,2,5]";"1";"0";"1"
"1077";"6";"331";"1";"10";"2";"1";"12";"2";"[6,7,8,9]";"1";"0";"1"
"1078";"30";"331";"1";"1";"3";"1";"12";"2";"[2,3,4,5]";"2";"0";"1"
"1079";"7";"4";"1";"6";"1";"1";"12";"1";"[2,7,8,9,10]";"1";"0";"1"
"1080";"37";"4";"1";"1";"1";"1";"12";"2";"[2,3,4,5]";"2";"0";"1"
"1081";"19";"331";"1";"4";"2";"1";"12";"2";"[1,2,5]";"2";"0";"1"
"1082";"31";"331";"1";"8";"4";"1";"12";"1";"[6,7,9,10]";"1";"0";"1"
"1083";"29";"331";"1";"10";"4";"1";"12";"1";"[6,7,8,9]";"1";"0";"1"
"1084";"23";"331";"1";"1";"4";"1";"12";"1";"[2,3,4,5]";"1";"0";"1"
"1085";"20";"331";"1";"9";"4";"1";"12";"2";"[6,7,8,10]";"1";"0";"1"
"1086";"1";"332";"1";"10";"3";"1";"12";"2";"[6,7,8,9]";"2";"0";"1"
"1087";"12";"5";"1";"7";"1";"1";"12";"1";"[6,8,9,10]";"1";"0";"1"
"1088";"22";"5";"1";"5";"1";"1";"12";"1";"[1,2,3,4]";"1";"0";"1"
"1089";"33";"5";"1";"9";"1";"1";"12";"1";"[6,7,8,10]";"1";"0";"1"
"1090";"25";"332";"1";"3";"4";"1";"12";"1";"[1,2,5]";"1";"0";"1"
"1091";"17";"332";"1";"3";"3";"1";"12";"1";"[1,2,5]";"2";"0";"1"
"1092";"9";"332";"1";"4";"4";"1";"12";"1";"[1,2,5]";"1";"0";"1"
"1093";"19";"332";"1";"4";"2";"1";"12";"2";"[1,2,5]";"2";"0";"1"
"1094";"2";"332";"1";"5";"2";"1";"12";"2";"[1,2,3,4]";"2";"0";"1"
"1095";"31";"332";"1";"8";"4";"1";"12";"1";"[6,7,9,10]";"1";"0";"1"
"1096";"11";"332";"1";"2";"3";"1";"12";"1";"[1,3,4,5,6]";"2";"0";"1"
"1097";"36";"5";"1";"2";"1";"1";"12";"1";"[1,3,4,5,6]";"0";"12";"1"
"1098";"26";"333";"1";"3";"2";"1";"12";"1";"[1,2,5]";"2";"0";"1"
"1099";"22";"6";"1";"5";"1";"1";"12";"1";"[1,2,3,4]";"1";"0";"1"
"1100";"17";"333";"1";"3";"3";"1";"12";"1";"[1,2,5]";"2";"0";"1"
"1101";"2";"333";"1";"5";"2";"1";"12";"2";"[1,2,3,4]";"2";"0";"1"
"1102";"34";"333";"1";"9";"3";"1";"12";"2";"[6,7,8,10]";"2";"0";"1"
"1103";"11";"333";"1";"2";"3";"1";"12";"1";"[1,3,4,5,6]";"2";"0";"1"
"1104";"36";"6";"1";"2";"1";"1";"12";"1";"[1,3,4,5,6]";"0";"10";"1"
"1105";"26";"334";"1";"3";"2";"1";"12";"1";"[1,2,5]";"2";"0";"1"
"1106";"34";"334";"1";"9";"3";"1";"12";"2";"[6,7,8,10]";"2";"0";"1"
"1107";"13";"335";"1";"7";"3";"1";"12";"2";"[6,8,9,10]";"2";"0";"1"
"1108";"38";"8";"1";"3";"1";"1";"12";"2";"[1,2,5]";"2";"0";"1"
"1109";"13";"336";"1";"7";"3";"1";"12";"2";"[6,8,9,10]";"2";"0";"1"
"1110";"36";"9";"1";"2";"1";"1";"12";"1";"[1,3,4,5,6]";"0";"9";"1"
"1111";"36";"9";"1";"2";"1";"1";"12";"1";"[1,3,4,5,6]";"0";"8";"1"
"1112";"38";"9";"1";"3";"1";"1";"12";"2";"[1,2,5]";"2";"0";"1"
"1113";"21";"9";"1";"10";"1";"1";"12";"1";"[6,7,8,9]";"1";"0";"1"
"1114";"39";"337";"1";"6";"3";"1";"12";"2";"[2,7,8,9,10]";"2";"0";"1"
"1115";"36";"10";"1";"2";"1";"1";"12";"1";"[1,3,4,5,6]";"0";"7";"1"
"1116";"21";"10";"1";"10";"1";"1";"12";"1";"[6,7,8,9]";"1";"0";"1"
"1117";"36";"11";"1";"2";"1";"1";"12";"1";"[1,3,4,5,6]";"0";"6";"1"
"1118";"39";"338";"1";"6";"3";"1";"12";"2";"[2,7,8,9,10]";"2";"0";"1"
"1119";"36";"12";"1";"2";"1";"1";"12";"1";"[1,3,4,5,6]";"0";"4";"1"
"1120";"36";"12";"1";"2";"1";"1";"12";"1";"[1,3,4,5,6]";"0";"3";"1"
"1121";"36";"15";"1";"2";"1";"1";"12";"1";"[1,3,4,5,6]";"0";"12";"1"
"1122";"36";"17";"1";"2";"1";"1";"12";"1";"[1,3,4,5,6]";"1";"12";"1"
"1123";"36";"18";"1";"2";"1";"1";"12";"1";"[1,3,4,5,6]";"1";"12";"1"
"1124";"16";"18";"1";"8";"1";"1";"12";"2";"[6,7,9,10]";"2";"0";"1"
"1125";"16";"19";"1";"8";"1";"1";"12";"2";"[6,7,9,10]";"2";"0";"1"
"1126";"28";"23";"1";"4";"1";"1";"12";"2";"[1,2,5]";"1";"0";"1"
"1127";"28";"24";"1";"4";"1";"1";"12";"2";"[1,2,5]";"1";"0";"1"
"1128";"7";"0";"1";"1";"1";"2";"12";"2";"[2,3,4,5]";"2";"0";"1"
"1129";"25";"0";"1";"6";"4";"2";"12";"1";"[2,7,8,9,10]";"1";"0";"1"
"1130";"33";"0";"1";"2";"1";"2";"12";"2";"[1,3,4,5,6]";"1";"12";"1"
"1131";"30";"0";"1";"10";"3";"2";"12";"1";"[6,7,8,9]";"2";"0";"1"
"1132";"11";"0";"1";"4";"3";"2";"12";"1";"[1,2,5]";"2";"0";"1"
"1133";"22";"0";"1";"5";"1";"2";"12";"2";"[1,2,3,4]";"1";"0";"1"
"1134";"1";"0";"1";"7";"3";"2";"12";"1";"[6,8,9,10]";"2";"0";"1"
"1135";"23";"0";"1";"5";"4";"2";"12";"1";"[1,2,3,4]";"2";"0";"1"
"1136";"19";"0";"1";"8";"2";"2";"12";"1";"[6,7,9,10]";"1";"0";"1"
"1137";"31";"0";"1";"3";"4";"2";"12";"2";"[1,2,5]";"1";"0";"1"
"1138";"34";"0";"1";"3";"3";"2";"12";"1";"[1,2,5]";"2";"0";"1"
"1139";"24";"0";"1";"1";"4";"2";"12";"2";"[2,3,4,5]";"1";"0";"1"
"1140";"18";"0";"1";"10";"2";"2";"12";"1";"[6,7,8,9]";"1";"0";"1"
"1141";"2";"0";"1";"2";"2";"2";"12";"1";"[1,3,4,5,6]";"1";"0";"1"
"1142";"39";"0";"1";"6";"3";"2";"12";"2";"[2,7,8,9,10]";"2";"0";"1"
"1143";"37";"0";"1";"4";"1";"2";"12";"2";"[1,2,5]";"1";"0";"1"
"1144";"14";"0";"1";"8";"3";"2";"12";"1";"[6,7,9,10]";"2";"0";"1"
"1145";"21";"0";"1";"7";"1";"2";"12";"1";"[6,8,9,10]";"1";"0";"1"
"1146";"15";"0";"1";"5";"2";"2";"12";"1";"[1,2,3,4]";"2";"0";"1"
"1147";"4";"0";"1";"4";"4";"2";"12";"2";"[1,2,5]";"1";"0";"1"
"1148";"32";"0";"1";"3";"2";"2";"12";"2";"[1,2,5]";"2";"0";"1"
"1149";"12";"0";"1";"9";"1";"2";"12";"2";"[6,7,8,10]";"1";"0";"1"
"1150";"27";"0";"1";"10";"4";"2";"12";"1";"[6,7,8,9]";"1";"0";"1"
"1151";"6";"0";"1";"6";"2";"2";"12";"1";"[2,7,8,9,10]";"1";"0";"1"
"1152";"3";"0";"1";"5";"3";"2";"12";"1";"[1,2,3,4]";"2";"0";"1"
"1153";"40";"0";"1";"9";"2";"2";"12";"1";"[6,7,8,10]";"1";"0";"1"
"1154";"5";"0";"1";"1";"2";"2";"12";"1";"[2,3,4,5]";"2";"0";"1"
"1155";"20";"0";"1";"7";"4";"2";"12";"2";"[6,8,9,10]";"1";"0";"1"
"1156";"35";"0";"1";"1";"3";"2";"12";"1";"[2,3,4,5]";"2";"0";"1"
"1157";"29";"0";"1";"2";"4";"2";"12";"2";"[1,3,4,5,6]";"1";"0";"1"
"1158";"28";"0";"1";"10";"1";"2";"12";"2";"[6,7,8,9]";"1";"0";"1"
"1159";"13";"0";"1";"2";"3";"2";"12";"1";"[1,3,4,5,6]";"2";"0";"1"
"1160";"16";"0";"1";"8";"1";"2";"12";"2";"[6,7,9,10]";"2";"0";"1"
"1161";"10";"0";"1";"8";"4";"2";"12";"2";"[6,7,9,10]";"1";"0";"1"
"1162";"36";"0";"1";"3";"1";"2";"12";"2";"[1,2,5]";"2";"0";"1"
"1163";"38";"0";"1";"6";"1";"2";"12";"2";"[2,7,8,9,10]";"1";"0";"1"
"1164";"17";"0";"1";"9";"3";"2";"12";"1";"[6,7,8,10]";"2";"0";"1"
"1165";"26";"0";"1";"4";"2";"2";"12";"1";"[1,2,5]";"2";"0";"1"
"1166";"9";"0";"1";"9";"4";"2";"12";"1";"[6,7,8,10]";"1";"0";"1"
"1167";"8";"0";"1";"7";"2";"2";"12";"1";"[6,8,9,10]";"1";"0";"1"
"1168";"32";"2";"1";"3";"2";"2";"1";"2";"[1,2,5]";"2";"0";"1"
"1169";"18";"2";"1";"10";"2";"2";"1";"1";"[6,7,8,9]";"1";"0";"1"
"1170";"25";"3";"1";"6";"4";"2";"1";"1";"[2,7,8,9,10]";"1";"0";"1"
"1171";"3";"3";"1";"5";"3";"2";"1";"1";"[1,2,3,4]";"1";"0";"1"
"1172";"19";"3";"1";"8";"2";"2";"1";"1";"[6,7,9,10]";"1";"0";"1"
"1173";"16";"3";"1";"8";"1";"2";"1";"2";"[6,7,9,10]";"2";"0";"1"
"1174";"35";"3";"1";"1";"3";"2";"1";"1";"[2,3,4,5]";"1";"0";"1"
"1175";"32";"3";"1";"3";"2";"2";"1";"2";"[1,2,5]";"2";"0";"1"
"1176";"37";"3";"1";"4";"1";"2";"1";"2";"[1,2,5]";"2";"0";"1"
"1177";"6";"3";"1";"6";"2";"2";"1";"1";"[2,7,8,9,10]";"1";"0";"1"
"1178";"13";"3";"1";"2";"3";"2";"1";"1";"[1,3,4,5,6]";"1";"0";"1"
"1179";"18";"3";"1";"10";"2";"2";"1";"1";"[6,7,8,9]";"1";"0";"1"
"1180";"21";"3";"1";"7";"1";"2";"1";"1";"[6,8,9,10]";"1";"0";"1"
"1181";"1";"4";"1";"7";"3";"2";"1";"1";"[6,8,9,10]";"1";"0";"1"
"1182";"25";"4";"1";"6";"4";"2";"1";"1";"[2,7,8,9,10]";"1";"0";"1"
"1183";"3";"4";"1";"5";"3";"2";"1";"1";"[1,2,3,4]";"1";"0";"1"
"1184";"19";"4";"1";"8";"2";"2";"1";"1";"[6,7,9,10]";"1";"0";"1"
"1185";"29";"4";"1";"2";"4";"2";"1";"2";"[1,3,4,5,6]";"2";"0";"1"
"1186";"16";"4";"1";"8";"1";"2";"1";"2";"[6,7,9,10]";"2";"0";"1"
"1187";"35";"4";"1";"1";"3";"2";"1";"1";"[2,3,4,5]";"1";"0";"1"
"1188";"12";"4";"1";"9";"1";"2";"1";"2";"[6,7,8,10]";"2";"0";"1"
"1189";"15";"4";"1";"5";"2";"2";"1";"1";"[1,2,3,4]";"1";"0";"1"
"1190";"7";"4";"1";"1";"1";"2";"1";"2";"[2,3,4,5]";"2";"0";"1"
"1191";"2";"4";"1";"2";"2";"2";"1";"1";"[1,3,4,5,6]";"1";"0";"1"
"1192";"37";"4";"1";"4";"1";"2";"1";"2";"[1,2,5]";"2";"0";"1"
"1193";"4";"4";"1";"4";"4";"2";"1";"2";"[1,2,5]";"2";"0";"1"
"1194";"6";"4";"1";"6";"2";"2";"1";"1";"[2,7,8,9,10]";"1";"0";"1"
"1195";"26";"4";"1";"4";"2";"2";"1";"1";"[1,2,5]";"2";"0";"1"
"1196";"13";"4";"1";"2";"3";"2";"1";"1";"[1,3,4,5,6]";"1";"0";"1"
"1197";"21";"4";"1";"7";"1";"2";"1";"1";"[6,8,9,10]";"1";"0";"1"
"1198";"33";"5";"1";"2";"1";"2";"1";"2";"[1,3,4,5,6]";"2";"0";"1"
"1199";"1";"5";"1";"7";"3";"2";"1";"1";"[6,8,9,10]";"1";"0";"1"
"1200";"29";"5";"1";"2";"4";"2";"1";"2";"[1,3,4,5,6]";"2";"0";"1"
"1201";"27";"5";"1";"10";"4";"2";"1";"1";"[6,7,8,9]";"1";"0";"1"
"1202";"34";"5";"1";"3";"3";"2";"1";"1";"[1,2,5]";"1";"0";"1"
"1203";"12";"5";"1";"9";"1";"2";"1";"2";"[6,7,8,10]";"2";"0";"1"
"1204";"15";"5";"1";"5";"2";"2";"1";"1";"[1,2,3,4]";"1";"0";"1"
"1205";"2";"5";"1";"2";"2";"2";"1";"1";"[1,3,4,5,6]";"1";"0";"1"
"1206";"7";"5";"1";"1";"1";"2";"1";"2";"[2,3,4,5]";"2";"0";"1"
"1207";"4";"5";"1";"4";"4";"2";"1";"2";"[1,2,5]";"2";"0";"1"
"1208";"26";"5";"1";"4";"2";"2";"1";"1";"[1,2,5]";"2";"0";"1"
"1209";"22";"5";"1";"5";"1";"2";"1";"2";"[1,2,3,4]";"2";"0";"1"
"1210";"33";"6";"1";"2";"1";"2";"1";"2";"[1,3,4,5,6]";"2";"0";"1"
"1211";"31";"6";"1";"3";"4";"2";"1";"2";"[1,2,5]";"2";"0";"1"
"1212";"20";"6";"1";"7";"4";"2";"1";"2";"[6,8,9,10]";"2";"0";"1"
"1213";"27";"6";"1";"10";"4";"2";"1";"1";"[6,7,8,9]";"1";"0";"1"
"1214";"34";"6";"1";"3";"3";"2";"1";"1";"[1,2,5]";"1";"0";"1"
"1215";"39";"6";"1";"6";"3";"2";"1";"2";"[2,7,8,9,10]";"2";"0";"1"
"1216";"9";"6";"1";"9";"4";"2";"1";"1";"[6,7,8,10]";"1";"0";"1"
"1217";"5";"6";"1";"1";"2";"2";"1";"1";"[2,3,4,5]";"1";"0";"1"
"1218";"22";"6";"1";"5";"1";"2";"1";"2";"[1,2,3,4]";"2";"0";"1"
"1219";"31";"7";"1";"3";"4";"2";"1";"2";"[1,2,5]";"2";"0";"1"
"1220";"20";"7";"1";"7";"4";"2";"1";"2";"[6,8,9,10]";"2";"0";"1"
"1221";"39";"7";"1";"6";"3";"2";"1";"2";"[2,7,8,9,10]";"2";"0";"1"
"1222";"14";"7";"1";"8";"3";"2";"1";"1";"[6,7,9,10]";"1";"0";"1"
"1223";"9";"7";"1";"9";"4";"2";"1";"1";"[6,7,8,10]";"1";"0";"1"
"1224";"30";"7";"1";"10";"3";"2";"1";"1";"[6,7,8,9]";"1";"0";"1"
"1225";"5";"7";"1";"1";"2";"2";"1";"1";"[2,3,4,5]";"1";"0";"1"
"1226";"14";"8";"1";"8";"3";"2";"1";"1";"[6,7,9,10]";"1";"0";"1"
"1227";"30";"8";"1";"10";"3";"2";"1";"1";"[6,7,8,9]";"1";"0";"1"
"1228";"17";"9";"1";"9";"3";"2";"1";"1";"[6,7,8,10]";"1";"0";"1"
"1229";"17";"10";"1";"9";"3";"2";"1";"1";"[6,7,8,10]";"1";"0";"1"
"1230";"23";"10";"1";"5";"4";"2";"1";"1";"[1,2,3,4]";"1";"0";"1"
"1231";"36";"10";"1";"3";"1";"2";"1";"2";"[1,2,5]";"2";"0";"1"
"1232";"38";"11";"1";"6";"1";"2";"1";"2";"[2,7,8,9,10]";"2";"0";"1"
"1233";"23";"11";"1";"5";"4";"2";"1";"1";"[1,2,3,4]";"1";"0";"1"
"1234";"36";"11";"1";"3";"1";"2";"1";"2";"[1,2,5]";"2";"0";"1"
"1235";"38";"12";"1";"6";"1";"2";"1";"2";"[2,7,8,9,10]";"2";"0";"1"
"1236";"40";"12";"1";"9";"2";"2";"1";"1";"[6,7,8,10]";"2";"0";"1"
"1237";"24";"12";"1";"1";"4";"2";"1";"2";"[2,3,4,5]";"1";"0";"1"
"1238";"40";"13";"1";"9";"2";"2";"1";"1";"[6,7,8,10]";"2";"0";"1"
"1239";"24";"13";"1";"1";"4";"2";"1";"2";"[2,3,4,5]";"1";"0";"1"
"1240";"10";"14";"1";"8";"4";"2";"1";"2";"[6,7,9,10]";"2";"0";"1"
"1241";"11";"15";"1";"4";"3";"2";"1";"1";"[1,2,5]";"1";"0";"1"
"1242";"10";"15";"1";"8";"4";"2";"1";"2";"[6,7,9,10]";"2";"0";"1"
"1243";"28";"16";"1";"10";"1";"2";"1";"2";"[6,7,8,9]";"2";"0";"1"
"1244";"11";"16";"1";"4";"3";"2";"1";"1";"[1,2,5]";"1";"0";"1"
"1245";"28";"17";"1";"10";"1";"2";"1";"2";"[6,7,8,9]";"2";"0";"1"
"1246";"8";"18";"1";"7";"2";"2";"1";"1";"[6,8,9,10]";"1";"0";"1"
"1247";"8";"19";"1";"7";"2";"2";"1";"1";"[6,8,9,10]";"1";"0";"1"
"1248";"32";"22";"1";"3";"2";"2";"2";"2";"[1,2,5]";"1";"0";"1"
"1249";"19";"22";"1";"8";"2";"2";"2";"1";"[6,7,9,10]";"1";"0";"1"
"1250";"35";"22";"1";"1";"3";"2";"2";"1";"[2,3,4,5]";"1";"0";"1"
"1251";"5";"22";"1";"1";"2";"2";"2";"1";"[2,3,4,5]";"1";"0";"1"
"1252";"7";"3";"1";"1";"1";"2";"2";"2";"[2,3,4,5]";"2";"0";"1"
"1253";"4";"22";"1";"4";"4";"2";"2";"2";"[1,2,5]";"2";"0";"1"
"1254";"30";"23";"1";"10";"3";"2";"2";"1";"[6,7,8,9]";"1";"0";"1"
"1255";"32";"23";"1";"3";"2";"2";"2";"2";"[1,2,5]";"1";"0";"1"
"1256";"19";"23";"1";"8";"2";"2";"2";"1";"[6,7,9,10]";"1";"0";"1"
"1257";"35";"23";"1";"1";"3";"2";"2";"1";"[2,3,4,5]";"1";"0";"1"
"1258";"40";"23";"1";"9";"2";"2";"2";"1";"[6,7,8,10]";"1";"0";"1"
"1259";"5";"23";"1";"1";"2";"2";"2";"1";"[2,3,4,5]";"1";"0";"1"
"1260";"34";"23";"1";"3";"3";"2";"2";"1";"[1,2,5]";"1";"0";"1"
"1261";"7";"4";"1";"1";"1";"2";"2";"2";"[2,3,4,5]";"2";"0";"1"
"1262";"4";"23";"1";"4";"4";"2";"2";"2";"[1,2,5]";"2";"0";"1"
"1263";"29";"23";"1";"2";"4";"2";"2";"2";"[1,3,4,5,6]";"2";"0";"1"
"1264";"27";"24";"1";"10";"4";"2";"2";"1";"[6,7,8,9]";"1";"0";"1"
"1265";"24";"24";"1";"1";"4";"2";"2";"2";"[2,3,4,5]";"2";"0";"1"
"1266";"30";"24";"1";"10";"3";"2";"2";"1";"[6,7,8,9]";"1";"0";"1"
"1267";"16";"5";"1";"8";"1";"2";"2";"2";"[6,7,9,10]";"2";"0";"1"
"1268";"40";"24";"1";"9";"2";"2";"2";"1";"[6,7,8,10]";"1";"0";"1"
"1269";"34";"24";"1";"3";"3";"2";"2";"1";"[1,2,5]";"1";"0";"1"
"1270";"18";"24";"1";"10";"2";"2";"2";"1";"[6,7,8,9]";"1";"0";"1"
"1271";"29";"24";"1";"2";"4";"2";"2";"2";"[1,3,4,5,6]";"2";"0";"1"
"1272";"27";"25";"1";"10";"4";"2";"2";"1";"[6,7,8,9]";"1";"0";"1"
"1273";"3";"25";"1";"5";"3";"2";"2";"1";"[1,2,3,4]";"1";"0";"1"
"1274";"24";"25";"1";"1";"4";"2";"2";"2";"[2,3,4,5]";"2";"0";"1"
"1275";"16";"6";"1";"8";"1";"2";"2";"2";"[6,7,9,10]";"2";"0";"1"
"1276";"33";"6";"1";"2";"1";"2";"2";"2";"[1,3,4,5,6]";"2";"0";"1"
"1277";"13";"25";"1";"2";"3";"2";"2";"1";"[1,3,4,5,6]";"1";"0";"1"
"1278";"15";"25";"1";"5";"2";"2";"2";"1";"[1,2,3,4]";"1";"0";"1"
"1279";"18";"25";"1";"10";"2";"2";"2";"1";"[6,7,8,9]";"1";"0";"1"
"1280";"26";"25";"1";"4";"2";"2";"2";"1";"[1,2,5]";"2";"0";"1"
"1281";"12";"7";"1";"9";"1";"2";"2";"2";"[6,7,8,10]";"2";"0";"1"
"1282";"3";"26";"1";"5";"3";"2";"2";"1";"[1,2,3,4]";"1";"0";"1"
"1283";"33";"7";"1";"2";"1";"2";"2";"2";"[1,3,4,5,6]";"2";"0";"1"
"1284";"13";"26";"1";"2";"3";"2";"2";"1";"[1,3,4,5,6]";"1";"0";"1"
"1285";"22";"7";"1";"5";"1";"2";"2";"2";"[1,2,3,4]";"2";"0";"1"
"1286";"15";"26";"1";"5";"2";"2";"2";"1";"[1,2,3,4]";"1";"0";"1"
"1287";"37";"7";"1";"4";"1";"2";"2";"2";"[1,2,5]";"2";"0";"1"
"1288";"26";"26";"1";"4";"2";"2";"2";"1";"[1,2,5]";"2";"0";"1"
"1289";"12";"8";"1";"9";"1";"2";"2";"2";"[6,7,8,10]";"2";"0";"1"
"1290";"39";"27";"1";"6";"3";"2";"2";"2";"[2,7,8,9,10]";"2";"0";"1"
"1291";"22";"8";"1";"5";"1";"2";"2";"2";"[1,2,3,4]";"2";"0";"1"
"1292";"37";"8";"1";"4";"1";"2";"2";"2";"[1,2,5]";"2";"0";"1"
"1293";"39";"28";"1";"6";"3";"2";"2";"2";"[2,7,8,9,10]";"2";"0";"1"
"1294";"2";"28";"1";"2";"2";"2";"2";"1";"[1,3,4,5,6]";"1";"0";"1"
"1295";"14";"29";"1";"8";"3";"2";"2";"1";"[6,7,9,10]";"1";"0";"1"
"1296";"2";"29";"1";"2";"2";"2";"2";"1";"[1,3,4,5,6]";"1";"0";"1"
"1297";"6";"30";"1";"6";"2";"2";"2";"1";"[2,7,8,9,10]";"1";"0";"1"
"1298";"38";"11";"1";"6";"1";"2";"2";"2";"[2,7,8,9,10]";"2";"0";"1"
"1299";"14";"30";"1";"8";"3";"2";"2";"1";"[6,7,9,10]";"1";"0";"1"
"1300";"6";"31";"1";"6";"2";"2";"2";"1";"[2,7,8,9,10]";"1";"0";"1"
"1301";"11";"31";"1";"4";"3";"2";"2";"1";"[1,2,5]";"1";"0";"1"
"1302";"23";"31";"1";"5";"4";"2";"2";"1";"[1,2,3,4]";"2";"0";"1"
"1303";"38";"12";"1";"6";"1";"2";"2";"2";"[2,7,8,9,10]";"2";"0";"1"
"1304";"31";"31";"1";"3";"4";"2";"2";"2";"[1,2,5]";"2";"0";"1"
"1305";"11";"32";"1";"4";"3";"2";"2";"1";"[1,2,5]";"1";"0";"1"
"1306";"23";"32";"1";"5";"4";"2";"2";"1";"[1,2,3,4]";"2";"0";"1"
"1307";"31";"32";"1";"3";"4";"2";"2";"2";"[1,2,5]";"2";"0";"1"
"1308";"17";"32";"1";"9";"3";"2";"2";"1";"[6,7,8,10]";"1";"0";"1"
"1309";"28";"14";"1";"10";"1";"2";"2";"2";"[6,7,8,9]";"2";"0";"1"
"1310";"1";"33";"1";"7";"3";"2";"2";"1";"[6,8,9,10]";"1";"0";"1"
"1311";"17";"33";"1";"9";"3";"2";"2";"1";"[6,7,8,10]";"1";"0";"1"
"1312";"28";"15";"1";"10";"1";"2";"2";"2";"[6,7,8,9]";"2";"0";"1"
"1313";"1";"34";"1";"7";"3";"2";"2";"1";"[6,8,9,10]";"1";"0";"1"
"1314";"21";"16";"1";"7";"1";"2";"2";"1";"[6,8,9,10]";"1";"0";"1"
"1315";"20";"35";"1";"7";"4";"2";"2";"2";"[6,8,9,10]";"2";"0";"1"
"1316";"21";"17";"1";"7";"1";"2";"2";"1";"[6,8,9,10]";"1";"0";"1"
"1317";"20";"36";"1";"7";"4";"2";"2";"2";"[6,8,9,10]";"2";"0";"1"
"1318";"9";"37";"1";"9";"4";"2";"2";"1";"[6,7,8,10]";"1";"0";"1"
"1319";"9";"38";"1";"9";"4";"2";"2";"1";"[6,7,8,10]";"1";"0";"1"
"1320";"8";"38";"1";"7";"2";"2";"2";"1";"[6,8,9,10]";"1";"0";"1"
"1321";"36";"20";"1";"3";"1";"2";"2";"2";"[1,2,5]";"2";"0";"1"
"1322";"8";"39";"1";"7";"2";"2";"2";"1";"[6,8,9,10]";"1";"0";"1"
"1323";"36";"21";"1";"3";"1";"2";"2";"2";"[1,2,5]";"2";"0";"1"
"1324";"10";"40";"1";"8";"4";"2";"2";"2";"[6,7,9,10]";"1";"0";"1"
"1325";"10";"41";"1";"8";"4";"2";"2";"2";"[6,7,9,10]";"1";"0";"1"
"1326";"36";"24";"1";"3";"1";"2";"2";"2";"[1,2,5]";"2";"2";"1"
"1327";"25";"46";"1";"6";"4";"2";"2";"1";"[2,7,8,9,10]";"1";"0";"1"
"1328";"25";"47";"1";"6";"4";"2";"2";"1";"[2,7,8,9,10]";"1";"0";"1"
"1329";"7";"2";"1";"1";"1";"2";"3";"2";"[2,3,4,5]";"2";"0";"1"
"1330";"40";"49";"1";"9";"2";"2";"3";"1";"[6,7,8,10]";"1";"0";"1"
"1331";"33";"2";"1";"2";"1";"2";"3";"2";"[1,3,4,5,6]";"2";"0";"1"
"1332";"4";"49";"1";"4";"4";"2";"3";"2";"[1,2,5]";"2";"0";"1"
"1333";"16";"2";"1";"8";"1";"2";"3";"2";"[6,7,9,10]";"2";"0";"1"
"1334";"3";"49";"1";"5";"3";"2";"3";"1";"[1,2,3,4]";"1";"0";"1"
"1335";"34";"49";"1";"3";"3";"2";"3";"1";"[1,2,5]";"1";"0";"1"
"1336";"19";"49";"1";"8";"2";"2";"3";"1";"[6,7,9,10]";"1";"0";"1"
"1337";"12";"2";"1";"9";"1";"2";"3";"2";"[6,7,8,10]";"2";"0";"1"
"1338";"26";"49";"1";"4";"2";"2";"3";"1";"[1,2,5]";"2";"0";"1"
"1339";"30";"49";"1";"10";"3";"2";"3";"1";"[6,7,8,9]";"1";"0";"1"
"1340";"11";"49";"1";"4";"3";"2";"3";"1";"[1,2,5]";"2";"0";"1"
"1341";"35";"49";"1";"1";"3";"2";"3";"1";"[2,3,4,5]";"1";"0";"1"
"1342";"2";"50";"1";"2";"2";"2";"3";"1";"[1,3,4,5,6]";"1";"0";"1"
"1343";"27";"50";"1";"10";"4";"2";"3";"1";"[6,7,8,9]";"1";"0";"1"
"1344";"7";"3";"1";"1";"1";"2";"3";"2";"[2,3,4,5]";"2";"0";"1"
"1345";"24";"50";"1";"1";"4";"2";"3";"2";"[2,3,4,5]";"2";"0";"1"
"1346";"40";"50";"1";"9";"2";"2";"3";"1";"[6,7,8,10]";"1";"0";"1"
"1347";"33";"3";"1";"2";"1";"2";"3";"2";"[1,3,4,5,6]";"2";"0";"1"
"1348";"4";"50";"1";"4";"4";"2";"3";"2";"[1,2,5]";"2";"0";"1"
"1349";"1";"50";"1";"7";"3";"2";"3";"1";"[6,8,9,10]";"1";"0";"1"
"1350";"3";"50";"1";"5";"3";"2";"3";"1";"[1,2,3,4]";"1";"0";"1"
"1351";"16";"3";"1";"8";"1";"2";"3";"2";"[6,7,9,10]";"2";"0";"1"
"1352";"34";"50";"1";"3";"3";"2";"3";"1";"[1,2,5]";"1";"0";"1"
"1353";"29";"50";"1";"2";"4";"2";"3";"2";"[1,3,4,5,6]";"2";"0";"1"
"1354";"23";"50";"1";"5";"4";"2";"3";"1";"[1,2,3,4]";"2";"0";"1"
"1355";"15";"50";"1";"5";"2";"2";"3";"1";"[1,2,3,4]";"1";"0";"1"
"1356";"19";"50";"1";"8";"2";"2";"3";"1";"[6,7,9,10]";"1";"0";"1"
"1357";"9";"50";"1";"9";"4";"2";"3";"1";"[6,7,8,10]";"1";"0";"1"
"1358";"26";"50";"1";"4";"2";"2";"3";"1";"[1,2,5]";"2";"0";"1"
"1359";"12";"3";"1";"9";"1";"2";"3";"2";"[6,7,8,10]";"2";"0";"1"
"1360";"18";"50";"1";"10";"2";"2";"3";"1";"[6,7,8,9]";"1";"0";"1"
"1361";"30";"50";"1";"10";"3";"2";"3";"1";"[6,7,8,9]";"1";"0";"1"
"1362";"11";"50";"1";"4";"3";"2";"3";"1";"[1,2,5]";"2";"0";"1"
"1363";"22";"3";"1";"5";"1";"2";"3";"2";"[1,2,3,4]";"2";"0";"1"
"1364";"35";"50";"1";"1";"3";"2";"3";"1";"[2,3,4,5]";"1";"0";"1"
"1365";"2";"51";"1";"2";"2";"2";"3";"1";"[1,3,4,5,6]";"1";"0";"1"
"1366";"27";"51";"1";"10";"4";"2";"3";"1";"[6,7,8,9]";"1";"0";"1"
"1367";"32";"51";"1";"3";"2";"2";"3";"2";"[1,2,5]";"2";"0";"1"
"1368";"24";"51";"1";"1";"4";"2";"3";"2";"[2,3,4,5]";"2";"0";"1"
"1369";"1";"51";"1";"7";"3";"2";"3";"1";"[6,8,9,10]";"1";"0";"1"
"1370";"29";"51";"1";"2";"4";"2";"3";"2";"[1,3,4,5,6]";"2";"0";"1"
"1371";"23";"51";"1";"5";"4";"2";"3";"1";"[1,2,3,4]";"2";"0";"1"
"1372";"15";"51";"1";"5";"2";"2";"3";"1";"[1,2,3,4]";"1";"0";"1"
"1373";"9";"51";"1";"9";"4";"2";"3";"1";"[6,7,8,10]";"1";"0";"1"
"1374";"18";"51";"1";"10";"2";"2";"3";"1";"[6,7,8,9]";"1";"0";"1"
"1375";"22";"4";"1";"5";"1";"2";"3";"2";"[1,2,3,4]";"2";"0";"1"
"1376";"37";"5";"1";"4";"1";"2";"3";"2";"[1,2,5]";"2";"0";"1"
"1377";"32";"52";"1";"3";"2";"2";"3";"2";"[1,2,5]";"2";"0";"1"
"1378";"13";"52";"1";"2";"3";"2";"3";"1";"[1,3,4,5,6]";"1";"0";"1"
"1379";"37";"6";"1";"4";"1";"2";"3";"2";"[1,2,5]";"2";"0";"1"
"1380";"5";"53";"1";"1";"2";"2";"3";"1";"[2,3,4,5]";"1";"0";"1"
"1381";"13";"53";"1";"2";"3";"2";"3";"1";"[1,3,4,5,6]";"1";"0";"1"
"1382";"6";"53";"1";"6";"2";"2";"3";"1";"[2,7,8,9,10]";"1";"0";"1"
"1383";"38";"7";"1";"6";"1";"2";"3";"2";"[2,7,8,9,10]";"2";"0";"1"
"1384";"5";"54";"1";"1";"2";"2";"3";"1";"[2,3,4,5]";"1";"0";"1"
"1385";"31";"54";"1";"3";"4";"2";"3";"2";"[1,2,5]";"2";"0";"1"
"1386";"6";"54";"1";"6";"2";"2";"3";"1";"[2,7,8,9,10]";"1";"0";"1"
"1387";"38";"8";"1";"6";"1";"2";"3";"2";"[2,7,8,9,10]";"2";"0";"1"
"1388";"31";"55";"1";"3";"4";"2";"3";"2";"[1,2,5]";"2";"0";"1"
"1389";"20";"56";"1";"7";"4";"2";"3";"2";"[6,8,9,10]";"2";"0";"1"
"1390";"17";"56";"1";"9";"3";"2";"3";"1";"[6,7,8,10]";"1";"0";"1"
"1391";"20";"57";"1";"7";"4";"2";"3";"2";"[6,8,9,10]";"2";"0";"1"
"1392";"28";"10";"1";"10";"1";"2";"3";"2";"[6,7,8,9]";"1";"0";"1"
"1393";"17";"58";"1";"9";"3";"2";"3";"1";"[6,7,8,10]";"1";"0";"1"
"1394";"28";"11";"1";"10";"1";"2";"3";"2";"[6,7,8,9]";"1";"0";"1"
"1395";"25";"60";"1";"6";"4";"2";"3";"1";"[2,7,8,9,10]";"1";"0";"1"
"1396";"21";"13";"1";"7";"1";"2";"3";"1";"[6,8,9,10]";"1";"0";"1"
"1397";"25";"61";"1";"6";"4";"2";"3";"1";"[2,7,8,9,10]";"1";"0";"1"
"1398";"21";"14";"1";"7";"1";"2";"3";"1";"[6,8,9,10]";"1";"0";"1"
"1399";"39";"62";"1";"6";"3";"2";"3";"2";"[2,7,8,9,10]";"2";"0";"1"
"1400";"39";"63";"1";"6";"3";"2";"3";"2";"[2,7,8,9,10]";"2";"0";"1"
"1401";"36";"16";"1";"3";"1";"2";"3";"2";"[1,2,5]";"0";"1";"1"
"1402";"36";"17";"1";"3";"1";"2";"3";"2";"[1,2,5]";"0";"2";"1"
"1403";"36";"18";"1";"3";"1";"2";"3";"2";"[1,2,5]";"0";"3";"1"
"1404";"8";"67";"1";"7";"2";"2";"3";"1";"[6,8,9,10]";"1";"0";"1"
"1405";"14";"68";"1";"8";"3";"2";"3";"1";"[6,7,9,10]";"1";"0";"1"
"1406";"8";"68";"1";"7";"2";"2";"3";"1";"[6,8,9,10]";"1";"0";"1"
"1407";"14";"69";"1";"8";"3";"2";"3";"1";"[6,7,9,10]";"1";"0";"1"
"1408";"36";"23";"1";"3";"1";"2";"3";"2";"[1,2,5]";"2";"3";"1"
"1409";"36";"24";"1";"3";"1";"2";"3";"2";"[1,2,5]";"2";"3";"1"
"1410";"11";"72";"1";"4";"3";"2";"3";"1";"[1,2,5]";"2";"1";"1"
"1411";"10";"74";"1";"8";"4";"2";"3";"2";"[6,7,9,10]";"1";"0";"1"
"1412";"10";"75";"1";"8";"4";"2";"3";"2";"[6,7,9,10]";"1";"0";"1"
"1413";"11";"75";"1";"4";"3";"2";"4";"1";"[1,2,5]";"0";"3";"1"
"1414";"40";"77";"1";"9";"2";"2";"4";"1";"[6,7,8,10]";"1";"0";"1"
"1415";"7";"2";"1";"1";"1";"2";"4";"2";"[2,3,4,5]";"2";"0";"1"
"1416";"4";"77";"1";"4";"4";"2";"4";"2";"[1,2,5]";"2";"0";"1"
"1417";"29";"77";"1";"2";"4";"2";"4";"2";"[1,3,4,5,6]";"2";"0";"1"
"1418";"18";"77";"1";"10";"2";"2";"4";"1";"[6,7,8,9]";"1";"0";"1"
"1419";"27";"77";"1";"10";"4";"2";"4";"1";"[6,7,8,9]";"1";"0";"1"
"1420";"19";"77";"1";"8";"2";"2";"4";"1";"[6,7,9,10]";"1";"0";"1"
"1421";"1";"77";"1";"7";"3";"2";"4";"1";"[6,8,9,10]";"1";"0";"1"
"1422";"34";"77";"1";"3";"3";"2";"4";"1";"[1,2,5]";"1";"0";"1"
"1423";"26";"77";"1";"4";"2";"2";"4";"1";"[1,2,5]";"2";"0";"1"
"1424";"40";"78";"1";"9";"2";"2";"4";"1";"[6,7,8,10]";"1";"0";"1"
"1425";"7";"3";"1";"1";"1";"2";"4";"2";"[2,3,4,5]";"2";"0";"1"
"1426";"12";"3";"1";"9";"1";"2";"4";"2";"[6,7,8,10]";"2";"0";"1"
"1427";"4";"78";"1";"4";"4";"2";"4";"2";"[1,2,5]";"2";"0";"1"
"1428";"37";"3";"1";"4";"1";"2";"4";"2";"[1,2,5]";"2";"0";"1"
"1429";"29";"78";"1";"2";"4";"2";"4";"2";"[1,3,4,5,6]";"2";"0";"1"
"1430";"23";"78";"1";"5";"4";"2";"4";"1";"[1,2,3,4]";"2";"0";"1"
"1431";"18";"78";"1";"10";"2";"2";"4";"1";"[6,7,8,9]";"1";"0";"1"
"1432";"27";"78";"1";"10";"4";"2";"4";"1";"[6,7,8,9]";"1";"0";"1"
"1433";"19";"78";"1";"8";"2";"2";"4";"1";"[6,7,9,10]";"1";"0";"1"
"1434";"1";"78";"1";"7";"3";"2";"4";"1";"[6,8,9,10]";"1";"0";"1"
"1435";"33";"3";"1";"2";"1";"2";"4";"2";"[1,3,4,5,6]";"2";"0";"1"
"1436";"34";"78";"1";"3";"3";"2";"4";"1";"[1,2,5]";"1";"0";"1"
"1437";"32";"78";"1";"3";"2";"2";"4";"2";"[1,2,5]";"2";"0";"1"
"1438";"26";"78";"1";"4";"2";"2";"4";"1";"[1,2,5]";"2";"0";"1"
"1439";"30";"78";"1";"10";"3";"2";"4";"1";"[6,7,8,9]";"1";"0";"1"
"1440";"31";"79";"1";"3";"4";"2";"4";"2";"[1,2,5]";"2";"0";"1"
"1441";"3";"79";"1";"5";"3";"2";"4";"1";"[1,2,3,4]";"1";"0";"1"
"1442";"12";"4";"1";"9";"1";"2";"4";"2";"[6,7,8,10]";"2";"0";"1"
"1443";"37";"4";"1";"4";"1";"2";"4";"2";"[1,2,5]";"2";"0";"1"
"1444";"23";"79";"1";"5";"4";"2";"4";"1";"[1,2,3,4]";"2";"0";"1"
"1445";"35";"79";"1";"1";"3";"2";"4";"1";"[2,3,4,5]";"1";"0";"1"
"1446";"33";"4";"1";"2";"1";"2";"4";"2";"[1,3,4,5,6]";"2";"0";"1"
"1447";"32";"79";"1";"3";"2";"2";"4";"2";"[1,2,5]";"2";"0";"1"
"1448";"16";"4";"1";"8";"1";"2";"4";"2";"[6,7,9,10]";"2";"0";"1"
"1449";"30";"79";"1";"10";"3";"2";"4";"1";"[6,7,8,9]";"1";"0";"1"
"1450";"3";"80";"1";"5";"3";"2";"4";"1";"[1,2,3,4]";"1";"0";"1"
"1451";"31";"80";"1";"3";"4";"2";"4";"2";"[1,2,5]";"2";"0";"1"
"1452";"28";"5";"1";"10";"1";"2";"4";"2";"[6,7,8,9]";"2";"0";"1"
"1453";"35";"80";"1";"1";"3";"2";"4";"1";"[2,3,4,5]";"1";"0";"1"
"1454";"15";"80";"1";"5";"2";"2";"4";"1";"[1,2,3,4]";"2";"0";"1"
"1455";"2";"80";"1";"2";"2";"2";"4";"1";"[1,3,4,5,6]";"1";"0";"1"
"1456";"16";"5";"1";"8";"1";"2";"4";"2";"[6,7,9,10]";"2";"0";"1"
"1457";"24";"81";"1";"1";"4";"2";"4";"2";"[2,3,4,5]";"2";"0";"1"
"1458";"28";"6";"1";"10";"1";"2";"4";"2";"[6,7,8,9]";"2";"0";"1"
"1459";"15";"81";"1";"5";"2";"2";"4";"1";"[1,2,3,4]";"2";"0";"1"
"1460";"14";"81";"1";"8";"3";"2";"4";"1";"[6,7,9,10]";"1";"0";"1"
"1461";"6";"81";"1";"6";"2";"2";"4";"1";"[2,7,8,9,10]";"1";"0";"1"
"1462";"2";"81";"1";"2";"2";"2";"4";"1";"[1,3,4,5,6]";"1";"0";"1"
"1463";"24";"82";"1";"1";"4";"2";"4";"2";"[2,3,4,5]";"2";"0";"1"
"1464";"39";"82";"1";"6";"3";"2";"4";"2";"[2,7,8,9,10]";"2";"0";"1"
"1465";"14";"82";"1";"8";"3";"2";"4";"1";"[6,7,9,10]";"1";"0";"1"
"1466";"6";"82";"1";"6";"2";"2";"4";"1";"[2,7,8,9,10]";"1";"0";"1"
"1467";"22";"8";"1";"5";"1";"2";"4";"2";"[1,2,3,4]";"2";"0";"1"
"1468";"39";"83";"1";"6";"3";"2";"4";"2";"[2,7,8,9,10]";"2";"0";"1"
"1469";"17";"83";"1";"9";"3";"2";"4";"1";"[6,7,8,10]";"1";"0";"1"
"1470";"25";"83";"1";"6";"4";"2";"4";"1";"[2,7,8,9,10]";"1";"0";"1"
"1471";"13";"83";"1";"2";"3";"2";"4";"1";"[1,3,4,5,6]";"1";"0";"1"
"1472";"22";"9";"1";"5";"1";"2";"4";"2";"[1,2,3,4]";"2";"0";"1"
"1473";"8";"84";"1";"7";"2";"2";"4";"1";"[6,8,9,10]";"1";"0";"1"
"1474";"17";"84";"1";"9";"3";"2";"4";"1";"[6,7,8,10]";"1";"0";"1"
"1475";"25";"84";"1";"6";"4";"2";"4";"1";"[2,7,8,9,10]";"1";"0";"1"
"1476";"13";"84";"1";"2";"3";"2";"4";"1";"[1,3,4,5,6]";"1";"0";"1"
"1477";"8";"85";"1";"7";"2";"2";"4";"1";"[6,8,9,10]";"1";"0";"1"
"1478";"11";"85";"1";"4";"3";"2";"4";"1";"[1,2,5]";"2";"3";"1"
"1479";"21";"10";"1";"7";"1";"2";"4";"1";"[6,8,9,10]";"1";"0";"1"
"1480";"11";"86";"1";"4";"3";"2";"4";"1";"[1,2,5]";"2";"3";"1"
"1481";"21";"11";"1";"7";"1";"2";"4";"1";"[6,8,9,10]";"1";"0";"1"
"1482";"10";"87";"1";"8";"4";"2";"4";"2";"[6,7,9,10]";"1";"0";"1"
"1483";"20";"88";"1";"7";"4";"2";"4";"2";"[6,8,9,10]";"2";"0";"1"
"1484";"10";"88";"1";"8";"4";"2";"4";"2";"[6,7,9,10]";"1";"0";"1"
"1485";"38";"13";"1";"6";"1";"2";"4";"2";"[2,7,8,9,10]";"2";"0";"1"
"1486";"20";"89";"1";"7";"4";"2";"4";"2";"[6,8,9,10]";"2";"0";"1"
"1487";"38";"14";"1";"6";"1";"2";"4";"2";"[2,7,8,9,10]";"2";"0";"1"
"1488";"9";"91";"1";"9";"4";"2";"4";"1";"[6,7,8,10]";"1";"0";"1"
"1489";"9";"92";"1";"9";"4";"2";"4";"1";"[6,7,8,10]";"1";"0";"1"
"1490";"5";"93";"1";"1";"2";"2";"4";"1";"[2,3,4,5]";"1";"0";"1"
"1491";"5";"94";"1";"1";"2";"2";"4";"1";"[2,3,4,5]";"1";"0";"1"
"1492";"36";"25";"1";"3";"1";"2";"4";"2";"[1,2,5]";"2";"0";"1"
"1493";"36";"26";"1";"3";"1";"2";"4";"2";"[1,2,5]";"2";"0";"1"
"1494";"40";"102";"1";"9";"2";"2";"5";"1";"[6,7,8,10]";"1";"0";"1"
"1495";"4";"102";"1";"4";"4";"2";"5";"2";"[1,2,5]";"2";"0";"1"
"1496";"24";"103";"1";"1";"4";"2";"5";"2";"[2,3,4,5]";"2";"0";"1"
"1497";"18";"103";"1";"10";"2";"2";"5";"1";"[6,7,8,9]";"1";"0";"1"
"1498";"23";"103";"1";"5";"4";"2";"5";"1";"[1,2,3,4]";"2";"0";"1"
"1499";"40";"103";"1";"9";"2";"2";"5";"1";"[6,7,8,10]";"1";"0";"1"
"1500";"11";"103";"1";"4";"3";"2";"5";"1";"[1,2,5]";"1";"0";"1"
"1501";"16";"2";"1";"8";"1";"2";"5";"2";"[6,7,9,10]";"2";"0";"1"
"1502";"4";"103";"1";"4";"4";"2";"5";"2";"[1,2,5]";"2";"0";"1"
"1503";"19";"103";"1";"8";"2";"2";"5";"1";"[6,7,9,10]";"1";"0";"1"
"1504";"29";"103";"1";"2";"4";"2";"5";"2";"[1,3,4,5,6]";"2";"0";"1"
"1505";"3";"104";"1";"5";"3";"2";"5";"1";"[1,2,3,4]";"1";"0";"1"
"1506";"26";"104";"1";"4";"2";"2";"5";"1";"[1,2,5]";"2";"0";"1"
"1507";"1";"104";"1";"7";"3";"2";"5";"1";"[6,8,9,10]";"1";"0";"1"
"1508";"15";"104";"1";"5";"2";"2";"5";"1";"[1,2,3,4]";"1";"0";"1"
"1509";"34";"104";"1";"3";"3";"2";"5";"1";"[1,2,5]";"1";"0";"1"
"1510";"31";"104";"1";"3";"4";"2";"5";"2";"[1,2,5]";"2";"0";"1"
"1511";"32";"104";"1";"3";"2";"2";"5";"2";"[1,2,5]";"2";"0";"1"
"1512";"9";"104";"1";"9";"4";"2";"5";"1";"[6,7,8,10]";"1";"0";"1"
"1513";"24";"104";"1";"1";"4";"2";"5";"2";"[2,3,4,5]";"2";"0";"1"
"1514";"33";"3";"1";"2";"1";"2";"5";"2";"[1,3,4,5,6]";"2";"0";"1"
