"id";"id_subj";"time";"session";"id_grp";"grp";"round";"period";"sig";"links";"choice";"hist";"active"
"1";"31";"0";"1";"10";"3";"1";"1";"1";"[6,7,8,9]";"0";"0";"1"
"2";"13";"0";"1";"8";"3";"1";"1";"2";"[6,7,9,10]";"0";"0";"1"
"3";"22";"0";"1";"5";"2";"1";"1";"0";"[1,2,3,4]";"0";"0";"1"
"4";"37";"0";"1";"2";"1";"1";"1";"1";"[1,3,4,5,6]";"0";"0";"1"
"5";"19";"0";"1";"6";"3";"1";"1";"0";"[2,7,8,9,10]";"0";"0";"1"
"6";"10";"0";"1";"3";"3";"1";"1";"2";"[1,2,5]";"0";"0";"1"
"7";"7";"0";"1";"7";"4";"1";"1";"0";"[6,8,9,10]";"0";"0";"1"
"8";"18";"0";"1";"6";"4";"1";"1";"1";"[2,7,8,9,10]";"0";"0";"1"
"9";"9";"0";"1";"8";"1";"1";"1";"0";"[6,7,9,10]";"0";"0";"1"
"10";"40";"0";"1";"2";"4";"1";"1";"2";"[1,3,4,5,6]";"0";"0";"1"
"11";"38";"0";"1";"9";"2";"1";"1";"2";"[6,7,8,10]";"0";"0";"1"
"12";"30";"0";"1";"1";"1";"1";"1";"0";"[2,3,4,5]";"0";"0";"1"
"13";"12";"0";"1";"5";"3";"1";"1";"0";"[1,2,3,4]";"0";"0";"1"
"14";"36";"0";"1";"7";"2";"1";"1";"2";"[6,8,9,10]";"0";"0";"1"
"15";"35";"0";"1";"10";"4";"1";"1";"2";"[6,7,8,9]";"0";"0";"1"
"16";"11";"0";"1";"3";"1";"1";"1";"1";"[1,2,5]";"0";"0";"1"
"17";"6";"0";"1";"3";"2";"1";"1";"2";"[1,2,5]";"0";"0";"1"
"18";"8";"0";"1";"10";"2";"1";"1";"2";"[6,7,8,9]";"0";"0";"1"
"19";"3";"0";"1";"8";"2";"1";"1";"2";"[6,7,9,10]";"0";"0";"1"
"20";"32";"0";"1";"2";"2";"1";"1";"1";"[1,3,4,5,6]";"0";"0";"1"
"21";"28";"0";"1";"7";"1";"1";"1";"0";"[6,8,9,10]";"0";"0";"1"
"22";"26";"0";"1";"1";"2";"1";"1";"1";"[2,3,4,5]";"0";"0";"1"
"23";"33";"0";"1";"4";"2";"1";"1";"2";"[1,2,5]";"0";"0";"1"
"24";"34";"0";"1";"2";"3";"1";"1";"1";"[1,3,4,5,6]";"0";"0";"1"
"25";"39";"0";"1";"4";"1";"1";"1";"2";"[1,2,5]";"0";"0";"1"
"26";"15";"0";"1";"7";"3";"1";"1";"1";"[6,8,9,10]";"0";"0";"1"
"27";"16";"0";"1";"3";"4";"1";"1";"0";"[1,2,5]";"0";"0";"1"
"28";"25";"0";"1";"5";"1";"1";"1";"1";"[1,2,3,4]";"0";"0";"1"
"29";"17";"0";"1";"9";"1";"1";"1";"1";"[6,7,8,10]";"0";"0";"1"
"30";"14";"0";"1";"6";"1";"1";"1";"0";"[2,7,8,9,10]";"0";"0";"1"
"31";"4";"0";"1";"6";"2";"1";"1";"2";"[2,7,8,9,10]";"0";"0";"1"
"32";"21";"0";"1";"10";"1";"1";"1";"1";"[6,7,8,9]";"0";"0";"1"
"33";"20";"0";"1";"9";"4";"1";"1";"2";"[6,7,8,10]";"0";"0";"1"
"34";"24";"0";"1";"1";"4";"1";"1";"0";"[2,3,4,5]";"0";"0";"1"
"35";"29";"0";"1";"9";"3";"1";"1";"0";"[6,7,8,10]";"0";"0";"1"
"36";"27";"0";"1";"4";"3";"1";"1";"0";"[1,2,5]";"0";"0";"1"
"37";"5";"0";"1";"1";"3";"1";"1";"0";"[2,3,4,5]";"0";"0";"1"
"38";"23";"0";"1";"5";"4";"1";"1";"2";"[1,2,3,4]";"0";"0";"1"
"39";"1";"0";"1";"4";"4";"1";"1";"1";"[1,2,5]";"0";"0";"1"
"40";"2";"0";"1";"8";"4";"1";"1";"2";"[6,7,9,10]";"0";"0";"1"
"41";"25";"5";"1";"5";"1";"1";"1";"1";"[1,2,3,4]";"1";"0";"1"
"42";"40";"6";"1";"2";"4";"1";"1";"2";"[1,3,4,5,6]";"2";"0";"1"
"43";"26";"6";"1";"1";"2";"1";"1";"1";"[2,3,4,5]";"1";"0";"1"
"44";"25";"6";"1";"5";"1";"1";"1";"1";"[1,2,3,4]";"1";"0";"1"
"45";"36";"6";"1";"7";"2";"1";"1";"2";"[6,8,9,10]";"2";"0";"1"
"46";"15";"7";"1";"7";"3";"1";"1";"1";"[6,8,9,10]";"1";"0";"1"
"47";"40";"7";"1";"2";"4";"1";"1";"2";"[1,3,4,5,6]";"2";"0";"1"
"48";"13";"7";"1";"8";"3";"1";"1";"2";"[6,7,9,10]";"2";"0";"1"
"49";"26";"7";"1";"1";"2";"1";"1";"1";"[2,3,4,5]";"1";"0";"1"
"50";"11";"7";"1";"3";"1";"1";"1";"1";"[1,2,5]";"1";"0";"1"
"51";"18";"7";"1";"6";"4";"1";"1";"1";"[2,7,8,9,10]";"1";"0";"1"
"52";"34";"7";"1";"2";"3";"1";"1";"1";"[1,3,4,5,6]";"1";"0";"1"
"53";"23";"7";"1";"5";"4";"1";"1";"2";"[1,2,3,4]";"2";"0";"1"
"54";"36";"7";"1";"7";"2";"1";"1";"2";"[6,8,9,10]";"2";"0";"1"
"55";"15";"8";"1";"7";"3";"1";"1";"1";"[6,8,9,10]";"1";"0";"1"
"56";"8";"8";"1";"10";"2";"1";"1";"2";"[6,7,8,9]";"2";"0";"1"
"57";"39";"8";"1";"4";"1";"1";"1";"2";"[1,2,5]";"2";"0";"1"
"58";"13";"8";"1";"8";"3";"1";"1";"2";"[6,7,9,10]";"2";"0";"1"
"59";"33";"8";"1";"4";"2";"1";"1";"2";"[1,2,5]";"2";"0";"1"
"60";"11";"8";"1";"3";"1";"1";"1";"1";"[1,2,5]";"1";"0";"1"
"61";"18";"8";"1";"6";"4";"1";"1";"1";"[2,7,8,9,10]";"1";"0";"1"
"62";"34";"8";"1";"2";"3";"1";"1";"1";"[1,3,4,5,6]";"1";"0";"1"
"63";"23";"8";"1";"5";"4";"1";"1";"2";"[1,2,3,4]";"2";"0";"1"
"64";"8";"9";"1";"10";"2";"1";"1";"2";"[6,7,8,9]";"2";"0";"1"
"65";"39";"9";"1";"4";"1";"1";"1";"2";"[1,2,5]";"2";"0";"1"
"66";"19";"9";"1";"6";"3";"1";"1";"0";"[2,7,8,9,10]";"1";"0";"1"
"67";"33";"9";"1";"4";"2";"1";"1";"2";"[1,2,5]";"2";"0";"1"
"68";"35";"9";"1";"10";"4";"1";"1";"2";"[6,7,8,9]";"2";"0";"1"
"69";"38";"9";"1";"9";"2";"1";"1";"2";"[6,7,8,10]";"2";"0";"1"
"70";"19";"10";"1";"6";"3";"1";"1";"0";"[2,7,8,9,10]";"1";"0";"1"
"71";"24";"10";"1";"1";"4";"1";"1";"0";"[2,3,4,5]";"2";"0";"1"
"72";"31";"10";"1";"10";"3";"1";"1";"1";"[6,7,8,9]";"1";"0";"1"
"73";"35";"10";"1";"10";"4";"1";"1";"2";"[6,7,8,9]";"2";"0";"1"
"74";"38";"10";"1";"9";"2";"1";"1";"2";"[6,7,8,10]";"2";"0";"1"
"75";"3";"11";"1";"8";"2";"1";"1";"2";"[6,7,9,10]";"2";"0";"1"
"76";"6";"11";"1";"3";"2";"1";"1";"2";"[1,2,5]";"2";"0";"1"
"77";"24";"11";"1";"1";"4";"1";"1";"0";"[2,3,4,5]";"2";"0";"1"
"78";"31";"11";"1";"10";"3";"1";"1";"1";"[6,7,8,9]";"1";"0";"1"
"79";"17";"11";"1";"9";"1";"1";"1";"1";"[6,7,8,10]";"1";"0";"1"
"80";"37";"11";"1";"2";"1";"1";"1";"1";"[1,3,4,5,6]";"1";"0";"1"
"81";"1";"12";"1";"4";"4";"1";"1";"1";"[1,2,5]";"1";"0";"1"
"82";"4";"12";"1";"6";"2";"1";"1";"2";"[2,7,8,9,10]";"2";"0";"1"
"83";"9";"12";"1";"8";"1";"1";"1";"0";"[6,7,9,10]";"1";"0";"1"
"84";"3";"12";"1";"8";"2";"1";"1";"2";"[6,7,9,10]";"2";"0";"1"
"85";"2";"12";"1";"8";"4";"1";"1";"2";"[6,7,9,10]";"2";"0";"1"
"86";"6";"12";"1";"3";"2";"1";"1";"2";"[1,2,5]";"2";"0";"1"
"87";"21";"12";"1";"10";"1";"1";"1";"1";"[6,7,8,9]";"1";"0";"1"
"88";"17";"12";"1";"9";"1";"1";"1";"1";"[6,7,8,10]";"1";"0";"1"
"89";"32";"12";"1";"2";"2";"1";"1";"1";"[1,3,4,5,6]";"2";"0";"1"
"90";"16";"12";"1";"3";"4";"1";"1";"0";"[1,2,5]";"2";"0";"1"
"91";"7";"12";"1";"7";"4";"1";"1";"0";"[6,8,9,10]";"1";"0";"1"
"92";"37";"12";"1";"2";"1";"1";"1";"1";"[1,3,4,5,6]";"1";"0";"1"
"93";"1";"13";"1";"4";"4";"1";"1";"1";"[1,2,5]";"1";"0";"1"
"94";"4";"13";"1";"6";"2";"1";"1";"2";"[2,7,8,9,10]";"2";"0";"1"
"95";"20";"13";"1";"9";"4";"1";"1";"2";"[6,7,8,10]";"2";"0";"1"
"96";"9";"13";"1";"8";"1";"1";"1";"0";"[6,7,9,10]";"1";"0";"1"
"97";"2";"13";"1";"8";"4";"1";"1";"2";"[6,7,9,10]";"2";"0";"1"
"98";"21";"13";"1";"10";"1";"1";"1";"1";"[6,7,8,9]";"1";"0";"1"
"99";"32";"13";"1";"2";"2";"1";"1";"1";"[1,3,4,5,6]";"2";"0";"1"
"100";"16";"13";"1";"3";"4";"1";"1";"0";"[1,2,5]";"2";"0";"1"
"101";"7";"13";"1";"7";"4";"1";"1";"0";"[6,8,9,10]";"1";"0";"1"
"102";"20";"14";"1";"9";"4";"1";"1";"2";"[6,7,8,10]";"2";"0";"1"
"103";"14";"14";"1";"6";"1";"1";"1";"0";"[2,7,8,9,10]";"1";"0";"1"
"104";"29";"15";"1";"9";"3";"1";"1";"0";"[6,7,8,10]";"1";"0";"1"
"105";"14";"15";"1";"6";"1";"1";"1";"0";"[2,7,8,9,10]";"1";"0";"1"
"106";"27";"15";"1";"4";"3";"1";"1";"0";"[1,2,5]";"2";"0";"1"
"107";"12";"16";"1";"5";"3";"1";"1";"0";"[1,2,3,4]";"1";"0";"1"
"108";"29";"16";"1";"9";"3";"1";"1";"0";"[6,7,8,10]";"1";"0";"1"
"109";"27";"16";"1";"4";"3";"1";"1";"0";"[1,2,5]";"2";"0";"1"
"110";"12";"17";"1";"5";"3";"1";"1";"0";"[1,2,3,4]";"1";"0";"1"
"111";"28";"17";"1";"7";"1";"1";"1";"0";"[6,8,9,10]";"1";"0";"1"
"112";"28";"18";"1";"7";"1";"1";"1";"0";"[6,8,9,10]";"1";"0";"1"
"113";"10";"18";"1";"3";"3";"1";"1";"2";"[1,2,5]";"1";"0";"1"
"114";"10";"19";"1";"3";"3";"1";"1";"2";"[1,2,5]";"1";"0";"1"
"115";"5";"20";"1";"1";"3";"1";"1";"0";"[2,3,4,5]";"2";"0";"1"
"116";"5";"21";"1";"1";"3";"1";"1";"0";"[2,3,4,5]";"2";"0";"1"
"117";"22";"28";"1";"5";"2";"1";"1";"0";"[1,2,3,4]";"2";"0";"1"
"118";"22";"29";"1";"5";"2";"1";"1";"0";"[1,2,3,4]";"2";"0";"1"
"119";"30";"30";"1";"1";"1";"1";"1";"0";"[2,3,4,5]";"1";"0";"1"
"120";"30";"31";"1";"1";"1";"1";"1";"0";"[2,3,4,5]";"1";"0";"1"
"121";"40";"33";"1";"2";"4";"1";"2";"2";"[1,3,4,5,6]";"2";"0";"1"
"122";"36";"34";"1";"7";"2";"1";"2";"2";"[6,8,9,10]";"2";"0";"1"
"123";"40";"34";"1";"2";"4";"1";"2";"2";"[1,3,4,5,6]";"2";"0";"1"
"124";"30";"4";"1";"1";"1";"1";"2";"0";"[2,3,4,5]";"1";"0";"1"
"125";"23";"35";"1";"5";"4";"1";"2";"2";"[1,2,3,4]";"2";"0";"1"
"126";"13";"35";"1";"8";"3";"1";"2";"2";"[6,7,9,10]";"1";"0";"1"
"127";"28";"4";"1";"7";"1";"1";"2";"0";"[6,8,9,10]";"1";"0";"1"
"128";"14";"4";"1";"6";"1";"1";"2";"0";"[2,7,8,9,10]";"1";"0";"1"
"129";"36";"35";"1";"7";"2";"1";"2";"2";"[6,8,9,10]";"2";"0";"1"
"130";"31";"35";"1";"10";"3";"1";"2";"1";"[6,7,8,9]";"1";"0";"1"
"131";"11";"4";"1";"3";"1";"1";"2";"1";"[1,2,5]";"1";"0";"1"
"132";"18";"36";"1";"6";"4";"1";"2";"1";"[2,7,8,9,10]";"2";"0";"1"
"133";"30";"5";"1";"1";"1";"1";"2";"0";"[2,3,4,5]";"1";"0";"1"
"134";"38";"36";"1";"9";"2";"1";"2";"2";"[6,7,8,10]";"2";"0";"1"
"135";"23";"36";"1";"5";"4";"1";"2";"2";"[1,2,3,4]";"2";"0";"1"
"136";"13";"36";"1";"8";"3";"1";"2";"2";"[6,7,9,10]";"1";"0";"1"
"137";"28";"5";"1";"7";"1";"1";"2";"0";"[6,8,9,10]";"1";"0";"1"
"138";"14";"5";"1";"6";"1";"1";"2";"0";"[2,7,8,9,10]";"1";"0";"1"
"139";"21";"5";"1";"10";"1";"1";"2";"1";"[6,7,8,9]";"1";"0";"1"
"140";"31";"36";"1";"10";"3";"1";"2";"1";"[6,7,8,9]";"1";"0";"1"
"141";"11";"5";"1";"3";"1";"1";"2";"1";"[1,2,5]";"1";"0";"1"
"142";"18";"37";"1";"6";"4";"1";"2";"1";"[2,7,8,9,10]";"2";"0";"1"
"143";"38";"37";"1";"9";"2";"1";"2";"2";"[6,7,8,10]";"2";"0";"1"
"144";"9";"6";"1";"8";"1";"1";"2";"0";"[6,7,9,10]";"1";"0";"1"
"145";"21";"6";"1";"10";"1";"1";"2";"1";"[6,7,8,9]";"1";"0";"1"
"146";"1";"37";"1";"4";"4";"1";"2";"1";"[1,2,5]";"2";"0";"1"
"147";"6";"37";"1";"3";"2";"1";"2";"2";"[1,2,5]";"2";"0";"1"
"148";"3";"37";"1";"8";"2";"1";"2";"2";"[6,7,9,10]";"2";"0";"1"
"149";"16";"37";"1";"3";"4";"1";"2";"0";"[1,2,5]";"2";"0";"1"
"150";"15";"37";"1";"7";"3";"1";"2";"1";"[6,8,9,10]";"1";"0";"1"
"151";"32";"38";"1";"2";"2";"1";"2";"1";"[1,3,4,5,6]";"2";"0";"1"
"152";"9";"7";"1";"8";"1";"1";"2";"0";"[6,7,9,10]";"1";"0";"1"
"153";"1";"38";"1";"4";"4";"1";"2";"1";"[1,2,5]";"2";"0";"1"
"154";"6";"38";"1";"3";"2";"1";"2";"2";"[1,2,5]";"2";"0";"1"
"155";"17";"7";"1";"9";"1";"1";"2";"1";"[6,7,8,10]";"1";"0";"1"
"156";"3";"38";"1";"8";"2";"1";"2";"2";"[6,7,9,10]";"2";"0";"1"
"157";"16";"38";"1";"3";"4";"1";"2";"0";"[1,2,5]";"2";"0";"1"
"158";"37";"7";"1";"2";"1";"1";"2";"1";"[1,3,4,5,6]";"1";"0";"1"
"159";"15";"38";"1";"7";"3";"1";"2";"1";"[6,8,9,10]";"1";"0";"1"
"160";"32";"39";"1";"2";"2";"1";"2";"1";"[1,3,4,5,6]";"2";"0";"1"
"161";"17";"8";"1";"9";"1";"1";"2";"1";"[6,7,8,10]";"1";"0";"1"
"162";"37";"8";"1";"2";"1";"1";"2";"1";"[1,3,4,5,6]";"1";"0";"1"
"163";"33";"39";"1";"4";"2";"1";"2";"2";"[1,2,5]";"2";"0";"1"
"164";"26";"40";"1";"1";"2";"1";"2";"1";"[2,3,4,5]";"2";"0";"1"
"165";"5";"40";"1";"1";"3";"1";"2";"0";"[2,3,4,5]";"1";"0";"1"
"166";"8";"40";"1";"10";"2";"1";"2";"2";"[6,7,8,9]";"2";"0";"1"
"167";"35";"40";"1";"10";"4";"1";"2";"2";"[6,7,8,9]";"2";"0";"1"
"168";"33";"40";"1";"4";"2";"1";"2";"2";"[1,2,5]";"2";"0";"1"
"169";"7";"41";"1";"7";"4";"1";"2";"0";"[6,8,9,10]";"1";"0";"1"
"170";"26";"41";"1";"1";"2";"1";"2";"1";"[2,3,4,5]";"2";"0";"1"
"171";"29";"41";"1";"9";"3";"1";"2";"0";"[6,7,8,10]";"1";"0";"1"
"172";"5";"41";"1";"1";"3";"1";"2";"0";"[2,3,4,5]";"1";"0";"1"
"173";"8";"41";"1";"10";"2";"1";"2";"2";"[6,7,8,9]";"2";"0";"1"
"174";"25";"10";"1";"5";"1";"1";"2";"1";"[1,2,3,4]";"1";"0";"1"
"175";"35";"41";"1";"10";"4";"1";"2";"2";"[6,7,8,9]";"2";"0";"1"
"176";"7";"42";"1";"7";"4";"1";"2";"0";"[6,8,9,10]";"1";"0";"1"
"177";"29";"42";"1";"9";"3";"1";"2";"0";"[6,7,8,10]";"1";"0";"1"
"178";"10";"42";"1";"3";"3";"1";"2";"2";"[1,2,5]";"1";"0";"1"
"179";"25";"11";"1";"5";"1";"1";"2";"1";"[1,2,3,4]";"1";"0";"1"
"180";"19";"43";"1";"6";"3";"1";"2";"0";"[2,7,8,9,10]";"1";"0";"1"
"181";"22";"43";"1";"5";"2";"1";"2";"0";"[1,2,3,4]";"2";"0";"1"
"182";"10";"43";"1";"3";"3";"1";"2";"2";"[1,2,5]";"1";"0";"1"
"183";"34";"43";"1";"2";"3";"1";"2";"1";"[1,3,4,5,6]";"1";"0";"1"
"184";"39";"13";"1";"4";"1";"1";"2";"2";"[1,2,5]";"2";"0";"1"
"185";"20";"44";"1";"9";"4";"1";"2";"2";"[6,7,8,10]";"2";"0";"1"
"186";"19";"44";"1";"6";"3";"1";"2";"0";"[2,7,8,9,10]";"1";"0";"1"
"187";"22";"44";"1";"5";"2";"1";"2";"0";"[1,2,3,4]";"2";"0";"1"
"188";"34";"44";"1";"2";"3";"1";"2";"1";"[1,3,4,5,6]";"1";"0";"1"
"189";"39";"14";"1";"4";"1";"1";"2";"2";"[1,2,5]";"2";"0";"1"
"190";"20";"45";"1";"9";"4";"1";"2";"2";"[6,7,8,10]";"2";"0";"1"
"191";"27";"45";"1";"4";"3";"1";"2";"0";"[1,2,5]";"1";"0";"1"
"192";"24";"45";"1";"1";"4";"1";"2";"0";"[2,3,4,5]";"2";"0";"1"
"193";"27";"46";"1";"4";"3";"1";"2";"0";"[1,2,5]";"1";"0";"1"
"194";"24";"46";"1";"1";"4";"1";"2";"0";"[2,3,4,5]";"2";"0";"1"
"195";"4";"48";"1";"6";"2";"1";"2";"2";"[2,7,8,9,10]";"2";"0";"1"
"196";"4";"49";"1";"6";"2";"1";"2";"2";"[2,7,8,9,10]";"2";"0";"1"
"197";"12";"49";"1";"5";"3";"1";"2";"0";"[1,2,3,4]";"1";"0";"1"
"198";"12";"50";"1";"5";"3";"1";"2";"0";"[1,2,3,4]";"1";"0";"1"
"199";"2";"53";"1";"8";"4";"1";"2";"2";"[6,7,9,10]";"2";"0";"1"
"200";"2";"54";"1";"8";"4";"1";"2";"2";"[6,7,9,10]";"2";"0";"1"
"201";"30";"2";"1";"1";"1";"1";"3";"0";"[2,3,4,5]";"1";"0";"1"
"202";"25";"2";"1";"5";"1";"1";"3";"1";"[1,2,3,4]";"1";"0";"1"
"203";"23";"56";"1";"5";"4";"1";"3";"2";"[1,2,3,4]";"2";"0";"1"
"204";"3";"57";"1";"8";"2";"1";"3";"2";"[6,7,9,10]";"2";"0";"1"
"205";"11";"3";"1";"3";"1";"1";"3";"1";"[1,2,5]";"1";"0";"1"
"206";"18";"57";"1";"6";"4";"1";"3";"1";"[2,7,8,9,10]";"2";"0";"1"
"207";"15";"57";"1";"7";"3";"1";"3";"1";"[6,8,9,10]";"1";"0";"1"
"208";"40";"57";"1";"2";"4";"1";"3";"2";"[1,3,4,5,6]";"2";"0";"1"
"209";"30";"3";"1";"1";"1";"1";"3";"0";"[2,3,4,5]";"1";"0";"1"
"210";"28";"3";"1";"7";"1";"1";"3";"0";"[6,8,9,10]";"1";"0";"1"
"211";"5";"57";"1";"1";"3";"1";"3";"0";"[2,3,4,5]";"1";"0";"1"
"212";"22";"57";"1";"5";"2";"1";"3";"0";"[1,2,3,4]";"2";"0";"1"
"213";"25";"3";"1";"5";"1";"1";"3";"1";"[1,2,3,4]";"1";"0";"1"
"214";"23";"57";"1";"5";"4";"1";"3";"2";"[1,2,3,4]";"2";"0";"1"
"215";"3";"58";"1";"8";"2";"1";"3";"2";"[6,7,9,10]";"2";"0";"1"
"216";"17";"4";"1";"9";"1";"1";"3";"1";"[6,7,8,10]";"1";"0";"1"
"217";"11";"4";"1";"3";"1";"1";"3";"1";"[1,2,5]";"1";"0";"1"
"218";"18";"58";"1";"6";"4";"1";"3";"1";"[2,7,8,9,10]";"2";"0";"1"
"219";"31";"58";"1";"10";"3";"1";"3";"1";"[6,7,8,9]";"1";"0";"1"
"220";"15";"58";"1";"7";"3";"1";"3";"1";"[6,8,9,10]";"1";"0";"1"
"221";"9";"4";"1";"8";"1";"1";"3";"0";"[6,7,9,10]";"1";"0";"1"
"222";"21";"4";"1";"10";"1";"1";"3";"1";"[6,7,8,9]";"1";"0";"1"
"223";"40";"58";"1";"2";"4";"1";"3";"2";"[1,3,4,5,6]";"2";"0";"1"
"224";"28";"4";"1";"7";"1";"1";"3";"0";"[6,8,9,10]";"1";"0";"1"
"225";"5";"58";"1";"1";"3";"1";"3";"0";"[2,3,4,5]";"1";"0";"1"
"226";"22";"58";"1";"5";"2";"1";"3";"0";"[1,2,3,4]";"2";"0";"1"
"227";"38";"58";"1";"9";"2";"1";"3";"2";"[6,7,8,10]";"2";"0";"1"
"228";"33";"58";"1";"4";"2";"1";"3";"2";"[1,2,5]";"2";"0";"1"
"229";"36";"58";"1";"7";"2";"1";"3";"2";"[6,8,9,10]";"2";"0";"1"
"230";"16";"59";"1";"3";"4";"1";"3";"0";"[1,2,5]";"2";"0";"1"
"231";"8";"59";"1";"10";"2";"1";"3";"2";"[6,7,8,9]";"2";"0";"1"
"232";"34";"59";"1";"2";"3";"1";"3";"1";"[1,3,4,5,6]";"1";"0";"1"
"233";"17";"5";"1";"9";"1";"1";"3";"1";"[6,7,8,10]";"1";"0";"1"
"234";"6";"59";"1";"3";"2";"1";"3";"2";"[1,2,5]";"2";"0";"1"
"235";"31";"59";"1";"10";"3";"1";"3";"1";"[6,7,8,9]";"1";"0";"1"
"236";"9";"5";"1";"8";"1";"1";"3";"0";"[6,7,9,10]";"1";"0";"1"
"237";"35";"59";"1";"10";"4";"1";"3";"2";"[6,7,8,9]";"2";"0";"1"
"238";"21";"5";"1";"10";"1";"1";"3";"1";"[6,7,8,9]";"1";"0";"1"
"239";"38";"59";"1";"9";"2";"1";"3";"2";"[6,7,8,10]";"2";"0";"1"
"240";"33";"59";"1";"4";"2";"1";"3";"2";"[1,2,5]";"2";"0";"1"
"241";"36";"59";"1";"7";"2";"1";"3";"2";"[6,8,9,10]";"2";"0";"1"
"242";"16";"60";"1";"3";"4";"1";"3";"0";"[1,2,5]";"2";"0";"1"
"243";"8";"60";"1";"10";"2";"1";"3";"2";"[6,7,8,9]";"2";"0";"1"
"244";"34";"60";"1";"2";"3";"1";"3";"1";"[1,3,4,5,6]";"1";"0";"1"
"245";"10";"60";"1";"3";"3";"1";"3";"2";"[1,2,5]";"1";"0";"1"
"246";"6";"60";"1";"3";"2";"1";"3";"2";"[1,2,5]";"2";"0";"1"
"247";"32";"60";"1";"2";"2";"1";"3";"1";"[1,3,4,5,6]";"2";"0";"1"
"248";"35";"60";"1";"10";"4";"1";"3";"2";"[6,7,8,9]";"2";"0";"1"
"249";"19";"60";"1";"6";"3";"1";"3";"0";"[2,7,8,9,10]";"1";"0";"1"
"250";"27";"60";"1";"4";"3";"1";"3";"0";"[1,2,5]";"1";"0";"1"
"251";"20";"60";"1";"9";"4";"1";"3";"2";"[6,7,8,10]";"2";"0";"1"
"252";"10";"61";"1";"3";"3";"1";"3";"2";"[1,2,5]";"1";"0";"1"
"253";"32";"61";"1";"2";"2";"1";"3";"1";"[1,3,4,5,6]";"2";"0";"1"
"254";"19";"61";"1";"6";"3";"1";"3";"0";"[2,7,8,9,10]";"1";"0";"1"
"255";"27";"61";"1";"4";"3";"1";"3";"0";"[1,2,5]";"1";"0";"1"
"256";"37";"7";"1";"2";"1";"1";"3";"1";"[1,3,4,5,6]";"1";"0";"1"
"257";"20";"61";"1";"9";"4";"1";"3";"2";"[6,7,8,10]";"2";"0";"1"
"258";"37";"8";"1";"2";"1";"1";"3";"1";"[1,3,4,5,6]";"1";"0";"1"
"259";"13";"62";"1";"8";"3";"1";"3";"2";"[6,7,9,10]";"1";"0";"1"
"260";"39";"9";"1";"4";"1";"1";"3";"2";"[1,2,5]";"2";"0";"1"
"261";"14";"9";"1";"6";"1";"1";"3";"0";"[2,7,8,9,10]";"2";"0";"1"
"262";"13";"63";"1";"8";"3";"1";"3";"2";"[6,7,9,10]";"1";"0";"1"
"263";"1";"64";"1";"4";"4";"1";"3";"1";"[1,2,5]";"2";"0";"1"
"264";"39";"10";"1";"4";"1";"1";"3";"2";"[1,2,5]";"2";"0";"1"
"265";"14";"10";"1";"6";"1";"1";"3";"0";"[2,7,8,9,10]";"2";"0";"1"
"266";"24";"64";"1";"1";"4";"1";"3";"0";"[2,3,4,5]";"2";"0";"1"
"267";"4";"64";"1";"6";"2";"1";"3";"2";"[2,7,8,9,10]";"2";"0";"1"
"268";"1";"65";"1";"4";"4";"1";"3";"1";"[1,2,5]";"2";"0";"1"
"269";"24";"65";"1";"1";"4";"1";"3";"0";"[2,3,4,5]";"2";"0";"1"
"270";"4";"65";"1";"6";"2";"1";"3";"2";"[2,7,8,9,10]";"2";"0";"1"
"271";"26";"67";"1";"1";"2";"1";"3";"1";"[2,3,4,5]";"2";"0";"1"
"272";"26";"68";"1";"1";"2";"1";"3";"1";"[2,3,4,5]";"2";"0";"1"
"273";"5";"69";"1";"1";"3";"1";"3";"0";"[2,3,4,5]";"1";"1";"1"
"274";"7";"69";"1";"7";"4";"1";"3";"0";"[6,8,9,10]";"1";"0";"1"
"275";"7";"70";"1";"7";"4";"1";"3";"0";"[6,8,9,10]";"1";"0";"1"
"276";"2";"71";"1";"8";"4";"1";"3";"2";"[6,7,9,10]";"1";"0";"1"
"277";"5";"72";"1";"1";"3";"1";"3";"0";"[2,3,4,5]";"1";"2";"1"
"278";"2";"72";"1";"8";"4";"1";"3";"2";"[6,7,9,10]";"1";"0";"1"
"279";"29";"72";"1";"9";"3";"1";"3";"0";"[6,7,8,10]";"1";"0";"1"
"280";"12";"73";"1";"5";"3";"1";"3";"0";"[1,2,3,4]";"1";"0";"1"
"281";"5";"73";"1";"1";"3";"1";"3";"0";"[2,3,4,5]";"1";"1";"1"
"282";"29";"73";"1";"9";"3";"1";"3";"0";"[6,7,8,10]";"1";"0";"1"
"283";"12";"74";"1";"5";"3";"1";"3";"0";"[1,2,3,4]";"1";"0";"1"
"284";"30";"1";"1";"1";"1";"1";"4";"0";"[2,3,4,5]";"1";"0";"1"
"285";"23";"76";"1";"5";"4";"1";"4";"2";"[1,2,3,4]";"2";"0";"1"
"286";"3";"76";"1";"8";"2";"1";"4";"2";"[6,7,9,10]";"2";"0";"1"
"287";"15";"76";"1";"7";"3";"1";"4";"1";"[6,8,9,10]";"1";"0";"1"
"288";"40";"76";"1";"2";"4";"1";"4";"2";"[1,3,4,5,6]";"2";"0";"1"
"289";"30";"2";"1";"1";"1";"1";"4";"0";"[2,3,4,5]";"1";"0";"1"
"290";"21";"2";"1";"10";"1";"1";"4";"1";"[6,7,8,9]";"1";"0";"1"
"291";"32";"76";"1";"2";"2";"1";"4";"1";"[1,3,4,5,6]";"2";"0";"1"
"292";"11";"2";"1";"3";"1";"1";"4";"1";"[1,2,5]";"1";"0";"1"
"293";"34";"76";"1";"2";"3";"1";"4";"1";"[1,3,4,5,6]";"1";"0";"1"
"294";"18";"76";"1";"6";"4";"1";"4";"1";"[2,7,8,9,10]";"2";"0";"1"
"295";"16";"77";"1";"3";"4";"1";"4";"0";"[1,2,5]";"2";"0";"1"
"296";"31";"77";"1";"10";"3";"1";"4";"1";"[6,7,8,9]";"1";"0";"1"
"297";"23";"77";"1";"5";"4";"1";"4";"2";"[1,2,3,4]";"2";"0";"1"
"298";"25";"3";"1";"5";"1";"1";"4";"1";"[1,2,3,4]";"1";"0";"1"
"299";"27";"77";"1";"4";"3";"1";"4";"0";"[1,2,5]";"1";"0";"1"
"300";"3";"77";"1";"8";"2";"1";"4";"2";"[6,7,9,10]";"2";"0";"1"
"301";"15";"77";"1";"7";"3";"1";"4";"1";"[6,8,9,10]";"1";"0";"1"
"302";"40";"77";"1";"2";"4";"1";"4";"2";"[1,3,4,5,6]";"2";"0";"1"
"303";"21";"3";"1";"10";"1";"1";"4";"1";"[6,7,8,9]";"1";"0";"1"
"304";"32";"77";"1";"2";"2";"1";"4";"1";"[1,3,4,5,6]";"2";"0";"1"
"305";"11";"3";"1";"3";"1";"1";"4";"1";"[1,2,5]";"1";"0";"1"
"306";"34";"77";"1";"2";"3";"1";"4";"1";"[1,3,4,5,6]";"1";"0";"1"
"307";"36";"77";"1";"7";"2";"1";"4";"2";"[6,8,9,10]";"2";"0";"1"
"308";"18";"77";"1";"6";"4";"1";"4";"1";"[2,7,8,9,10]";"2";"0";"1"
"309";"35";"77";"1";"10";"4";"1";"4";"2";"[6,7,8,9]";"2";"0";"1"
"310";"16";"78";"1";"3";"4";"1";"4";"0";"[1,2,5]";"2";"0";"1"
"311";"31";"78";"1";"10";"3";"1";"4";"1";"[6,7,8,9]";"1";"0";"1"
"312";"25";"4";"1";"5";"1";"1";"4";"1";"[1,2,3,4]";"1";"0";"1"
"313";"38";"78";"1";"9";"2";"1";"4";"2";"[6,7,8,10]";"2";"0";"1"
"314";"27";"78";"1";"4";"3";"1";"4";"0";"[1,2,5]";"1";"0";"1"
"315";"13";"78";"1";"8";"3";"1";"4";"2";"[6,7,9,10]";"1";"0";"1"
"316";"9";"4";"1";"8";"1";"1";"4";"0";"[6,7,9,10]";"1";"0";"1"
"317";"4";"78";"1";"6";"2";"1";"4";"2";"[2,7,8,9,10]";"2";"0";"1"
"318";"12";"78";"1";"5";"3";"1";"4";"0";"[1,2,3,4]";"1";"0";"1"
"319";"36";"78";"1";"7";"2";"1";"4";"2";"[6,8,9,10]";"2";"0";"1"
"320";"35";"78";"1";"10";"4";"1";"4";"2";"[6,7,8,9]";"2";"0";"1"
"321";"6";"79";"1";"3";"2";"1";"4";"2";"[1,2,5]";"2";"0";"1"
"322";"8";"79";"1";"10";"2";"1";"4";"2";"[6,7,8,9]";"2";"0";"1"
"323";"5";"79";"1";"1";"3";"1";"4";"0";"[2,3,4,5]";"1";"0";"1"
"324";"38";"79";"1";"9";"2";"1";"4";"2";"[6,7,8,10]";"2";"0";"1"
"325";"17";"5";"1";"9";"1";"1";"4";"1";"[6,7,8,10]";"1";"0";"1"
"326";"13";"79";"1";"8";"3";"1";"4";"2";"[6,7,9,10]";"1";"0";"1"
"327";"9";"5";"1";"8";"1";"1";"4";"0";"[6,7,9,10]";"1";"0";"1"
"328";"4";"79";"1";"6";"2";"1";"4";"2";"[2,7,8,9,10]";"2";"0";"1"
"329";"12";"79";"1";"5";"3";"1";"4";"0";"[1,2,3,4]";"1";"0";"1"
"330";"10";"79";"1";"3";"3";"1";"4";"2";"[1,2,5]";"1";"0";"1"
"331";"24";"79";"1";"1";"4";"1";"4";"0";"[2,3,4,5]";"2";"0";"1"
"332";"6";"80";"1";"3";"2";"1";"4";"2";"[1,2,5]";"2";"0";"1"
"333";"8";"80";"1";"10";"2";"1";"4";"2";"[6,7,8,9]";"2";"0";"1"
"334";"5";"80";"1";"1";"3";"1";"4";"0";"[2,3,4,5]";"1";"0";"1"
"335";"28";"6";"1";"7";"1";"1";"4";"0";"[6,8,9,10]";"1";"0";"1"
"336";"19";"80";"1";"6";"3";"1";"4";"0";"[2,7,8,9,10]";"1";"0";"1"
"337";"17";"6";"1";"9";"1";"1";"4";"1";"[6,7,8,10]";"1";"0";"1"
"338";"22";"80";"1";"5";"2";"1";"4";"0";"[1,2,3,4]";"2";"0";"1"
"339";"10";"80";"1";"3";"3";"1";"4";"2";"[1,2,5]";"1";"0";"1"
"340";"24";"80";"1";"1";"4";"1";"4";"0";"[2,3,4,5]";"2";"0";"1"
"341";"28";"7";"1";"7";"1";"1";"4";"0";"[6,8,9,10]";"1";"0";"1"
"342";"19";"81";"1";"6";"3";"1";"4";"0";"[2,7,8,9,10]";"1";"0";"1"
"343";"22";"81";"1";"5";"2";"1";"4";"0";"[1,2,3,4]";"2";"0";"1"
"344";"39";"8";"1";"4";"1";"1";"4";"2";"[1,2,5]";"2";"0";"1"
"345";"26";"82";"1";"1";"2";"1";"4";"1";"[2,3,4,5]";"2";"0";"1"
"346";"33";"82";"1";"4";"2";"1";"4";"2";"[1,2,5]";"2";"0";"1"
"347";"14";"8";"1";"6";"1";"1";"4";"0";"[2,7,8,9,10]";"2";"0";"1"
"348";"39";"9";"1";"4";"1";"1";"4";"2";"[1,2,5]";"2";"0";"1"
"349";"26";"83";"1";"1";"2";"1";"4";"1";"[2,3,4,5]";"2";"0";"1"
"350";"33";"83";"1";"4";"2";"1";"4";"2";"[1,2,5]";"2";"0";"1"
"351";"14";"9";"1";"6";"1";"1";"4";"0";"[2,7,8,9,10]";"2";"0";"1"
"352";"37";"12";"1";"2";"1";"1";"4";"1";"[1,3,4,5,6]";"2";"0";"1"
"353";"37";"13";"1";"2";"1";"1";"4";"1";"[1,3,4,5,6]";"2";"0";"1"
"354";"1";"87";"1";"4";"4";"1";"4";"1";"[1,2,5]";"2";"0";"1"
"355";"7";"87";"1";"7";"4";"1";"4";"0";"[6,8,9,10]";"2";"0";"1"
"356";"29";"87";"1";"9";"3";"1";"4";"0";"[6,7,8,10]";"1";"0";"1"
"357";"20";"88";"1";"9";"4";"1";"4";"2";"[6,7,8,10]";"2";"0";"1"
"358";"1";"88";"1";"4";"4";"1";"4";"1";"[1,2,5]";"2";"0";"1"
"359";"7";"88";"1";"7";"4";"1";"4";"0";"[6,8,9,10]";"2";"0";"1"
"360";"29";"88";"1";"9";"3";"1";"4";"0";"[6,7,8,10]";"1";"0";"1"
"361";"20";"89";"1";"9";"4";"1";"4";"2";"[6,7,8,10]";"2";"0";"1"
"362";"2";"92";"1";"8";"4";"1";"4";"2";"[6,7,9,10]";"2";"0";"1"
"363";"2";"93";"1";"8";"4";"1";"4";"2";"[6,7,9,10]";"2";"0";"1"
"364";"21";"1";"1";"10";"1";"1";"5";"1";"[6,7,8,9]";"1";"0";"1"
"365";"40";"94";"1";"2";"4";"1";"5";"2";"[1,3,4,5,6]";"2";"0";"1"
"366";"27";"94";"1";"4";"3";"1";"5";"0";"[1,2,5]";"1";"0";"1"
"367";"32";"95";"1";"2";"2";"1";"5";"1";"[1,3,4,5,6]";"2";"0";"1"
"368";"15";"95";"1";"7";"3";"1";"5";"1";"[6,8,9,10]";"1";"0";"1"
"369";"3";"95";"1";"8";"2";"1";"5";"2";"[6,7,9,10]";"2";"0";"1"
"370";"30";"2";"1";"1";"1";"1";"5";"0";"[2,3,4,5]";"1";"0";"1"
"371";"22";"95";"1";"5";"2";"1";"5";"0";"[1,2,3,4]";"2";"0";"1"
"372";"36";"95";"1";"7";"2";"1";"5";"2";"[6,8,9,10]";"2";"0";"1"
"373";"13";"95";"1";"8";"3";"1";"5";"2";"[6,7,9,10]";"1";"0";"1"
"374";"21";"2";"1";"10";"1";"1";"5";"1";"[6,7,8,9]";"1";"0";"1"
"375";"40";"95";"1";"2";"4";"1";"5";"2";"[1,3,4,5,6]";"2";"0";"1"
"376";"27";"95";"1";"4";"3";"1";"5";"0";"[1,2,5]";"1";"0";"1"
"377";"19";"96";"1";"6";"3";"1";"5";"0";"[2,7,8,9,10]";"1";"0";"1"
"378";"32";"96";"1";"2";"2";"1";"5";"1";"[1,3,4,5,6]";"2";"0";"1"
"379";"38";"96";"1";"9";"2";"1";"5";"2";"[6,7,8,10]";"2";"0";"1"
"380";"15";"96";"1";"7";"3";"1";"5";"1";"[6,8,9,10]";"1";"0";"1"
"381";"3";"96";"1";"8";"2";"1";"5";"2";"[6,7,9,10]";"2";"0";"1"
"382";"30";"3";"1";"1";"1";"1";"5";"0";"[2,3,4,5]";"1";"0";"1"
"383";"22";"96";"1";"5";"2";"1";"5";"0";"[1,2,3,4]";"2";"0";"1"
"384";"14";"3";"1";"6";"1";"1";"5";"0";"[2,7,8,9,10]";"1";"0";"1"
"385";"36";"96";"1";"7";"2";"1";"5";"2";"[6,8,9,10]";"2";"0";"1"
"386";"4";"96";"1";"6";"2";"1";"5";"2";"[2,7,8,9,10]";"2";"0";"1"
"387";"13";"96";"1";"8";"3";"1";"5";"2";"[6,7,9,10]";"1";"0";"1"
"388";"26";"96";"1";"1";"2";"1";"5";"1";"[2,3,4,5]";"2";"0";"1"
"389";"19";"97";"1";"6";"3";"1";"5";"0";"[2,7,8,9,10]";"1";"0";"1"
"390";"8";"97";"1";"10";"2";"1";"5";"2";"[6,7,8,9]";"2";"0";"1"
"391";"38";"97";"1";"9";"2";"1";"5";"2";"[6,7,8,10]";"2";"0";"1"
"392";"34";"97";"1";"2";"3";"1";"5";"1";"[1,3,4,5,6]";"1";"0";"1"
"393";"14";"4";"1";"6";"1";"1";"5";"0";"[2,7,8,9,10]";"1";"0";"1"
"394";"4";"97";"1";"6";"2";"1";"5";"2";"[2,7,8,9,10]";"2";"0";"1"
"395";"11";"4";"1";"3";"1";"1";"5";"1";"[1,2,5]";"1";"0";"1"
"396";"23";"97";"1";"5";"4";"1";"5";"2";"[1,2,3,4]";"2";"0";"1"
"397";"18";"97";"1";"6";"4";"1";"5";"1";"[2,7,8,9,10]";"2";"0";"1"
"398";"26";"97";"1";"1";"2";"1";"5";"1";"[2,3,4,5]";"2";"0";"1"
"399";"6";"98";"1";"3";"2";"1";"5";"2";"[1,2,5]";"2";"0";"1"
"400";"35";"98";"1";"10";"4";"1";"5";"2";"[6,7,8,9]";"2";"0";"1"
"401";"33";"98";"1";"4";"2";"1";"5";"2";"[1,2,5]";"2";"0";"1"
"402";"9";"5";"1";"8";"1";"1";"5";"0";"[6,7,9,10]";"1";"0";"1"
"403";"5";"98";"1";"1";"3";"1";"5";"0";"[2,3,4,5]";"1";"0";"1"
"404";"8";"98";"1";"10";"2";"1";"5";"2";"[6,7,8,9]";"2";"0";"1"
"405";"34";"98";"1";"2";"3";"1";"5";"1";"[1,3,4,5,6]";"1";"0";"1"
"406";"37";"5";"1";"2";"1";"1";"5";"1";"[1,3,4,5,6]";"1";"0";"1"
"407";"25";"5";"1";"5";"1";"1";"5";"1";"[1,2,3,4]";"1";"0";"1"
"408";"11";"5";"1";"3";"1";"1";"5";"1";"[1,2,5]";"1";"0";"1"
"409";"23";"98";"1";"5";"4";"1";"5";"2";"[1,2,3,4]";"2";"0";"1"
"410";"18";"98";"1";"6";"4";"1";"5";"1";"[2,7,8,9,10]";"2";"0";"1"
"411";"6";"99";"1";"3";"2";"1";"5";"2";"[1,2,5]";"2";"0";"1"
"412";"35";"99";"1";"10";"4";"1";"5";"2";"[6,7,8,9]";"2";"0";"1"
"413";"33";"99";"1";"4";"2";"1";"5";"2";"[1,2,5]";"2";"0";"1"
"414";"9";"6";"1";"8";"1";"1";"5";"0";"[6,7,9,10]";"1";"0";"1"
"415";"5";"99";"1";"1";"3";"1";"5";"0";"[2,3,4,5]";"1";"0";"1"
"416";"37";"6";"1";"2";"1";"1";"5";"1";"[1,3,4,5,6]";"1";"0";"1"
"417";"20";"99";"1";"9";"4";"1";"5";"2";"[6,7,8,10]";"2";"0";"1"
"418";"25";"6";"1";"5";"1";"1";"5";"1";"[1,2,3,4]";"1";"0";"1"
"419";"16";"99";"1";"3";"4";"1";"5";"0";"[1,2,5]";"2";"0";"1"
"420";"17";"7";"1";"9";"1";"1";"5";"1";"[6,7,8,10]";"1";"0";"1"
"421";"20";"100";"1";"9";"4";"1";"5";"2";"[6,7,8,10]";"2";"0";"1"
"422";"28";"7";"1";"7";"1";"1";"5";"0";"[6,8,9,10]";"1";"0";"1"
"423";"16";"100";"1";"3";"4";"1";"5";"0";"[1,2,5]";"2";"0";"1"
"424";"10";"100";"1";"3";"3";"1";"5";"2";"[1,2,5]";"1";"0";"1"
"425";"17";"8";"1";"9";"1";"1";"5";"1";"[6,7,8,10]";"1";"0";"1"
"426";"28";"8";"1";"7";"1";"1";"5";"0";"[6,8,9,10]";"1";"0";"1"
"427";"7";"101";"1";"7";"4";"1";"5";"0";"[6,8,9,10]";"2";"0";"1"
"428";"10";"101";"1";"3";"3";"1";"5";"2";"[1,2,5]";"1";"0";"1"
"429";"7";"102";"1";"7";"4";"1";"5";"0";"[6,8,9,10]";"2";"0";"1"
"430";"12";"104";"1";"5";"3";"1";"5";"0";"[1,2,3,4]";"1";"0";"1"
"431";"31";"104";"1";"10";"3";"1";"5";"1";"[6,7,8,9]";"2";"0";"1"
"432";"24";"104";"1";"1";"4";"1";"5";"0";"[2,3,4,5]";"1";"0";"1"
"433";"12";"105";"1";"5";"3";"1";"5";"0";"[1,2,3,4]";"1";"0";"1"
"434";"31";"105";"1";"10";"3";"1";"5";"1";"[6,7,8,9]";"2";"0";"1"
"435";"24";"105";"1";"1";"4";"1";"5";"0";"[2,3,4,5]";"1";"0";"1"
"436";"29";"108";"1";"9";"3";"1";"5";"0";"[6,7,8,10]";"1";"0";"1"
"437";"29";"109";"1";"9";"3";"1";"5";"0";"[6,7,8,10]";"1";"0";"1"
"438";"39";"18";"1";"4";"1";"1";"5";"2";"[1,2,5]";"2";"0";"1"
"439";"39";"19";"1";"4";"1";"1";"5";"2";"[1,2,5]";"2";"0";"1"
"440";"2";"112";"1";"8";"4";"1";"5";"2";"[6,7,9,10]";"2";"0";"1"
"441";"2";"114";"1";"8";"4";"1";"5";"2";"[6,7,9,10]";"2";"0";"1"
"442";"1";"115";"1";"4";"4";"1";"5";"1";"[1,2,5]";"2";"0";"1"
"443";"29";"115";"1";"9";"3";"1";"5";"0";"[6,7,8,10]";"1";"1";"1"
"444";"1";"116";"1";"4";"4";"1";"5";"1";"[1,2,5]";"2";"0";"1"
"445";"21";"1";"1";"10";"1";"1";"6";"1";"[6,7,8,9]";"1";"0";"1"
"446";"25";"1";"1";"5";"1";"1";"6";"1";"[1,2,3,4]";"1";"0";"1"
"447";"3";"117";"1";"8";"2";"1";"6";"2";"[6,7,9,10]";"2";"0";"1"
"448";"27";"117";"1";"4";"3";"1";"6";"0";"[1,2,5]";"1";"0";"1"
"449";"22";"117";"1";"5";"2";"1";"6";"0";"[1,2,3,4]";"2";"0";"1"
"450";"32";"117";"1";"2";"2";"1";"6";"1";"[1,3,4,5,6]";"2";"0";"1"
"451";"4";"117";"1";"6";"2";"1";"6";"2";"[2,7,8,9,10]";"2";"0";"1"
"452";"28";"2";"1";"7";"1";"1";"6";"0";"[6,8,9,10]";"1";"0";"1"
"453";"20";"118";"1";"9";"4";"1";"6";"2";"[6,7,8,10]";"2";"0";"1"
"454";"6";"118";"1";"3";"2";"1";"6";"2";"[1,2,5]";"2";"0";"1"
"455";"21";"2";"1";"10";"1";"1";"6";"1";"[6,7,8,9]";"1";"0";"1"
"456";"25";"2";"1";"5";"1";"1";"6";"1";"[1,2,3,4]";"1";"0";"1"
"457";"3";"118";"1";"8";"2";"1";"6";"2";"[6,7,9,10]";"2";"0";"1"
"458";"5";"118";"1";"1";"3";"1";"6";"0";"[2,3,4,5]";"1";"0";"1"
"459";"27";"118";"1";"4";"3";"1";"6";"0";"[1,2,5]";"1";"0";"1"
"460";"22";"118";"1";"5";"2";"1";"6";"0";"[1,2,3,4]";"2";"0";"1"
"461";"32";"118";"1";"2";"2";"1";"6";"1";"[1,3,4,5,6]";"2";"0";"1"
"462";"4";"118";"1";"6";"2";"1";"6";"2";"[2,7,8,9,10]";"2";"0";"1"
"463";"17";"2";"1";"9";"1";"1";"6";"1";"[6,7,8,10]";"1";"0";"1"
"464";"28";"3";"1";"7";"1";"1";"6";"0";"[6,8,9,10]";"1";"0";"1"
"465";"20";"119";"1";"9";"4";"1";"6";"2";"[6,7,8,10]";"2";"0";"1"
"466";"16";"119";"1";"3";"4";"1";"6";"0";"[1,2,5]";"2";"0";"1"
"467";"23";"119";"1";"5";"4";"1";"6";"2";"[1,2,3,4]";"2";"0";"1"
"468";"6";"119";"1";"3";"2";"1";"6";"2";"[1,2,5]";"2";"0";"1"
"469";"11";"3";"1";"3";"1";"1";"6";"1";"[1,2,5]";"1";"0";"1"
"470";"5";"119";"1";"1";"3";"1";"6";"0";"[2,3,4,5]";"1";"0";"1"
"471";"35";"119";"1";"10";"4";"1";"6";"2";"[6,7,8,9]";"2";"0";"1"
"472";"36";"119";"1";"7";"2";"1";"6";"2";"[6,8,9,10]";"2";"0";"1"
"473";"9";"3";"1";"8";"1";"1";"6";"0";"[6,7,9,10]";"1";"0";"1"
"474";"12";"119";"1";"5";"3";"1";"6";"0";"[1,2,3,4]";"1";"0";"1"
"475";"18";"119";"1";"6";"4";"1";"6";"1";"[2,7,8,9,10]";"2";"0";"1"
"476";"17";"3";"1";"9";"1";"1";"6";"1";"[6,7,8,10]";"1";"0";"1"
"477";"16";"120";"1";"3";"4";"1";"6";"0";"[1,2,5]";"2";"0";"1"
"478";"10";"120";"1";"3";"3";"1";"6";"2";"[1,2,5]";"1";"0";"1"
"479";"38";"120";"1";"9";"2";"1";"6";"2";"[6,7,8,10]";"2";"0";"1"
"480";"23";"120";"1";"5";"4";"1";"6";"2";"[1,2,3,4]";"2";"0";"1"
"481";"31";"120";"1";"10";"3";"1";"6";"1";"[6,7,8,9]";"1";"0";"1"
"482";"11";"4";"1";"3";"1";"1";"6";"1";"[1,2,5]";"1";"0";"1"
"483";"35";"120";"1";"10";"4";"1";"6";"2";"[6,7,8,9]";"2";"0";"1"
"484";"36";"120";"1";"7";"2";"1";"6";"2";"[6,8,9,10]";"2";"0";"1"
"485";"30";"4";"1";"1";"1";"1";"6";"0";"[2,3,4,5]";"1";"0";"1"
"486";"26";"120";"1";"1";"2";"1";"6";"1";"[2,3,4,5]";"2";"0";"1"
"487";"9";"4";"1";"8";"1";"1";"6";"0";"[6,7,9,10]";"1";"0";"1"
"488";"8";"120";"1";"10";"2";"1";"6";"2";"[6,7,8,9]";"2";"0";"1"
"489";"12";"120";"1";"5";"3";"1";"6";"0";"[1,2,3,4]";"1";"0";"1"
"490";"18";"120";"1";"6";"4";"1";"6";"1";"[2,7,8,9,10]";"2";"0";"1"
"491";"13";"120";"1";"8";"3";"1";"6";"2";"[6,7,9,10]";"2";"0";"1"
"492";"40";"120";"1";"2";"4";"1";"6";"2";"[1,3,4,5,6]";"2";"0";"1"
"493";"34";"121";"1";"2";"3";"1";"6";"1";"[1,3,4,5,6]";"1";"0";"1"
"494";"10";"121";"1";"3";"3";"1";"6";"2";"[1,2,5]";"1";"0";"1"
"495";"38";"121";"1";"9";"2";"1";"6";"2";"[6,7,8,10]";"2";"0";"1"
"496";"31";"121";"1";"10";"3";"1";"6";"1";"[6,7,8,9]";"1";"0";"1"
"497";"33";"121";"1";"4";"2";"1";"6";"2";"[1,2,5]";"2";"0";"1"
"498";"14";"5";"1";"6";"1";"1";"6";"0";"[2,7,8,9,10]";"1";"0";"1"
"499";"19";"121";"1";"6";"3";"1";"6";"0";"[2,7,8,9,10]";"1";"0";"1"
"500";"30";"5";"1";"1";"1";"1";"6";"0";"[2,3,4,5]";"1";"0";"1"
"501";"26";"121";"1";"1";"2";"1";"6";"1";"[2,3,4,5]";"2";"0";"1"
"502";"8";"121";"1";"10";"2";"1";"6";"2";"[6,7,8,9]";"2";"0";"1"
"503";"15";"121";"1";"7";"3";"1";"6";"1";"[6,8,9,10]";"1";"0";"1"
"504";"13";"121";"1";"8";"3";"1";"6";"2";"[6,7,9,10]";"2";"0";"1"
"505";"39";"5";"1";"4";"1";"1";"6";"2";"[1,2,5]";"1";"0";"1"
"506";"40";"121";"1";"2";"4";"1";"6";"2";"[1,3,4,5,6]";"2";"0";"1"
"507";"34";"122";"1";"2";"3";"1";"6";"1";"[1,3,4,5,6]";"1";"0";"1"
"508";"33";"122";"1";"4";"2";"1";"6";"2";"[1,2,5]";"2";"0";"1"
"509";"14";"6";"1";"6";"1";"1";"6";"0";"[2,7,8,9,10]";"1";"0";"1"
"510";"19";"122";"1";"6";"3";"1";"6";"0";"[2,7,8,9,10]";"1";"0";"1"
"511";"15";"122";"1";"7";"3";"1";"6";"1";"[6,8,9,10]";"1";"0";"1"
"512";"39";"6";"1";"4";"1";"1";"6";"2";"[1,2,5]";"1";"0";"1"
"513";"24";"124";"1";"1";"4";"1";"6";"0";"[2,3,4,5]";"1";"0";"1"
"514";"24";"125";"1";"1";"4";"1";"6";"0";"[2,3,4,5]";"1";"0";"1"
"515";"37";"9";"1";"2";"1";"1";"6";"1";"[1,3,4,5,6]";"1";"0";"1"
"516";"37";"10";"1";"2";"1";"1";"6";"1";"[1,3,4,5,6]";"1";"0";"1"
"517";"2";"127";"1";"8";"4";"1";"6";"2";"[6,7,9,10]";"1";"0";"1"
"518";"16";"127";"1";"3";"4";"1";"6";"0";"[1,2,5]";"2";"3";"1"
"519";"7";"128";"1";"7";"4";"1";"6";"0";"[6,8,9,10]";"2";"0";"1"
"520";"2";"128";"1";"8";"4";"1";"6";"2";"[6,7,9,10]";"1";"0";"1"
"521";"7";"129";"1";"7";"4";"1";"6";"0";"[6,8,9,10]";"2";"0";"1"
"522";"16";"129";"1";"3";"4";"1";"6";"0";"[1,2,5]";"2";"5";"1"
"523";"29";"129";"1";"9";"3";"1";"6";"0";"[6,7,8,10]";"2";"0";"1"
"524";"29";"130";"1";"9";"3";"1";"6";"0";"[6,7,8,10]";"2";"0";"1"
"525";"16";"131";"1";"3";"4";"1";"6";"0";"[1,2,5]";"2";"6";"1"
"526";"16";"136";"1";"3";"4";"1";"6";"0";"[1,2,5]";"2";"1";"1"
"527";"16";"138";"1";"3";"4";"1";"6";"0";"[1,2,5]";"2";"2";"1"
"528";"16";"139";"1";"3";"4";"1";"6";"0";"[1,2,5]";"2";"3";"1"
"529";"16";"139";"1";"3";"4";"1";"6";"0";"[1,2,5]";"2";"4";"1"
"530";"16";"140";"1";"3";"4";"1";"6";"0";"[1,2,5]";"2";"5";"1"
"531";"16";"140";"1";"3";"4";"1";"6";"0";"[1,2,5]";"2";"6";"1"
"532";"1";"143";"1";"4";"4";"1";"6";"1";"[1,2,5]";"2";"0";"1"
"533";"1";"144";"1";"4";"4";"1";"6";"1";"[1,2,5]";"2";"0";"1"
"534";"21";"1";"1";"10";"1";"1";"7";"1";"[6,7,8,9]";"1";"0";"1"
"535";"11";"1";"1";"3";"1";"1";"7";"1";"[1,2,5]";"1";"0";"1"
"536";"27";"145";"1";"4";"3";"1";"7";"0";"[1,2,5]";"1";"0";"1"
"537";"4";"146";"1";"6";"2";"1";"7";"2";"[2,7,8,9,10]";"2";"0";"1"
"538";"21";"2";"1";"10";"1";"1";"7";"1";"[6,7,8,9]";"1";"0";"1"
"539";"25";"2";"1";"5";"1";"1";"7";"1";"[1,2,3,4]";"1";"0";"1"
"540";"3";"146";"1";"8";"2";"1";"7";"2";"[6,7,9,10]";"2";"0";"1"
"541";"6";"146";"1";"3";"2";"1";"7";"2";"[1,2,5]";"2";"0";"1"
"542";"33";"146";"1";"4";"2";"1";"7";"2";"[1,2,5]";"2";"0";"1"
"543";"32";"146";"1";"2";"2";"1";"7";"1";"[1,3,4,5,6]";"2";"0";"1"
"544";"11";"2";"1";"3";"1";"1";"7";"1";"[1,2,5]";"1";"0";"1"
"545";"27";"146";"1";"4";"3";"1";"7";"0";"[1,2,5]";"1";"0";"1"
"546";"23";"146";"1";"5";"4";"1";"7";"2";"[1,2,3,4]";"2";"0";"1"
"547";"12";"146";"1";"5";"3";"1";"7";"0";"[1,2,3,4]";"1";"0";"1"
"548";"5";"146";"1";"1";"3";"1";"7";"0";"[2,3,4,5]";"1";"0";"1"
"549";"15";"146";"1";"7";"3";"1";"7";"1";"[6,8,9,10]";"1";"0";"1"
"550";"9";"2";"1";"8";"1";"1";"7";"0";"[6,7,9,10]";"1";"0";"1"
"551";"22";"146";"1";"5";"2";"1";"7";"0";"[1,2,3,4]";"2";"0";"1"
"552";"40";"147";"1";"2";"4";"1";"7";"2";"[1,3,4,5,6]";"2";"0";"1"
"553";"13";"147";"1";"8";"3";"1";"7";"2";"[6,7,9,10]";"2";"0";"1"
"554";"4";"147";"1";"6";"2";"1";"7";"2";"[2,7,8,9,10]";"2";"0";"1"
"555";"25";"3";"1";"5";"1";"1";"7";"1";"[1,2,3,4]";"1";"0";"1"
"556";"10";"147";"1";"3";"3";"1";"7";"2";"[1,2,5]";"1";"0";"1"
"557";"3";"147";"1";"8";"2";"1";"7";"2";"[6,7,9,10]";"2";"0";"1"
"558";"6";"147";"1";"3";"2";"1";"7";"2";"[1,2,5]";"2";"0";"1"
"559";"33";"147";"1";"4";"2";"1";"7";"2";"[1,2,5]";"2";"0";"1"
"560";"32";"147";"1";"2";"2";"1";"7";"1";"[1,3,4,5,6]";"2";"0";"1"
"561";"17";"3";"1";"9";"1";"1";"7";"1";"[6,7,8,10]";"1";"0";"1"
"562";"34";"147";"1";"2";"3";"1";"7";"1";"[1,3,4,5,6]";"1";"0";"1"
"563";"23";"147";"1";"5";"4";"1";"7";"2";"[1,2,3,4]";"2";"0";"1"
"564";"12";"147";"1";"5";"3";"1";"7";"0";"[1,2,3,4]";"1";"0";"1"
"565";"28";"3";"1";"7";"1";"1";"7";"0";"[6,8,9,10]";"1";"0";"1"
"566";"5";"147";"1";"1";"3";"1";"7";"0";"[2,3,4,5]";"1";"0";"1"
"567";"15";"147";"1";"7";"3";"1";"7";"1";"[6,8,9,10]";"1";"0";"1"
"568";"9";"3";"1";"8";"1";"1";"7";"0";"[6,7,9,10]";"1";"0";"1"
"569";"22";"147";"1";"5";"2";"1";"7";"0";"[1,2,3,4]";"2";"0";"1"
"570";"40";"148";"1";"2";"4";"1";"7";"2";"[1,3,4,5,6]";"2";"0";"1"
"571";"13";"148";"1";"8";"3";"1";"7";"2";"[6,7,9,10]";"2";"0";"1"
"572";"14";"4";"1";"6";"1";"1";"7";"0";"[2,7,8,9,10]";"2";"0";"1"
"573";"19";"148";"1";"6";"3";"1";"7";"0";"[2,7,8,9,10]";"1";"0";"1"
"574";"35";"148";"1";"10";"4";"1";"7";"2";"[6,7,8,9]";"2";"0";"1"
"575";"10";"148";"1";"3";"3";"1";"7";"2";"[1,2,5]";"1";"0";"1"
"576";"17";"4";"1";"9";"1";"1";"7";"1";"[6,7,8,10]";"1";"0";"1"
"577";"26";"148";"1";"1";"2";"1";"7";"1";"[2,3,4,5]";"2";"0";"1"
"578";"34";"148";"1";"2";"3";"1";"7";"1";"[1,3,4,5,6]";"1";"0";"1"
"579";"36";"148";"1";"7";"2";"1";"7";"2";"[6,8,9,10]";"2";"0";"1"
"580";"28";"4";"1";"7";"1";"1";"7";"0";"[6,8,9,10]";"1";"0";"1"
"581";"8";"148";"1";"10";"2";"1";"7";"2";"[6,7,8,9]";"2";"0";"1"
"582";"14";"5";"1";"6";"1";"1";"7";"0";"[2,7,8,9,10]";"2";"0";"1"
"583";"19";"149";"1";"6";"3";"1";"7";"0";"[2,7,8,9,10]";"1";"0";"1"
"584";"38";"149";"1";"9";"2";"1";"7";"2";"[6,7,8,10]";"2";"0";"1"
"585";"35";"149";"1";"10";"4";"1";"7";"2";"[6,7,8,9]";"2";"0";"1"
"586";"16";"149";"1";"3";"4";"1";"7";"0";"[1,2,5]";"2";"0";"1"
"587";"29";"149";"1";"9";"3";"1";"7";"0";"[6,7,8,10]";"1";"0";"1"
"588";"24";"149";"1";"1";"4";"1";"7";"0";"[2,3,4,5]";"2";"0";"1"
"589";"26";"149";"1";"1";"2";"1";"7";"1";"[2,3,4,5]";"2";"0";"1"
"590";"36";"149";"1";"7";"2";"1";"7";"2";"[6,8,9,10]";"2";"0";"1"
"591";"20";"149";"1";"9";"4";"1";"7";"2";"[6,7,8,10]";"2";"0";"1"
"592";"8";"149";"1";"10";"2";"1";"7";"2";"[6,7,8,9]";"2";"0";"1"
"593";"30";"6";"1";"1";"1";"1";"7";"0";"[2,3,4,5]";"1";"0";"1"
"594";"37";"6";"1";"2";"1";"1";"7";"1";"[1,3,4,5,6]";"1";"0";"1"
"595";"38";"150";"1";"9";"2";"1";"7";"2";"[6,7,8,10]";"2";"0";"1"
"596";"16";"150";"1";"3";"4";"1";"7";"0";"[1,2,5]";"2";"0";"1"
"597";"29";"150";"1";"9";"3";"1";"7";"0";"[6,7,8,10]";"1";"0";"1"
"598";"24";"150";"1";"1";"4";"1";"7";"0";"[2,3,4,5]";"2";"0";"1"
"599";"18";"150";"1";"6";"4";"1";"7";"1";"[2,7,8,9,10]";"2";"0";"1"
"600";"20";"150";"1";"9";"4";"1";"7";"2";"[6,7,8,10]";"2";"0";"1"
"601";"39";"6";"1";"4";"1";"1";"7";"2";"[1,2,5]";"2";"0";"1"
"602";"30";"7";"1";"1";"1";"1";"7";"0";"[2,3,4,5]";"1";"0";"1"
"603";"37";"7";"1";"2";"1";"1";"7";"1";"[1,3,4,5,6]";"1";"0";"1"
"604";"31";"151";"1";"10";"3";"1";"7";"1";"[6,7,8,9]";"1";"0";"1"
"605";"18";"151";"1";"6";"4";"1";"7";"1";"[2,7,8,9,10]";"2";"0";"1"
"606";"39";"7";"1";"4";"1";"1";"7";"2";"[1,2,5]";"2";"0";"1"
"607";"31";"152";"1";"10";"3";"1";"7";"1";"[6,7,8,9]";"1";"0";"1"
"608";"7";"159";"1";"7";"4";"1";"7";"0";"[6,8,9,10]";"2";"0";"1"
"609";"1";"159";"1";"4";"4";"1";"7";"1";"[1,2,5]";"2";"0";"1"
"610";"7";"160";"1";"7";"4";"1";"7";"0";"[6,8,9,10]";"2";"0";"1"
"611";"1";"160";"1";"4";"4";"1";"7";"1";"[1,2,5]";"2";"0";"1"
"612";"2";"161";"1";"8";"4";"1";"7";"2";"[6,7,9,10]";"2";"0";"1"
"613";"2";"162";"1";"8";"4";"1";"7";"2";"[6,7,9,10]";"2";"0";"1"
"614";"21";"1";"1";"10";"1";"1";"8";"1";"[6,7,8,9]";"1";"0";"1"
"615";"27";"163";"1";"4";"3";"1";"8";"0";"[1,2,5]";"1";"0";"1"
"616";"30";"2";"1";"1";"1";"1";"8";"0";"[2,3,4,5]";"1";"0";"1"
"617";"11";"2";"1";"3";"1";"1";"8";"1";"[1,2,5]";"1";"0";"1"
"618";"32";"164";"1";"2";"2";"1";"8";"1";"[1,3,4,5,6]";"2";"0";"1"
"619";"13";"164";"1";"8";"3";"1";"8";"2";"[6,7,9,10]";"2";"0";"1"
"620";"3";"164";"1";"8";"2";"1";"8";"2";"[6,7,9,10]";"2";"0";"1"
"621";"4";"164";"1";"6";"2";"1";"8";"2";"[2,7,8,9,10]";"2";"0";"1"
"622";"22";"164";"1";"5";"2";"1";"8";"0";"[1,2,3,4]";"2";"0";"1"
"623";"6";"164";"1";"3";"2";"1";"8";"2";"[1,2,5]";"2";"0";"1"
"624";"25";"2";"1";"5";"1";"1";"8";"1";"[1,2,3,4]";"1";"0";"1"
"625";"21";"2";"1";"10";"1";"1";"8";"1";"[6,7,8,9]";"1";"0";"1"
"626";"20";"164";"1";"9";"4";"1";"8";"2";"[6,7,8,10]";"2";"0";"1"
"627";"27";"164";"1";"4";"3";"1";"8";"0";"[1,2,5]";"1";"0";"1"
"628";"30";"3";"1";"1";"1";"1";"8";"0";"[2,3,4,5]";"1";"0";"1"
"629";"40";"165";"1";"2";"4";"1";"8";"2";"[1,3,4,5,6]";"2";"0";"1"
"630";"11";"3";"1";"3";"1";"1";"8";"1";"[1,2,5]";"1";"0";"1"
"631";"32";"165";"1";"2";"2";"1";"8";"1";"[1,3,4,5,6]";"2";"0";"1"
"632";"13";"165";"1";"8";"3";"1";"8";"2";"[6,7,9,10]";"2";"0";"1"
"633";"18";"165";"1";"6";"4";"1";"8";"1";"[2,7,8,9,10]";"2";"0";"1"
"634";"3";"165";"1";"8";"2";"1";"8";"2";"[6,7,9,10]";"2";"0";"1"
"635";"28";"3";"1";"7";"1";"1";"8";"0";"[6,8,9,10]";"1";"0";"1"
"636";"35";"165";"1";"10";"4";"1";"8";"2";"[6,7,8,9]";"2";"0";"1"
"637";"19";"165";"1";"6";"3";"1";"8";"0";"[2,7,8,9,10]";"1";"0";"1"
"638";"4";"165";"1";"6";"2";"1";"8";"2";"[2,7,8,9,10]";"2";"0";"1"
"639";"38";"165";"1";"9";"2";"1";"8";"2";"[6,7,8,10]";"2";"0";"1"
"640";"22";"165";"1";"5";"2";"1";"8";"0";"[1,2,3,4]";"2";"0";"1"
"641";"6";"165";"1";"3";"2";"1";"8";"2";"[1,2,5]";"2";"0";"1"
"642";"25";"3";"1";"5";"1";"1";"8";"1";"[1,2,3,4]";"1";"0";"1"
"643";"31";"165";"1";"10";"3";"1";"8";"1";"[6,7,8,9]";"2";"0";"1"
"644";"16";"165";"1";"3";"4";"1";"8";"0";"[1,2,5]";"2";"0";"1"
"645";"33";"165";"1";"4";"2";"1";"8";"2";"[1,2,5]";"2";"0";"1"
"646";"20";"165";"1";"9";"4";"1";"8";"2";"[6,7,8,10]";"2";"0";"1"
"647";"9";"4";"1";"8";"1";"1";"8";"0";"[6,7,9,10]";"1";"0";"1"
"648";"6";"166";"1";"3";"2";"1";"8";"2";"[1,2,5]";"2";"5";"1"
"649";"40";"166";"1";"2";"4";"1";"8";"2";"[1,3,4,5,6]";"2";"0";"1"
"650";"18";"166";"1";"6";"4";"1";"8";"1";"[2,7,8,9,10]";"2";"0";"1"
"651";"5";"166";"1";"1";"3";"1";"8";"0";"[2,3,4,5]";"1";"0";"1"
"652";"28";"4";"1";"7";"1";"1";"8";"0";"[6,8,9,10]";"1";"0";"1"
"653";"35";"166";"1";"10";"4";"1";"8";"2";"[6,7,8,9]";"2";"0";"1"
"654";"23";"166";"1";"5";"4";"1";"8";"2";"[1,2,3,4]";"2";"0";"1"
"655";"19";"166";"1";"6";"3";"1";"8";"0";"[2,7,8,9,10]";"1";"0";"1"
"656";"38";"166";"1";"9";"2";"1";"8";"2";"[6,7,8,10]";"2";"0";"1"
"657";"26";"166";"1";"1";"2";"1";"8";"1";"[2,3,4,5]";"2";"0";"1"
"658";"10";"166";"1";"3";"3";"1";"8";"2";"[1,2,5]";"1";"0";"1"
"659";"31";"166";"1";"10";"3";"1";"8";"1";"[6,7,8,9]";"2";"0";"1"
"660";"16";"166";"1";"3";"4";"1";"8";"0";"[1,2,5]";"2";"0";"1"
"661";"33";"166";"1";"4";"2";"1";"8";"2";"[1,2,5]";"2";"0";"1"
"662";"14";"4";"1";"6";"1";"1";"8";"0";"[2,7,8,9,10]";"2";"0";"1"
"663";"9";"5";"1";"8";"1";"1";"8";"0";"[6,7,9,10]";"1";"0";"1"
"664";"6";"167";"1";"3";"2";"1";"8";"2";"[1,2,5]";"2";"1";"1"
"665";"5";"167";"1";"1";"3";"1";"8";"0";"[2,3,4,5]";"1";"0";"1"
"666";"17";"5";"1";"9";"1";"1";"8";"1";"[6,7,8,10]";"1";"0";"1"
"667";"23";"167";"1";"5";"4";"1";"8";"2";"[1,2,3,4]";"2";"0";"1"
"668";"24";"167";"1";"1";"4";"1";"8";"0";"[2,3,4,5]";"2";"0";"1"
"669";"26";"167";"1";"1";"2";"1";"8";"1";"[2,3,4,5]";"2";"0";"1"
"670";"36";"167";"1";"7";"2";"1";"8";"2";"[6,8,9,10]";"2";"0";"1"
"671";"10";"167";"1";"3";"3";"1";"8";"2";"[1,2,5]";"1";"0";"1"
"672";"14";"5";"1";"6";"1";"1";"8";"0";"[2,7,8,9,10]";"2";"0";"1"
"673";"39";"6";"1";"4";"1";"1";"8";"2";"[1,2,5]";"2";"0";"1"
"674";"8";"168";"1";"10";"2";"1";"8";"2";"[6,7,8,9]";"2";"0";"1"
"675";"6";"168";"1";"3";"2";"1";"8";"2";"[1,2,5]";"2";"4";"1"
"676";"17";"6";"1";"9";"1";"1";"8";"1";"[6,7,8,10]";"1";"0";"1"
"677";"24";"168";"1";"1";"4";"1";"8";"0";"[2,3,4,5]";"2";"0";"1"
"678";"36";"168";"1";"7";"2";"1";"8";"2";"[6,8,9,10]";"2";"0";"1"
"679";"29";"168";"1";"9";"3";"1";"8";"0";"[6,7,8,10]";"1";"0";"1"
"680";"34";"168";"1";"2";"3";"1";"8";"1";"[1,3,4,5,6]";"1";"0";"1"
"681";"39";"7";"1";"4";"1";"1";"8";"2";"[1,2,5]";"2";"0";"1"
"682";"12";"169";"1";"5";"3";"1";"8";"0";"[1,2,3,4]";"1";"0";"1"
"683";"8";"169";"1";"10";"2";"1";"8";"2";"[6,7,8,9]";"2";"0";"1"
"684";"15";"169";"1";"7";"3";"1";"8";"1";"[6,8,9,10]";"1";"0";"1"
"685";"29";"169";"1";"9";"3";"1";"8";"0";"[6,7,8,10]";"1";"0";"1"
"686";"7";"169";"1";"7";"4";"1";"8";"0";"[6,8,9,10]";"0";"6";"1"
"687";"34";"169";"1";"2";"3";"1";"8";"1";"[1,3,4,5,6]";"1";"0";"1"
"688";"6";"170";"1";"3";"2";"1";"8";"2";"[1,2,5]";"2";"6";"1"
"689";"12";"170";"1";"5";"3";"1";"8";"0";"[1,2,3,4]";"1";"0";"1"
"690";"15";"170";"1";"7";"3";"1";"8";"1";"[6,8,9,10]";"1";"0";"1"
"691";"6";"170";"1";"3";"2";"1";"8";"2";"[1,2,5]";"2";"7";"1"
"692";"7";"170";"1";"7";"4";"1";"8";"0";"[6,8,9,10]";"0";"7";"1"
"693";"2";"171";"1";"8";"4";"1";"8";"2";"[6,7,9,10]";"2";"0";"1"
"694";"1";"172";"1";"4";"4";"1";"8";"1";"[1,2,5]";"2";"0";"1"
"695";"2";"172";"1";"8";"4";"1";"8";"2";"[6,7,9,10]";"2";"0";"1"
"696";"6";"172";"1";"3";"2";"1";"8";"2";"[1,2,5]";"2";"8";"1"
"697";"1";"173";"1";"4";"4";"1";"8";"1";"[1,2,5]";"2";"0";"1"
"698";"37";"11";"1";"2";"1";"1";"8";"1";"[1,3,4,5,6]";"2";"0";"1"
"699";"37";"12";"1";"2";"1";"1";"8";"1";"[1,3,4,5,6]";"2";"0";"1"
"700";"7";"176";"1";"7";"4";"1";"8";"0";"[6,8,9,10]";"1";"7";"1"
"701";"7";"177";"1";"7";"4";"1";"8";"0";"[6,8,9,10]";"1";"7";"1"
"702";"27";"177";"1";"4";"3";"1";"9";"0";"[1,2,5]";"1";"0";"1"
"703";"21";"1";"1";"10";"1";"1";"9";"1";"[6,7,8,9]";"1";"0";"1"
"704";"30";"1";"1";"1";"1";"1";"9";"0";"[2,3,4,5]";"1";"0";"1"
"705";"32";"178";"1";"2";"2";"1";"9";"1";"[1,3,4,5,6]";"2";"0";"1"
"706";"3";"178";"1";"8";"2";"1";"9";"2";"[6,7,9,10]";"2";"0";"1"
"707";"6";"178";"1";"3";"2";"1";"9";"2";"[1,2,5]";"2";"0";"1"
"708";"28";"1";"1";"7";"1";"1";"9";"0";"[6,8,9,10]";"1";"0";"1"
"709";"34";"178";"1";"2";"3";"1";"9";"1";"[1,3,4,5,6]";"1";"0";"1"
"710";"38";"178";"1";"9";"2";"1";"9";"2";"[6,7,8,10]";"2";"0";"1"
"711";"13";"178";"1";"8";"3";"1";"9";"2";"[6,7,9,10]";"2";"0";"1"
"712";"27";"178";"1";"4";"3";"1";"9";"0";"[1,2,5]";"1";"0";"1"
"713";"40";"179";"1";"2";"4";"1";"9";"2";"[1,3,4,5,6]";"2";"0";"1"
"714";"25";"2";"1";"5";"1";"1";"9";"1";"[1,2,3,4]";"1";"0";"1"
"715";"11";"2";"1";"3";"1";"1";"9";"1";"[1,2,5]";"1";"0";"1"
"716";"35";"179";"1";"10";"4";"1";"9";"2";"[6,7,8,9]";"2";"0";"1"
"717";"21";"2";"1";"10";"1";"1";"9";"1";"[6,7,8,9]";"1";"0";"1"
"718";"36";"179";"1";"7";"2";"1";"9";"2";"[6,8,9,10]";"2";"0";"1"
"719";"16";"179";"1";"3";"4";"1";"9";"0";"[1,2,5]";"2";"0";"1"
"720";"22";"179";"1";"5";"2";"1";"9";"0";"[1,2,3,4]";"2";"0";"1"
"721";"26";"179";"1";"1";"2";"1";"9";"1";"[2,3,4,5]";"2";"0";"1"
"722";"30";"2";"1";"1";"1";"1";"9";"0";"[2,3,4,5]";"1";"0";"1"
"723";"32";"179";"1";"2";"2";"1";"9";"1";"[1,3,4,5,6]";"2";"0";"1"
"724";"3";"179";"1";"8";"2";"1";"9";"2";"[6,7,9,10]";"2";"0";"1"
"725";"33";"179";"1";"4";"2";"1";"9";"2";"[1,2,5]";"2";"0";"1"
"726";"9";"2";"1";"8";"1";"1";"9";"0";"[6,7,9,10]";"1";"0";"1"
"727";"6";"179";"1";"3";"2";"1";"9";"2";"[1,2,5]";"2";"0";"1"
"728";"28";"2";"1";"7";"1";"1";"9";"0";"[6,8,9,10]";"1";"0";"1"
"729";"34";"179";"1";"2";"3";"1";"9";"1";"[1,3,4,5,6]";"1";"0";"1"
"730";"38";"179";"1";"9";"2";"1";"9";"2";"[6,7,8,10]";"2";"0";"1"
"731";"13";"179";"1";"8";"3";"1";"9";"2";"[6,7,9,10]";"2";"0";"1"
"732";"40";"180";"1";"2";"4";"1";"9";"2";"[1,3,4,5,6]";"2";"0";"1"
"733";"25";"3";"1";"5";"1";"1";"9";"1";"[1,2,3,4]";"1";"0";"1"
"734";"11";"3";"1";"3";"1";"1";"9";"1";"[1,2,5]";"1";"0";"1"
"735";"35";"180";"1";"10";"4";"1";"9";"2";"[6,7,8,9]";"2";"0";"1"
"736";"18";"180";"1";"6";"4";"1";"9";"1";"[2,7,8,9,10]";"2";"0";"1"
"737";"36";"180";"1";"7";"2";"1";"9";"2";"[6,8,9,10]";"2";"0";"1"
"738";"16";"180";"1";"3";"4";"1";"9";"0";"[1,2,5]";"2";"0";"1"
"739";"22";"180";"1";"5";"2";"1";"9";"0";"[1,2,3,4]";"2";"0";"1"
"740";"4";"180";"1";"6";"2";"1";"9";"2";"[2,7,8,9,10]";"2";"0";"1"
"741";"39";"3";"1";"4";"1";"1";"9";"2";"[1,2,5]";"2";"0";"1"
"742";"26";"180";"1";"1";"2";"1";"9";"1";"[2,3,4,5]";"2";"0";"1"
"743";"23";"180";"1";"5";"4";"1";"9";"2";"[1,2,3,4]";"2";"0";"1"
"744";"31";"180";"1";"10";"3";"1";"9";"1";"[6,7,8,9]";"1";"0";"1"
"745";"33";"180";"1";"4";"2";"1";"9";"2";"[1,2,5]";"2";"0";"1"
"746";"15";"180";"1";"7";"3";"1";"9";"1";"[6,8,9,10]";"1";"0";"1"
"747";"9";"3";"1";"8";"1";"1";"9";"0";"[6,7,9,10]";"1";"0";"1"
"748";"20";"180";"1";"9";"4";"1";"9";"2";"[6,7,8,10]";"2";"0";"1"
"749";"24";"180";"1";"1";"4";"1";"9";"0";"[2,3,4,5]";"2";"0";"1"
"750";"8";"180";"1";"10";"2";"1";"9";"2";"[6,7,8,9]";"2";"0";"1"
"751";"18";"181";"1";"6";"4";"1";"9";"1";"[2,7,8,9,10]";"2";"0";"1"
"752";"6";"181";"1";"3";"2";"1";"9";"2";"[1,2,5]";"2";"9";"1"
"753";"14";"4";"1";"6";"1";"1";"9";"0";"[2,7,8,9,10]";"2";"0";"1"
"754";"4";"181";"1";"6";"2";"1";"9";"2";"[2,7,8,9,10]";"2";"0";"1"
"755";"5";"181";"1";"1";"3";"1";"9";"0";"[2,3,4,5]";"1";"0";"1"
"756";"39";"4";"1";"4";"1";"1";"9";"2";"[1,2,5]";"2";"0";"1"
"757";"37";"4";"1";"2";"1";"1";"9";"1";"[1,3,4,5,6]";"1";"0";"1"
"758";"23";"181";"1";"5";"4";"1";"9";"2";"[1,2,3,4]";"2";"0";"1"
"759";"31";"181";"1";"10";"3";"1";"9";"1";"[6,7,8,9]";"1";"0";"1"
"760";"15";"181";"1";"7";"3";"1";"9";"1";"[6,8,9,10]";"1";"0";"1"
"761";"20";"181";"1";"9";"4";"1";"9";"2";"[6,7,8,10]";"2";"0";"1"
"762";"19";"181";"1";"6";"3";"1";"9";"0";"[2,7,8,9,10]";"1";"0";"1"
"763";"24";"181";"1";"1";"4";"1";"9";"0";"[2,3,4,5]";"2";"0";"1"
"764";"8";"181";"1";"10";"2";"1";"9";"2";"[6,7,8,9]";"2";"0";"1"
"765";"17";"4";"1";"9";"1";"1";"9";"1";"[6,7,8,10]";"2";"0";"1"
"766";"14";"5";"1";"6";"1";"1";"9";"0";"[2,7,8,9,10]";"2";"0";"1"
"767";"1";"182";"1";"4";"4";"1";"9";"1";"[1,2,5]";"2";"0";"1"
"768";"10";"182";"1";"3";"3";"1";"9";"2";"[1,2,5]";"1";"0";"1"
"769";"5";"182";"1";"1";"3";"1";"9";"0";"[2,3,4,5]";"1";"0";"1"
"770";"37";"5";"1";"2";"1";"1";"9";"1";"[1,3,4,5,6]";"1";"0";"1"
"771";"19";"182";"1";"6";"3";"1";"9";"0";"[2,7,8,9,10]";"1";"0";"1"
"772";"17";"5";"1";"9";"1";"1";"9";"1";"[6,7,8,10]";"2";"0";"1"
"773";"1";"183";"1";"4";"4";"1";"9";"1";"[1,2,5]";"2";"0";"1"
"774";"10";"183";"1";"3";"3";"1";"9";"2";"[1,2,5]";"1";"0";"1"
"775";"29";"183";"1";"9";"3";"1";"9";"0";"[6,7,8,10]";"1";"0";"1"
"776";"29";"184";"1";"9";"3";"1";"9";"0";"[6,7,8,10]";"1";"0";"1"
"777";"12";"185";"1";"5";"3";"1";"9";"0";"[1,2,3,4]";"1";"0";"1"
"778";"12";"186";"1";"5";"3";"1";"9";"0";"[1,2,3,4]";"1";"0";"1"
"779";"7";"188";"1";"7";"4";"1";"9";"0";"[6,8,9,10]";"1";"0";"1"
"780";"7";"189";"1";"7";"4";"1";"9";"0";"[6,8,9,10]";"1";"0";"1"
"781";"2";"203";"1";"8";"4";"1";"9";"2";"[6,7,9,10]";"2";"0";"1"
"782";"2";"204";"1";"8";"4";"1";"9";"2";"[6,7,9,10]";"2";"0";"1"
"783";"27";"205";"1";"4";"3";"1";"10";"0";"[1,2,5]";"1";"0";"1"
"784";"21";"1";"1";"10";"1";"1";"10";"1";"[6,7,8,9]";"1";"0";"1"
"785";"4";"205";"1";"6";"2";"1";"10";"2";"[2,7,8,9,10]";"2";"0";"1"
"786";"8";"205";"1";"10";"2";"1";"10";"2";"[6,7,8,9]";"1";"0";"1"
"787";"40";"206";"1";"2";"4";"1";"10";"2";"[1,3,4,5,6]";"2";"0";"1"
"788";"6";"206";"1";"3";"2";"1";"10";"2";"[1,2,5]";"2";"0";"1"
"789";"3";"206";"1";"8";"2";"1";"10";"2";"[6,7,9,10]";"2";"0";"1"
"790";"11";"2";"1";"3";"1";"1";"10";"1";"[1,2,5]";"1";"0";"1"
"791";"32";"206";"1";"2";"2";"1";"10";"1";"[1,3,4,5,6]";"2";"0";"1"
"792";"25";"2";"1";"5";"1";"1";"10";"1";"[1,2,3,4]";"1";"0";"1"
"793";"26";"206";"1";"1";"2";"1";"10";"1";"[2,3,4,5]";"2";"0";"1"
"794";"27";"206";"1";"4";"3";"1";"10";"0";"[1,2,5]";"1";"0";"1"
"795";"12";"206";"1";"5";"3";"1";"10";"0";"[1,2,3,4]";"1";"0";"1"
"796";"21";"2";"1";"10";"1";"1";"10";"1";"[6,7,8,9]";"1";"0";"1"
"797";"17";"2";"1";"9";"1";"1";"10";"1";"[6,7,8,10]";"1";"0";"1"
"798";"4";"206";"1";"6";"2";"1";"10";"2";"[2,7,8,9,10]";"2";"0";"1"
"799";"8";"206";"1";"10";"2";"1";"10";"2";"[6,7,8,9]";"1";"0";"1"
"800";"40";"207";"1";"2";"4";"1";"10";"2";"[1,3,4,5,6]";"2";"0";"1"
"801";"36";"207";"1";"7";"2";"1";"10";"2";"[6,8,9,10]";"2";"0";"1"
"802";"6";"207";"1";"3";"2";"1";"10";"2";"[1,2,5]";"2";"0";"1"
"803";"19";"207";"1";"6";"3";"1";"10";"0";"[2,7,8,9,10]";"1";"0";"1"
"804";"3";"207";"1";"8";"2";"1";"10";"2";"[6,7,9,10]";"2";"0";"1"
"805";"11";"3";"1";"3";"1";"1";"10";"1";"[1,2,5]";"1";"0";"1"
"806";"39";"3";"1";"4";"1";"1";"10";"2";"[1,2,5]";"1";"0";"1"
"807";"16";"207";"1";"3";"4";"1";"10";"0";"[1,2,5]";"2";"0";"1"
"808";"30";"3";"1";"1";"1";"1";"10";"0";"[2,3,4,5]";"1";"0";"1"
"809";"32";"207";"1";"2";"2";"1";"10";"1";"[1,3,4,5,6]";"2";"0";"1"
"810";"25";"3";"1";"5";"1";"1";"10";"1";"[1,2,3,4]";"1";"0";"1"
"811";"26";"207";"1";"1";"2";"1";"10";"1";"[2,3,4,5]";"2";"0";"1"
"812";"5";"207";"1";"1";"3";"1";"10";"0";"[2,3,4,5]";"1";"0";"1"
"813";"38";"207";"1";"9";"2";"1";"10";"2";"[6,7,8,10]";"2";"0";"1"
"814";"12";"207";"1";"5";"3";"1";"10";"0";"[1,2,3,4]";"1";"0";"1"
"815";"13";"207";"1";"8";"3";"1";"10";"2";"[6,7,9,10]";"2";"0";"1"
"816";"15";"207";"1";"7";"3";"1";"10";"1";"[6,8,9,10]";"1";"0";"1"
"817";"20";"207";"1";"9";"4";"1";"10";"2";"[6,7,8,10]";"2";"0";"1"
"818";"23";"207";"1";"5";"4";"1";"10";"2";"[1,2,3,4]";"2";"0";"1"
"819";"17";"3";"1";"9";"1";"1";"10";"1";"[6,7,8,10]";"1";"0";"1"
"820";"9";"3";"1";"8";"1";"1";"10";"0";"[6,7,9,10]";"1";"0";"1"
"821";"36";"208";"1";"7";"2";"1";"10";"2";"[6,8,9,10]";"2";"0";"1"
"822";"19";"208";"1";"6";"3";"1";"10";"0";"[2,7,8,9,10]";"1";"0";"1"
"823";"28";"4";"1";"7";"1";"1";"10";"0";"[6,8,9,10]";"1";"0";"1"
"824";"39";"4";"1";"4";"1";"1";"10";"2";"[1,2,5]";"1";"0";"1"
"825";"16";"208";"1";"3";"4";"1";"10";"0";"[1,2,5]";"2";"0";"1"
"826";"30";"4";"1";"1";"1";"1";"10";"0";"[2,3,4,5]";"1";"0";"1"
"827";"29";"208";"1";"9";"3";"1";"10";"0";"[6,7,8,10]";"1";"0";"1"
"828";"31";"208";"1";"10";"3";"1";"10";"1";"[6,7,8,9]";"1";"0";"1"
"829";"35";"208";"1";"10";"4";"1";"10";"2";"[6,7,8,9]";"2";"0";"1"
"830";"5";"208";"1";"1";"3";"1";"10";"0";"[2,3,4,5]";"1";"0";"1"
"831";"38";"208";"1";"9";"2";"1";"10";"2";"[6,7,8,10]";"2";"0";"1"
"832";"13";"208";"1";"8";"3";"1";"10";"2";"[6,7,9,10]";"2";"0";"1"
"833";"12";"208";"1";"5";"3";"1";"10";"0";"[1,2,3,4]";"1";"1";"1"
"834";"15";"208";"1";"7";"3";"1";"10";"1";"[6,8,9,10]";"1";"0";"1"
"835";"20";"208";"1";"9";"4";"1";"10";"2";"[6,7,8,10]";"2";"0";"1"
"836";"23";"208";"1";"5";"4";"1";"10";"2";"[1,2,3,4]";"2";"0";"1"
"837";"9";"4";"1";"8";"1";"1";"10";"0";"[6,7,9,10]";"1";"0";"1"
"838";"10";"208";"1";"3";"3";"1";"10";"2";"[1,2,5]";"1";"0";"1"
"839";"28";"5";"1";"7";"1";"1";"10";"0";"[6,8,9,10]";"1";"0";"1"
"840";"33";"209";"1";"4";"2";"1";"10";"2";"[1,2,5]";"0";"8";"1"
"841";"29";"209";"1";"9";"3";"1";"10";"0";"[6,7,8,10]";"1";"0";"1"
"842";"31";"209";"1";"10";"3";"1";"10";"1";"[6,7,8,9]";"1";"0";"1"
"843";"35";"209";"1";"10";"4";"1";"10";"2";"[6,7,8,9]";"2";"0";"1"
"844";"18";"209";"1";"6";"4";"1";"10";"1";"[2,7,8,9,10]";"2";"0";"1"
"845";"37";"5";"1";"2";"1";"1";"10";"1";"[1,3,4,5,6]";"1";"0";"1"
"846";"2";"209";"1";"8";"4";"1";"10";"2";"[6,7,9,10]";"1";"0";"1"
"847";"34";"209";"1";"2";"3";"1";"10";"1";"[1,3,4,5,6]";"1";"0";"1"
"848";"1";"209";"1";"4";"4";"1";"10";"1";"[1,2,5]";"2";"0";"1"
"849";"22";"209";"1";"5";"2";"1";"10";"0";"[1,2,3,4]";"2";"0";"1"
"850";"10";"209";"1";"3";"3";"1";"10";"2";"[1,2,5]";"1";"0";"1"
"851";"12";"210";"1";"5";"3";"1";"10";"0";"[1,2,3,4]";"1";"2";"1"
"852";"18";"210";"1";"6";"4";"1";"10";"1";"[2,7,8,9,10]";"2";"0";"1"
"853";"37";"6";"1";"2";"1";"1";"10";"1";"[1,3,4,5,6]";"1";"0";"1"
"854";"2";"210";"1";"8";"4";"1";"10";"2";"[6,7,9,10]";"1";"0";"1"
"855";"34";"210";"1";"2";"3";"1";"10";"1";"[1,3,4,5,6]";"1";"0";"1"
"856";"1";"210";"1";"4";"4";"1";"10";"1";"[1,2,5]";"2";"0";"1"
"857";"22";"210";"1";"5";"2";"1";"10";"0";"[1,2,3,4]";"2";"0";"1"
"858";"12";"211";"1";"5";"3";"1";"10";"0";"[1,2,3,4]";"1";"10";"1"
"859";"24";"212";"1";"1";"4";"1";"10";"0";"[2,3,4,5]";"2";"0";"1"
"860";"33";"212";"1";"4";"2";"1";"10";"2";"[1,2,5]";"2";"8";"1"
"861";"12";"213";"1";"5";"3";"1";"10";"0";"[1,2,3,4]";"1";"10";"1"
"862";"14";"9";"1";"6";"1";"1";"10";"0";"[2,7,8,9,10]";"1";"0";"1"
"863";"24";"213";"1";"1";"4";"1";"10";"0";"[2,3,4,5]";"2";"0";"1"
"864";"33";"213";"1";"4";"2";"1";"10";"2";"[1,2,5]";"2";"8";"1"
"865";"14";"10";"1";"6";"1";"1";"10";"0";"[2,7,8,9,10]";"1";"0";"1"
"866";"7";"214";"1";"7";"4";"1";"10";"0";"[6,8,9,10]";"2";"0";"1"
"867";"7";"215";"1";"7";"4";"1";"10";"0";"[6,8,9,10]";"2";"0";"1"
"868";"32";"216";"1";"2";"2";"1";"11";"1";"[1,3,4,5,6]";"2";"0";"1"
"869";"27";"216";"1";"4";"3";"1";"11";"0";"[1,2,5]";"1";"0";"1"
"870";"6";"216";"1";"3";"2";"1";"11";"2";"[1,2,5]";"2";"0";"1"
"871";"4";"216";"1";"6";"2";"1";"11";"2";"[2,7,8,9,10]";"2";"0";"1"
"872";"21";"2";"1";"10";"1";"1";"11";"1";"[6,7,8,9]";"1";"0";"1"
"873";"30";"2";"1";"1";"1";"1";"11";"0";"[2,3,4,5]";"1";"0";"1"
"874";"11";"2";"1";"3";"1";"1";"11";"1";"[1,2,5]";"1";"0";"1"
"875";"15";"217";"1";"7";"3";"1";"11";"1";"[6,8,9,10]";"1";"0";"1"
"876";"26";"217";"1";"1";"2";"1";"11";"1";"[2,3,4,5]";"2";"0";"1"
"877";"40";"217";"1";"2";"4";"1";"11";"2";"[1,3,4,5,6]";"2";"0";"1"
"878";"5";"217";"1";"1";"3";"1";"11";"0";"[2,3,4,5]";"1";"0";"1"
"879";"32";"217";"1";"2";"2";"1";"11";"1";"[1,3,4,5,6]";"2";"0";"1"
"880";"27";"217";"1";"4";"3";"1";"11";"0";"[1,2,5]";"1";"0";"1"
"881";"20";"217";"1";"9";"4";"1";"11";"2";"[6,7,8,10]";"2";"0";"1"
"882";"9";"2";"1";"8";"1";"1";"11";"0";"[6,7,9,10]";"1";"0";"1"
"883";"6";"217";"1";"3";"2";"1";"11";"2";"[1,2,5]";"2";"0";"1"
"884";"4";"217";"1";"6";"2";"1";"11";"2";"[2,7,8,9,10]";"2";"0";"1"
"885";"13";"218";"1";"8";"3";"1";"11";"2";"[6,7,9,10]";"1";"0";"1"
"886";"25";"3";"1";"5";"1";"1";"11";"1";"[1,2,3,4]";"1";"0";"1"
"887";"10";"218";"1";"3";"3";"1";"11";"2";"[1,2,5]";"1";"0";"1"
"888";"36";"218";"1";"7";"2";"1";"11";"2";"[6,8,9,10]";"2";"0";"1"
"889";"21";"3";"1";"10";"1";"1";"11";"1";"[6,7,8,9]";"1";"0";"1"
"890";"34";"218";"1";"2";"3";"1";"11";"1";"[1,3,4,5,6]";"1";"0";"1"
"891";"30";"3";"1";"1";"1";"1";"11";"0";"[2,3,4,5]";"1";"0";"1"
"892";"16";"218";"1";"3";"4";"1";"11";"0";"[1,2,5]";"2";"0";"1"
"893";"19";"218";"1";"6";"3";"1";"11";"0";"[2,7,8,9,10]";"1";"0";"1"
"894";"35";"218";"1";"10";"4";"1";"11";"2";"[6,7,8,9]";"2";"0";"1"
"895";"17";"3";"1";"9";"1";"1";"11";"1";"[6,7,8,10]";"1";"0";"1"
"896";"22";"218";"1";"5";"2";"1";"11";"0";"[1,2,3,4]";"2";"0";"1"
"897";"11";"3";"1";"3";"1";"1";"11";"1";"[1,2,5]";"1";"0";"1"
"898";"15";"218";"1";"7";"3";"1";"11";"1";"[6,8,9,10]";"1";"0";"1"
"899";"39";"3";"1";"4";"1";"1";"11";"2";"[1,2,5]";"1";"0";"1"
"900";"8";"218";"1";"10";"2";"1";"11";"2";"[6,7,8,9]";"2";"0";"1"
"901";"18";"218";"1";"6";"4";"1";"11";"1";"[2,7,8,9,10]";"2";"0";"1"
"902";"29";"218";"1";"9";"3";"1";"11";"0";"[6,7,8,10]";"1";"0";"1"
"903";"26";"218";"1";"1";"2";"1";"11";"1";"[2,3,4,5]";"2";"0";"1"
"904";"40";"218";"1";"2";"4";"1";"11";"2";"[1,3,4,5,6]";"2";"0";"1"
"905";"23";"218";"1";"5";"4";"1";"11";"2";"[1,2,3,4]";"2";"0";"1"
"906";"5";"218";"1";"1";"3";"1";"11";"0";"[2,3,4,5]";"1";"0";"1"
"907";"20";"218";"1";"9";"4";"1";"11";"2";"[6,7,8,10]";"2";"0";"1"
"908";"9";"3";"1";"8";"1";"1";"11";"0";"[6,7,9,10]";"1";"0";"1"
"909";"13";"219";"1";"8";"3";"1";"11";"2";"[6,7,9,10]";"1";"0";"1"
"910";"25";"4";"1";"5";"1";"1";"11";"1";"[1,2,3,4]";"1";"0";"1"
"911";"10";"219";"1";"3";"3";"1";"11";"2";"[1,2,5]";"1";"0";"1"
"912";"36";"219";"1";"7";"2";"1";"11";"2";"[6,8,9,10]";"2";"0";"1"
"913";"37";"4";"1";"2";"1";"1";"11";"1";"[1,3,4,5,6]";"2";"0";"1"
"914";"12";"219";"1";"5";"3";"1";"11";"0";"[1,2,3,4]";"1";"0";"1"
"915";"34";"219";"1";"2";"3";"1";"11";"1";"[1,3,4,5,6]";"1";"0";"1"
"916";"16";"219";"1";"3";"4";"1";"11";"0";"[1,2,5]";"2";"0";"1"
"917";"19";"219";"1";"6";"3";"1";"11";"0";"[2,7,8,9,10]";"1";"0";"1"
"918";"35";"219";"1";"10";"4";"1";"11";"2";"[6,7,8,9]";"2";"0";"1"
"919";"17";"4";"1";"9";"1";"1";"11";"1";"[6,7,8,10]";"1";"0";"1"
"920";"22";"219";"1";"5";"2";"1";"11";"0";"[1,2,3,4]";"2";"0";"1"
"921";"39";"4";"1";"4";"1";"1";"11";"2";"[1,2,5]";"1";"0";"1"
"922";"8";"219";"1";"10";"2";"1";"11";"2";"[6,7,8,9]";"2";"0";"1"
"923";"28";"4";"1";"7";"1";"1";"11";"0";"[6,8,9,10]";"1";"0";"1"
"924";"18";"219";"1";"6";"4";"1";"11";"1";"[2,7,8,9,10]";"2";"0";"1"
"925";"29";"219";"1";"9";"3";"1";"11";"0";"[6,7,8,10]";"1";"0";"1"
"926";"23";"219";"1";"5";"4";"1";"11";"2";"[1,2,3,4]";"2";"0";"1"
"927";"14";"5";"1";"6";"1";"1";"11";"0";"[2,7,8,9,10]";"1";"0";"1"
"928";"37";"5";"1";"2";"1";"1";"11";"1";"[1,3,4,5,6]";"2";"0";"1"
"929";"12";"220";"1";"5";"3";"1";"11";"0";"[1,2,3,4]";"1";"0";"1"
"930";"38";"220";"1";"9";"2";"1";"11";"2";"[6,7,8,10]";"2";"0";"1"
"931";"24";"220";"1";"1";"4";"1";"11";"0";"[2,3,4,5]";"2";"0";"1"
"932";"33";"220";"1";"4";"2";"1";"11";"2";"[1,2,5]";"2";"0";"1"
"933";"28";"5";"1";"7";"1";"1";"11";"0";"[6,8,9,10]";"1";"0";"1"
"934";"14";"6";"1";"6";"1";"1";"11";"0";"[2,7,8,9,10]";"1";"0";"1"
"935";"38";"221";"1";"9";"2";"1";"11";"2";"[6,7,8,10]";"2";"0";"1"
"936";"24";"221";"1";"1";"4";"1";"11";"0";"[2,3,4,5]";"2";"0";"1"
"937";"3";"221";"1";"8";"2";"1";"11";"2";"[6,7,9,10]";"2";"0";"1"
"938";"33";"221";"1";"4";"2";"1";"11";"2";"[1,2,5]";"2";"0";"1"
"939";"1";"221";"1";"4";"4";"1";"11";"1";"[1,2,5]";"2";"0";"1"
"940";"3";"222";"1";"8";"2";"1";"11";"2";"[6,7,9,10]";"2";"0";"1"
"941";"31";"222";"1";"10";"3";"1";"11";"1";"[6,7,8,9]";"2";"0";"1"
"942";"1";"222";"1";"4";"4";"1";"11";"1";"[1,2,5]";"2";"0";"1"
"943";"31";"223";"1";"10";"3";"1";"11";"1";"[6,7,8,9]";"2";"0";"1"
"944";"7";"225";"1";"7";"4";"1";"11";"0";"[6,8,9,10]";"1";"0";"1"
"945";"7";"226";"1";"7";"4";"1";"11";"0";"[6,8,9,10]";"1";"0";"1"
"946";"2";"238";"1";"8";"4";"1";"11";"2";"[6,7,9,10]";"2";"0";"1"
"947";"2";"239";"1";"8";"4";"1";"11";"2";"[6,7,9,10]";"2";"0";"1"
"948";"35";"239";"1";"10";"4";"1";"12";"2";"[6,7,8,9]";"0";"11";"1"
"949";"6";"240";"1";"3";"2";"1";"12";"2";"[1,2,5]";"2";"0";"1"
"950";"30";"1";"1";"1";"1";"1";"12";"0";"[2,3,4,5]";"1";"0";"1"
"951";"32";"240";"1";"2";"2";"1";"12";"1";"[1,3,4,5,6]";"2";"0";"1"
"952";"27";"240";"1";"4";"3";"1";"12";"0";"[1,2,5]";"1";"0";"1"
"953";"11";"1";"1";"3";"1";"1";"12";"1";"[1,2,5]";"1";"0";"1"
"954";"18";"240";"1";"6";"4";"1";"12";"1";"[2,7,8,9,10]";"2";"0";"1"
"955";"26";"240";"1";"1";"2";"1";"12";"1";"[2,3,4,5]";"2";"0";"1"
"956";"21";"1";"1";"10";"1";"1";"12";"1";"[6,7,8,9]";"1";"0";"1"
"957";"40";"240";"1";"2";"4";"1";"12";"2";"[1,3,4,5,6]";"2";"0";"1"
"958";"3";"240";"1";"8";"2";"1";"12";"2";"[6,7,9,10]";"2";"0";"1"
"959";"22";"241";"1";"5";"2";"1";"12";"0";"[1,2,3,4]";"2";"0";"1"
"960";"36";"241";"1";"7";"2";"1";"12";"2";"[6,8,9,10]";"2";"0";"1"
"961";"5";"241";"1";"1";"3";"1";"12";"0";"[2,3,4,5]";"1";"0";"1"
"962";"6";"241";"1";"3";"2";"1";"12";"2";"[1,2,5]";"2";"0";"1"
"963";"30";"2";"1";"1";"1";"1";"12";"0";"[2,3,4,5]";"1";"0";"1"
"964";"12";"241";"1";"5";"3";"1";"12";"0";"[1,2,3,4]";"1";"0";"1"
"965";"32";"241";"1";"2";"2";"1";"12";"1";"[1,3,4,5,6]";"2";"0";"1"
"966";"33";"241";"1";"4";"2";"1";"12";"2";"[1,2,5]";"2";"0";"1"
"967";"14";"2";"1";"6";"1";"1";"12";"0";"[2,7,8,9,10]";"2";"0";"1"
"968";"38";"241";"1";"9";"2";"1";"12";"2";"[6,7,8,10]";"2";"0";"1"
"969";"27";"241";"1";"4";"3";"1";"12";"0";"[1,2,5]";"1";"0";"1"
"970";"11";"2";"1";"3";"1";"1";"12";"1";"[1,2,5]";"1";"0";"1"
"971";"18";"241";"1";"6";"4";"1";"12";"1";"[2,7,8,9,10]";"2";"0";"1"
"972";"13";"241";"1";"8";"3";"1";"12";"2";"[6,7,9,10]";"1";"0";"1"
"973";"26";"241";"1";"1";"2";"1";"12";"1";"[2,3,4,5]";"2";"0";"1"
"974";"15";"241";"1";"7";"3";"1";"12";"1";"[6,8,9,10]";"1";"0";"1"
"975";"28";"2";"1";"7";"1";"1";"12";"0";"[6,8,9,10]";"1";"0";"1"
"976";"21";"2";"1";"10";"1";"1";"12";"1";"[6,7,8,9]";"1";"0";"1"
"977";"9";"2";"1";"8";"1";"1";"12";"0";"[6,7,9,10]";"1";"0";"1"
"978";"25";"2";"1";"5";"1";"1";"12";"1";"[1,2,3,4]";"1";"0";"1"
"979";"40";"241";"1";"2";"4";"1";"12";"2";"[1,3,4,5,6]";"2";"0";"1"
"980";"3";"241";"1";"8";"2";"1";"12";"2";"[6,7,9,10]";"2";"0";"1"
"981";"22";"242";"1";"5";"2";"1";"12";"0";"[1,2,3,4]";"2";"0";"1"
"982";"31";"242";"1";"10";"3";"1";"12";"1";"[6,7,8,9]";"1";"0";"1"
"983";"36";"242";"1";"7";"2";"1";"12";"2";"[6,8,9,10]";"2";"0";"1"
"984";"5";"242";"1";"1";"3";"1";"12";"0";"[2,3,4,5]";"1";"0";"1"
"985";"35";"242";"1";"10";"4";"1";"12";"2";"[6,7,8,9]";"2";"11";"1"
"986";"8";"242";"1";"10";"2";"1";"12";"2";"[6,7,8,9]";"2";"0";"1"
"987";"20";"242";"1";"9";"4";"1";"12";"2";"[6,7,8,10]";"2";"0";"1"
"988";"34";"242";"1";"2";"3";"1";"12";"1";"[1,3,4,5,6]";"1";"0";"1"
"989";"12";"242";"1";"5";"3";"1";"12";"0";"[1,2,3,4]";"1";"0";"1"
"990";"33";"242";"1";"4";"2";"1";"12";"2";"[1,2,5]";"2";"0";"1"
"991";"14";"3";"1";"6";"1";"1";"12";"0";"[2,7,8,9,10]";"2";"0";"1"
"992";"23";"242";"1";"5";"4";"1";"12";"2";"[1,2,3,4]";"2";"0";"1"
"993";"38";"242";"1";"9";"2";"1";"12";"2";"[6,7,8,10]";"2";"0";"1"
"994";"13";"242";"1";"8";"3";"1";"12";"2";"[6,7,9,10]";"1";"0";"1"
"995";"15";"242";"1";"7";"3";"1";"12";"1";"[6,8,9,10]";"1";"0";"1"
"996";"28";"3";"1";"7";"1";"1";"12";"0";"[6,8,9,10]";"1";"0";"1"
"997";"9";"3";"1";"8";"1";"1";"12";"0";"[6,7,9,10]";"1";"0";"1"
"998";"25";"3";"1";"5";"1";"1";"12";"1";"[1,2,3,4]";"1";"0";"1"
"999";"31";"243";"1";"10";"3";"1";"12";"1";"[6,7,8,9]";"1";"0";"1"
"1000";"16";"243";"1";"3";"4";"1";"12";"0";"[1,2,5]";"2";"0";"1"
"1001";"35";"243";"1";"10";"4";"1";"12";"2";"[6,7,8,9]";"2";"11";"1"
"1002";"8";"243";"1";"10";"2";"1";"12";"2";"[6,7,8,9]";"2";"0";"1"
"1003";"20";"243";"1";"9";"4";"1";"12";"2";"[6,7,8,10]";"2";"0";"1"
"1004";"34";"243";"1";"2";"3";"1";"12";"1";"[1,3,4,5,6]";"1";"0";"1"
"1005";"19";"243";"1";"6";"3";"1";"12";"0";"[2,7,8,9,10]";"1";"0";"1"
"1006";"23";"243";"1";"5";"4";"1";"12";"2";"[1,2,3,4]";"2";"0";"1"
"1007";"10";"243";"1";"3";"3";"1";"12";"2";"[1,2,5]";"1";"0";"1"
"1008";"1";"243";"1";"4";"4";"1";"12";"1";"[1,2,5]";"2";"0";"1"
"1009";"35";"243";"1";"10";"4";"1";"12";"2";"[6,7,8,9]";"2";"10";"1"
"1010";"37";"5";"1";"2";"1";"1";"12";"1";"[1,3,4,5,6]";"1";"0";"1"
"1011";"16";"244";"1";"3";"4";"1";"12";"0";"[1,2,5]";"2";"0";"1"
"1012";"19";"244";"1";"6";"3";"1";"12";"0";"[2,7,8,9,10]";"1";"0";"1"
"1013";"10";"244";"1";"3";"3";"1";"12";"2";"[1,2,5]";"1";"0";"1"
"1014";"1";"244";"1";"4";"4";"1";"12";"1";"[1,2,5]";"2";"0";"1"
"1015";"7";"244";"1";"7";"4";"1";"12";"0";"[6,8,9,10]";"2";"0";"1"
"1016";"2";"245";"1";"8";"4";"1";"12";"2";"[6,7,9,10]";"2";"0";"1"
"1017";"37";"6";"1";"2";"1";"1";"12";"1";"[1,3,4,5,6]";"1";"0";"1"
"1018";"39";"6";"1";"4";"1";"1";"12";"2";"[1,2,5]";"2";"0";"1"
"1019";"24";"245";"1";"1";"4";"1";"12";"0";"[2,3,4,5]";"2";"0";"1"
"1020";"35";"245";"1";"10";"4";"1";"12";"2";"[6,7,8,9]";"2";"9";"1"
"1021";"29";"245";"1";"9";"3";"1";"12";"0";"[6,7,8,10]";"1";"0";"1"
"1022";"7";"245";"1";"7";"4";"1";"12";"0";"[6,8,9,10]";"2";"0";"1"
"1023";"4";"245";"1";"6";"2";"1";"12";"2";"[2,7,8,9,10]";"0";"10";"1"
"1024";"2";"246";"1";"8";"4";"1";"12";"2";"[6,7,9,10]";"2";"0";"1"
"1025";"39";"7";"1";"4";"1";"1";"12";"2";"[1,2,5]";"2";"0";"1"
"1026";"24";"246";"1";"1";"4";"1";"12";"0";"[2,3,4,5]";"2";"0";"1"
"1027";"29";"246";"1";"9";"3";"1";"12";"0";"[6,7,8,10]";"1";"0";"1"
"1028";"4";"247";"1";"6";"2";"1";"12";"2";"[2,7,8,9,10]";"0";"9";"1"
"1029";"35";"247";"1";"10";"4";"1";"12";"2";"[6,7,8,9]";"2";"8";"1"
"1030";"4";"248";"1";"6";"2";"1";"12";"2";"[2,7,8,9,10]";"0";"10";"1"
"1031";"35";"248";"1";"10";"4";"1";"12";"2";"[6,7,8,9]";"2";"7";"1"
"1032";"4";"249";"1";"6";"2";"1";"12";"2";"[2,7,8,9,10]";"0";"11";"1"
"1033";"17";"11";"1";"9";"1";"1";"12";"1";"[6,7,8,10]";"1";"0";"1"
"1034";"35";"250";"1";"10";"4";"1";"12";"2";"[6,7,8,9]";"2";"6";"1"
"1035";"17";"12";"1";"9";"1";"1";"12";"1";"[6,7,8,10]";"1";"0";"1"
"1036";"35";"251";"1";"10";"4";"1";"12";"2";"[6,7,8,9]";"2";"5";"1"
"1037";"4";"252";"1";"6";"2";"1";"12";"2";"[2,7,8,9,10]";"2";"11";"1"
"1038";"35";"252";"1";"10";"4";"1";"12";"2";"[6,7,8,9]";"2";"4";"1"
"1039";"4";"253";"1";"6";"2";"1";"12";"2";"[2,7,8,9,10]";"2";"11";"1"
"1040";"30";"0";"1";"2";"1";"2";"12";"1";"[1,3,4,5,6]";"1";"0";"1"
"1041";"6";"0";"1";"4";"2";"2";"12";"0";"[1,2,5]";"2";"0";"1"
"1042";"28";"0";"1";"8";"1";"2";"12";"2";"[6,7,9,10]";"1";"0";"1"
"1043";"22";"0";"1";"8";"2";"2";"12";"2";"[6,7,9,10]";"2";"0";"1"
"1044";"25";"0";"1";"4";"1";"2";"12";"2";"[1,2,5]";"2";"0";"1"
"1045";"23";"0";"1";"2";"4";"2";"12";"1";"[1,3,4,5,6]";"2";"0";"1"
"1046";"17";"0";"1";"9";"1";"2";"12";"2";"[6,7,8,10]";"1";"0";"1"
"1047";"12";"0";"1";"5";"3";"2";"12";"1";"[1,2,3,4]";"1";"0";"1"
"1048";"32";"0";"1";"7";"2";"2";"12";"1";"[6,8,9,10]";"2";"0";"1"
"1049";"14";"0";"1";"1";"1";"2";"12";"1";"[2,3,4,5]";"1";"0";"1"
"1050";"36";"0";"1";"10";"2";"2";"12";"1";"[6,7,8,9]";"2";"0";"1"
"1051";"11";"0";"1";"10";"1";"2";"12";"0";"[6,7,8,9]";"1";"0";"1"
"1052";"27";"0";"1";"8";"3";"2";"12";"0";"[6,7,9,10]";"1";"0";"1"
"1053";"9";"0";"1";"6";"1";"2";"12";"2";"[2,7,8,9,10]";"2";"0";"1"
"1054";"37";"0";"1";"7";"1";"2";"12";"1";"[6,8,9,10]";"1";"0";"1"
"1055";"8";"0";"1";"3";"2";"2";"12";"1";"[1,2,5]";"2";"0";"1"
"1056";"21";"0";"1";"5";"1";"2";"12";"0";"[1,2,3,4]";"1";"0";"1"
"1057";"38";"0";"1";"9";"2";"2";"12";"1";"[6,7,8,10]";"2";"0";"1"
"1058";"26";"0";"1";"5";"2";"2";"12";"0";"[1,2,3,4]";"2";"0";"1"
"1059";"3";"0";"1";"1";"2";"2";"12";"1";"[2,3,4,5]";"2";"0";"1"
"1060";"39";"0";"1";"3";"1";"2";"12";"2";"[1,2,5]";"1";"0";"1"
"1061";"10";"0";"1";"3";"3";"2";"12";"1";"[1,2,5]";"1";"0";"1"
"1062";"13";"0";"1";"2";"3";"2";"12";"1";"[1,3,4,5,6]";"1";"0";"1"
"1063";"29";"0";"1";"4";"3";"2";"12";"1";"[1,2,5]";"1";"0";"1"
"1064";"33";"0";"1";"6";"2";"2";"12";"2";"[2,7,8,9,10]";"2";"11";"1"
"1065";"19";"0";"1";"6";"3";"2";"12";"0";"[2,7,8,9,10]";"1";"0";"1"
"1066";"7";"0";"1";"10";"4";"2";"12";"2";"[6,7,8,9]";"2";"4";"1"
"1067";"40";"0";"1";"3";"4";"2";"12";"0";"[1,2,5]";"2";"0";"1"
"1068";"4";"0";"1";"2";"2";"2";"12";"0";"[1,3,4,5,6]";"2";"0";"1"
"1069";"18";"0";"1";"9";"4";"2";"12";"2";"[6,7,8,10]";"2";"0";"1"
"1070";"20";"0";"1";"1";"4";"2";"12";"0";"[2,3,4,5]";"2";"0";"1"
"1071";"1";"0";"1";"5";"4";"2";"12";"0";"[1,2,3,4]";"2";"0";"1"
"1072";"31";"0";"1";"10";"3";"2";"12";"1";"[6,7,8,9]";"1";"0";"1"
"1073";"35";"0";"1";"7";"4";"2";"12";"0";"[6,8,9,10]";"2";"0";"1"
"1074";"16";"0";"1";"6";"4";"2";"12";"2";"[2,7,8,9,10]";"2";"0";"1"
"1075";"24";"0";"1";"4";"4";"2";"12";"1";"[1,2,5]";"2";"0";"1"
"1076";"34";"0";"1";"7";"3";"2";"12";"2";"[6,8,9,10]";"1";"0";"1"
"1077";"15";"0";"1";"9";"3";"2";"12";"1";"[6,7,8,10]";"1";"0";"1"
"1078";"2";"0";"1";"8";"4";"2";"12";"1";"[6,7,9,10]";"2";"0";"1"
"1079";"5";"0";"1";"1";"3";"2";"12";"0";"[2,3,4,5]";"1";"0";"1"
"1080";"14";"1";"1";"1";"1";"2";"1";"1";"[2,3,4,5]";"1";"0";"1"
"1081";"6";"2";"1";"4";"2";"2";"1";"0";"[1,2,5]";"2";"0";"1"
"1082";"13";"2";"1";"2";"3";"2";"1";"1";"[1,3,4,5,6]";"2";"0";"1"
"1083";"36";"2";"1";"10";"2";"2";"1";"1";"[6,7,8,9]";"1";"0";"1"
"1084";"18";"2";"1";"9";"4";"2";"1";"2";"[6,7,8,10]";"1";"0";"1"
"1085";"25";"2";"1";"4";"1";"2";"1";"2";"[1,2,5]";"2";"0";"1"
"1086";"14";"2";"1";"1";"1";"2";"1";"1";"[2,3,4,5]";"1";"0";"1"
"1087";"28";"3";"1";"8";"1";"2";"1";"2";"[6,7,9,10]";"2";"0";"1"
"1088";"6";"3";"1";"4";"2";"2";"1";"0";"[1,2,5]";"2";"0";"1"
"1089";"13";"3";"1";"2";"3";"2";"1";"1";"[1,3,4,5,6]";"2";"0";"1"
"1090";"34";"3";"1";"7";"3";"2";"1";"2";"[6,8,9,10]";"1";"0";"1"
"1091";"8";"3";"1";"3";"2";"2";"1";"1";"[1,2,5]";"1";"0";"1"
"1092";"23";"3";"1";"2";"4";"2";"1";"1";"[1,3,4,5,6]";"2";"0";"1"
"1093";"36";"3";"1";"10";"2";"2";"1";"1";"[6,7,8,9]";"1";"0";"1"
"1094";"18";"3";"1";"9";"4";"2";"1";"2";"[6,7,8,10]";"1";"0";"1"
"1095";"25";"3";"1";"4";"1";"2";"1";"2";"[1,2,5]";"2";"0";"1"
"1096";"10";"3";"1";"3";"3";"2";"1";"1";"[1,2,5]";"2";"0";"1"
"1097";"15";"4";"1";"9";"3";"2";"1";"1";"[6,7,8,10]";"1";"0";"1"
"1098";"28";"4";"1";"8";"1";"2";"1";"2";"[6,7,9,10]";"2";"0";"1"
"1099";"31";"4";"1";"10";"3";"2";"1";"1";"[6,7,8,9]";"1";"0";"1"
"1100";"7";"4";"1";"10";"4";"2";"1";"2";"[6,7,8,9]";"1";"0";"1"
"1101";"27";"4";"1";"8";"3";"2";"1";"0";"[6,7,9,10]";"2";"0";"1"
"1102";"34";"4";"1";"7";"3";"2";"1";"2";"[6,8,9,10]";"1";"0";"1"
"1103";"11";"4";"1";"10";"1";"2";"1";"0";"[6,7,8,9]";"1";"0";"1"
"1104";"8";"4";"1";"3";"2";"2";"1";"1";"[1,2,5]";"1";"0";"1"
"1105";"23";"4";"1";"2";"4";"2";"1";"1";"[1,3,4,5,6]";"2";"0";"1"
"1106";"10";"4";"1";"3";"3";"2";"1";"1";"[1,2,5]";"2";"0";"1"
"1107";"15";"5";"1";"9";"3";"2";"1";"1";"[6,7,8,10]";"1";"0";"1"
"1108";"19";"5";"1";"6";"3";"2";"1";"0";"[2,7,8,9,10]";"2";"0";"1"
"1109";"37";"5";"1";"7";"1";"2";"1";"1";"[6,8,9,10]";"1";"0";"1"
"1110";"31";"5";"1";"10";"3";"2";"1";"1";"[6,7,8,9]";"1";"0";"1"
"1111";"7";"5";"1";"10";"4";"2";"1";"2";"[6,7,8,9]";"1";"0";"1"
"1112";"27";"5";"1";"8";"3";"2";"1";"0";"[6,7,9,10]";"2";"0";"1"
"1113";"38";"5";"1";"9";"2";"2";"1";"1";"[6,7,8,10]";"2";"0";"1"
"1114";"11";"5";"1";"10";"1";"2";"1";"0";"[6,7,8,9]";"1";"0";"1"
"1115";"5";"5";"1";"1";"3";"2";"1";"0";"[2,3,4,5]";"2";"0";"1"
"1116";"19";"6";"1";"6";"3";"2";"1";"0";"[2,7,8,9,10]";"2";"0";"1"
"1117";"37";"6";"1";"7";"1";"2";"1";"1";"[6,8,9,10]";"1";"0";"1"
"1118";"9";"6";"1";"6";"1";"2";"1";"2";"[2,7,8,9,10]";"2";"0";"1"
"1119";"17";"6";"1";"9";"1";"2";"1";"2";"[6,7,8,10]";"2";"0";"1"
"1120";"33";"6";"1";"6";"2";"2";"1";"2";"[2,7,8,9,10]";"2";"0";"1"
"1121";"38";"6";"1";"9";"2";"2";"1";"1";"[6,7,8,10]";"2";"0";"1"
"1122";"16";"6";"1";"6";"4";"2";"1";"2";"[2,7,8,9,10]";"2";"0";"1"
"1123";"5";"6";"1";"1";"3";"2";"1";"0";"[2,3,4,5]";"2";"0";"1"
"1124";"9";"7";"1";"6";"1";"2";"1";"2";"[2,7,8,9,10]";"2";"0";"1"
"1125";"17";"7";"1";"9";"1";"2";"1";"2";"[6,7,8,10]";"2";"0";"1"
"1126";"21";"7";"1";"5";"1";"2";"1";"0";"[1,2,3,4]";"1";"0";"1"
"1127";"33";"7";"1";"6";"2";"2";"1";"2";"[2,7,8,9,10]";"2";"0";"1"
"1128";"30";"7";"1";"2";"1";"2";"1";"1";"[1,3,4,5,6]";"1";"0";"1"
"1129";"16";"7";"1";"6";"4";"2";"1";"2";"[2,7,8,9,10]";"2";"0";"1"
"1130";"22";"7";"1";"8";"2";"2";"1";"2";"[6,7,9,10]";"1";"0";"1"
"1131";"29";"8";"1";"4";"3";"2";"1";"1";"[1,2,5]";"1";"0";"1"
"1132";"21";"8";"1";"5";"1";"2";"1";"0";"[1,2,3,4]";"1";"0";"1"
"1133";"30";"8";"1";"2";"1";"2";"1";"1";"[1,3,4,5,6]";"1";"0";"1"
"1134";"22";"8";"1";"8";"2";"2";"1";"2";"[6,7,9,10]";"1";"0";"1"
"1135";"29";"9";"1";"4";"3";"2";"1";"1";"[1,2,5]";"1";"0";"1"
"1136";"3";"9";"1";"1";"2";"2";"1";"1";"[2,3,4,5]";"1";"0";"1"
"1137";"12";"9";"1";"5";"3";"2";"1";"1";"[1,2,3,4]";"1";"0";"1"
"1138";"39";"10";"1";"3";"1";"2";"1";"2";"[1,2,5]";"2";"0";"1"
"1139";"20";"10";"1";"1";"4";"2";"1";"0";"[2,3,4,5]";"2";"0";"1"
"1140";"3";"10";"1";"1";"2";"2";"1";"1";"[2,3,4,5]";"1";"0";"1"
"1141";"12";"10";"1";"5";"3";"2";"1";"1";"[1,2,3,4]";"1";"0";"1"
"1142";"39";"11";"1";"3";"1";"2";"1";"2";"[1,2,5]";"2";"0";"1"
"1143";"24";"11";"1";"4";"4";"2";"1";"1";"[1,2,5]";"1";"0";"1"
"1144";"20";"11";"1";"1";"4";"2";"1";"0";"[2,3,4,5]";"2";"0";"1"
"1145";"24";"12";"1";"4";"4";"2";"1";"1";"[1,2,5]";"1";"0";"1"
"1146";"32";"12";"1";"7";"2";"2";"1";"1";"[6,8,9,10]";"1";"0";"1"
"1147";"32";"13";"1";"7";"2";"2";"1";"1";"[6,8,9,10]";"1";"0";"1"
"1148";"1";"14";"1";"5";"4";"2";"1";"0";"[1,2,3,4]";"2";"0";"1"
"1149";"1";"15";"1";"5";"4";"2";"1";"0";"[1,2,3,4]";"2";"0";"1"
"1150";"26";"15";"1";"5";"2";"2";"1";"0";"[1,2,3,4]";"2";"0";"1"
"1151";"35";"16";"1";"7";"4";"2";"1";"0";"[6,8,9,10]";"2";"0";"1"
"1152";"26";"16";"1";"5";"2";"2";"1";"0";"[1,2,3,4]";"2";"0";"1"
"1153";"35";"17";"1";"7";"4";"2";"1";"0";"[6,8,9,10]";"2";"0";"1"
"1154";"4";"18";"1";"2";"2";"2";"1";"0";"[1,3,4,5,6]";"1";"0";"1"
"1155";"4";"19";"1";"2";"2";"2";"1";"0";"[1,3,4,5,6]";"1";"0";"1"
"1156";"40";"19";"1";"3";"4";"2";"1";"0";"[1,2,5]";"2";"0";"1"
"1157";"40";"20";"1";"3";"4";"2";"1";"0";"[1,2,5]";"2";"0";"1"
"1158";"2";"31";"1";"8";"4";"2";"1";"1";"[6,7,9,10]";"0";"0";"1"
"1159";"0";"30";"1";"8";"4";"2";"1";"1";"[6,7,9,10]";"2";"0";"0"
"1160";"30";"2";"1";"2";"1";"2";"2";"1";"[1,3,4,5,6]";"1";"0";"1"
"1161";"31";"34";"1";"10";"3";"2";"2";"1";"[6,7,8,9]";"1";"0";"1"
"1162";"39";"3";"1";"3";"1";"2";"2";"2";"[1,2,5]";"1";"0";"1"
"1163";"8";"34";"1";"3";"2";"2";"2";"1";"[1,2,5]";"1";"0";"1"
"1164";"18";"34";"1";"9";"4";"2";"2";"2";"[6,7,8,10]";"2";"0";"1"
"1165";"30";"3";"1";"2";"1";"2";"2";"1";"[1,3,4,5,6]";"1";"0";"1"
"1166";"9";"4";"1";"6";"1";"2";"2";"2";"[2,7,8,9,10]";"2";"0";"1"
"1167";"31";"35";"1";"10";"3";"2";"2";"1";"[6,7,8,9]";"1";"0";"1"
"1168";"39";"4";"1";"3";"1";"2";"2";"2";"[1,2,5]";"1";"0";"1"
"1169";"18";"35";"1";"9";"4";"2";"2";"2";"[6,7,8,10]";"2";"0";"1"
"1170";"8";"35";"1";"3";"2";"2";"2";"1";"[1,2,5]";"1";"0";"1"
"1171";"13";"35";"1";"2";"3";"2";"2";"1";"[1,3,4,5,6]";"1";"0";"1"
"1172";"36";"36";"1";"10";"2";"2";"2";"1";"[6,7,8,9]";"1";"0";"1"
"1173";"9";"5";"1";"6";"1";"2";"2";"2";"[2,7,8,9,10]";"2";"0";"1"
"1174";"13";"36";"1";"2";"3";"2";"2";"1";"[1,3,4,5,6]";"1";"0";"1"
"1175";"6";"37";"1";"4";"2";"2";"2";"0";"[1,2,5]";"2";"0";"1"
"1176";"36";"37";"1";"10";"2";"2";"2";"1";"[6,7,8,9]";"1";"0";"1"
"1177";"28";"6";"1";"8";"1";"2";"2";"2";"[6,7,9,10]";"2";"0";"1"
"1178";"34";"37";"1";"7";"3";"2";"2";"2";"[6,8,9,10]";"2";"0";"1"
"1179";"11";"6";"1";"10";"1";"2";"2";"0";"[6,7,8,9]";"2";"0";"1"
"1180";"16";"37";"1";"6";"4";"2";"2";"2";"[2,7,8,9,10]";"2";"0";"1"
"1181";"7";"37";"1";"10";"4";"2";"2";"2";"[6,7,8,9]";"1";"0";"1"
"1182";"22";"38";"1";"8";"2";"2";"2";"2";"[6,7,9,10]";"2";"0";"1"
"1183";"6";"38";"1";"4";"2";"2";"2";"0";"[1,2,5]";"2";"0";"1"
"1184";"25";"7";"1";"4";"1";"2";"2";"2";"[1,2,5]";"1";"0";"1"
"1185";"28";"7";"1";"8";"1";"2";"2";"2";"[6,7,9,10]";"2";"0";"1"
"1186";"34";"38";"1";"7";"3";"2";"2";"2";"[6,8,9,10]";"2";"0";"1"
"1187";"11";"7";"1";"10";"1";"2";"2";"0";"[6,7,8,9]";"2";"0";"1"
"1188";"16";"38";"1";"6";"4";"2";"2";"2";"[2,7,8,9,10]";"2";"0";"1"
"1189";"7";"38";"1";"10";"4";"2";"2";"2";"[6,7,8,9]";"1";"0";"1"
"1190";"22";"39";"1";"8";"2";"2";"2";"2";"[6,7,9,10]";"2";"0";"1"
"1191";"25";"8";"1";"4";"1";"2";"2";"2";"[1,2,5]";"1";"0";"1"
"1192";"17";"8";"1";"9";"1";"2";"2";"2";"[6,7,8,10]";"2";"0";"1"
"1193";"21";"8";"1";"5";"1";"2";"2";"0";"[1,2,3,4]";"1";"0";"1"
"1194";"40";"40";"1";"3";"4";"2";"2";"0";"[1,2,5]";"2";"0";"1"
"1195";"23";"40";"1";"2";"4";"2";"2";"1";"[1,3,4,5,6]";"1";"0";"1"
"1196";"15";"40";"1";"9";"3";"2";"2";"1";"[6,7,8,10]";"1";"0";"1"
"1197";"3";"40";"1";"1";"2";"2";"2";"1";"[2,3,4,5]";"1";"0";"1"
"1198";"12";"40";"1";"5";"3";"2";"2";"1";"[1,2,3,4]";"1";"0";"1"
"1199";"17";"9";"1";"9";"1";"2";"2";"2";"[6,7,8,10]";"2";"0";"1"
"1200";"21";"9";"1";"5";"1";"2";"2";"0";"[1,2,3,4]";"1";"0";"1"
"1201";"37";"9";"1";"7";"1";"2";"2";"1";"[6,8,9,10]";"2";"0";"1"
"1202";"29";"41";"1";"4";"3";"2";"2";"1";"[1,2,5]";"1";"0";"1"
"1203";"40";"41";"1";"3";"4";"2";"2";"0";"[1,2,5]";"2";"0";"1"
"1204";"23";"41";"1";"2";"4";"2";"2";"1";"[1,3,4,5,6]";"1";"0";"1"
"1205";"5";"41";"1";"1";"3";"2";"2";"0";"[2,3,4,5]";"2";"0";"1"
"1206";"15";"41";"1";"9";"3";"2";"2";"1";"[6,7,8,10]";"1";"0";"1"
"1207";"3";"41";"1";"1";"2";"2";"2";"1";"[2,3,4,5]";"1";"0";"1"
"1208";"12";"41";"1";"5";"3";"2";"2";"1";"[1,2,3,4]";"1";"0";"1"
"1209";"37";"10";"1";"7";"1";"2";"2";"1";"[6,8,9,10]";"2";"0";"1"
"1210";"29";"42";"1";"4";"3";"2";"2";"1";"[1,2,5]";"1";"0";"1"
"1211";"5";"42";"1";"1";"3";"2";"2";"0";"[2,3,4,5]";"2";"0";"1"
"1212";"27";"42";"1";"8";"3";"2";"2";"0";"[6,7,9,10]";"1";"0";"1"
"1213";"26";"43";"1";"5";"2";"2";"2";"0";"[1,2,3,4]";"1";"0";"1"
"1214";"27";"43";"1";"8";"3";"2";"2";"0";"[6,7,9,10]";"1";"0";"1"
"1215";"33";"44";"1";"6";"2";"2";"2";"2";"[2,7,8,9,10]";"1";"0";"1"
"1216";"26";"44";"1";"5";"2";"2";"2";"0";"[1,2,3,4]";"1";"0";"1"
"1217";"24";"44";"1";"4";"4";"2";"2";"1";"[1,2,5]";"1";"0";"1"
"1218";"33";"45";"1";"6";"2";"2";"2";"2";"[2,7,8,9,10]";"1";"0";"1"
"1219";"10";"45";"1";"3";"3";"2";"2";"1";"[1,2,5]";"1";"0";"1"
"1220";"24";"45";"1";"4";"4";"2";"2";"1";"[1,2,5]";"1";"0";"1"
"1221";"10";"46";"1";"3";"3";"2";"2";"1";"[1,2,5]";"1";"0";"1"
"1222";"38";"46";"1";"9";"2";"2";"2";"1";"[6,7,8,10]";"1";"0";"1"
"1223";"14";"16";"1";"1";"1";"2";"2";"1";"[2,3,4,5]";"1";"0";"1"
"1224";"19";"47";"1";"6";"3";"2";"2";"0";"[2,7,8,9,10]";"2";"0";"1"
"1225";"38";"47";"1";"9";"2";"2";"2";"1";"[6,7,8,10]";"1";"0";"1"
"1226";"14";"17";"1";"1";"1";"2";"2";"1";"[2,3,4,5]";"1";"0";"1"
"1227";"19";"48";"1";"6";"3";"2";"2";"0";"[2,7,8,9,10]";"2";"0";"1"
"1228";"35";"49";"1";"7";"4";"2";"2";"0";"[6,8,9,10]";"2";"0";"1"
"1229";"35";"50";"1";"7";"4";"2";"2";"0";"[6,8,9,10]";"2";"0";"1"
"1230";"1";"53";"1";"5";"4";"2";"2";"0";"[1,2,3,4]";"2";"0";"1"
"1231";"20";"53";"1";"1";"4";"2";"2";"0";"[2,3,4,5]";"1";"0";"1"
"1232";"1";"54";"1";"5";"4";"2";"2";"0";"[1,2,3,4]";"2";"0";"1"
"1233";"20";"54";"1";"1";"4";"2";"2";"0";"[2,3,4,5]";"1";"0";"1"
"1234";"32";"57";"1";"7";"2";"2";"2";"1";"[6,8,9,10]";"1";"0";"1"
"1235";"32";"58";"1";"7";"2";"2";"2";"1";"[6,8,9,10]";"1";"0";"1"
"1236";"4";"59";"1";"2";"2";"2";"2";"0";"[1,3,4,5,6]";"2";"0";"1"
"1237";"4";"60";"1";"2";"2";"2";"2";"0";"[1,3,4,5,6]";"2";"0";"1"
"1238";"2";"62";"1";"8";"4";"2";"2";"1";"[6,7,9,10]";"0";"0";"1"
"1239";"0";"30";"1";"8";"4";"2";"2";"1";"[6,7,9,10]";"2";"0";"0"
"1240";"18";"63";"1";"9";"4";"2";"3";"2";"[6,7,8,10]";"2";"0";"1"
"1241";"30";"1";"1";"2";"1";"2";"3";"1";"[1,3,4,5,6]";"1";"0";"1"
"1242";"31";"63";"1";"10";"3";"2";"3";"1";"[6,7,8,9]";"1";"0";"1"
"1243";"36";"63";"1";"10";"2";"2";"3";"1";"[6,7,8,9]";"1";"0";"1"
"1244";"13";"63";"1";"2";"3";"2";"3";"1";"[1,3,4,5,6]";"1";"0";"1"
"1245";"39";"1";"1";"3";"1";"2";"3";"2";"[1,2,5]";"1";"0";"1"
"1246";"28";"2";"1";"8";"1";"2";"3";"2";"[6,7,9,10]";"2";"0";"1"
"1247";"18";"64";"1";"9";"4";"2";"3";"2";"[6,7,8,10]";"2";"0";"1"
"1248";"30";"2";"1";"2";"1";"2";"3";"1";"[1,3,4,5,6]";"1";"0";"1"
"1249";"11";"2";"1";"10";"1";"2";"3";"0";"[6,7,8,9]";"2";"0";"1"
"1250";"31";"64";"1";"10";"3";"2";"3";"1";"[6,7,8,9]";"1";"0";"1"
"1251";"13";"64";"1";"2";"3";"2";"3";"1";"[1,3,4,5,6]";"1";"0";"1"
"1252";"36";"64";"1";"10";"2";"2";"3";"1";"[6,7,8,9]";"1";"0";"1"
"1253";"39";"2";"1";"3";"1";"2";"3";"2";"[1,2,5]";"1";"0";"1"
"1254";"25";"3";"1";"4";"1";"2";"3";"2";"[1,2,5]";"1";"0";"1"
"1255";"28";"3";"1";"8";"1";"2";"3";"2";"[6,7,9,10]";"2";"0";"1"
"1256";"22";"65";"1";"8";"2";"2";"3";"2";"[6,7,9,10]";"1";"0";"1"
"1257";"21";"3";"1";"5";"1";"2";"3";"0";"[1,2,3,4]";"1";"0";"1"
"1258";"9";"3";"1";"6";"1";"2";"3";"2";"[2,7,8,9,10]";"2";"0";"1"
"1259";"11";"3";"1";"10";"1";"2";"3";"0";"[6,7,8,9]";"2";"0";"1"
"1260";"14";"3";"1";"1";"1";"2";"3";"1";"[2,3,4,5]";"2";"0";"1"
"1261";"19";"65";"1";"6";"3";"2";"3";"0";"[2,7,8,9,10]";"1";"0";"1"
"1262";"25";"4";"1";"4";"1";"2";"3";"2";"[1,2,5]";"1";"0";"1"
"1263";"22";"66";"1";"8";"2";"2";"3";"2";"[6,7,9,10]";"1";"0";"1"
"1264";"21";"4";"1";"5";"1";"2";"3";"0";"[1,2,3,4]";"1";"0";"1"
"1265";"23";"66";"1";"2";"4";"2";"3";"1";"[1,3,4,5,6]";"1";"0";"1"
"1266";"32";"66";"1";"7";"2";"2";"3";"1";"[6,8,9,10]";"1";"0";"1"
"1267";"35";"66";"1";"7";"4";"2";"3";"0";"[6,8,9,10]";"2";"0";"1"
"1268";"9";"4";"1";"6";"1";"2";"3";"2";"[2,7,8,9,10]";"2";"0";"1"
"1269";"10";"66";"1";"3";"3";"2";"3";"1";"[1,2,5]";"1";"0";"1"
"1270";"14";"4";"1";"1";"1";"2";"3";"1";"[2,3,4,5]";"2";"0";"1"
"1271";"17";"4";"1";"9";"1";"2";"3";"2";"[6,7,8,10]";"2";"0";"1"
"1272";"19";"66";"1";"6";"3";"2";"3";"0";"[2,7,8,9,10]";"1";"0";"1"
"1273";"8";"66";"1";"3";"2";"2";"3";"1";"[1,2,5]";"1";"0";"1"
"1274";"16";"67";"1";"6";"4";"2";"3";"2";"[2,7,8,9,10]";"2";"0";"1"
"1275";"23";"67";"1";"2";"4";"2";"3";"1";"[1,3,4,5,6]";"1";"0";"1"
"1276";"32";"67";"1";"7";"2";"2";"3";"1";"[6,8,9,10]";"1";"0";"1"
"1277";"35";"67";"1";"7";"4";"2";"3";"0";"[6,8,9,10]";"2";"0";"1"
"1278";"34";"67";"1";"7";"3";"2";"3";"2";"[6,8,9,10]";"2";"0";"1"
"1279";"33";"67";"1";"6";"2";"2";"3";"2";"[2,7,8,9,10]";"1";"0";"1"
"1280";"10";"67";"1";"3";"3";"2";"3";"1";"[1,2,5]";"1";"0";"1"
"1281";"17";"5";"1";"9";"1";"2";"3";"2";"[6,7,8,10]";"2";"0";"1"
"1282";"8";"67";"1";"3";"2";"2";"3";"1";"[1,2,5]";"1";"0";"1"
"1283";"16";"68";"1";"6";"4";"2";"3";"2";"[2,7,8,9,10]";"2";"0";"1"
"1284";"27";"68";"1";"8";"3";"2";"3";"0";"[6,7,9,10]";"0";"1";"1"
"1285";"15";"68";"1";"9";"3";"2";"3";"1";"[6,7,8,10]";"1";"0";"1"
"1286";"29";"68";"1";"4";"3";"2";"3";"1";"[1,2,5]";"1";"0";"1"
"1287";"34";"68";"1";"7";"3";"2";"3";"2";"[6,8,9,10]";"2";"0";"1"
"1288";"33";"68";"1";"6";"2";"2";"3";"2";"[2,7,8,9,10]";"1";"0";"1"
"1289";"15";"69";"1";"9";"3";"2";"3";"1";"[6,7,8,10]";"1";"0";"1"
"1290";"29";"69";"1";"4";"3";"2";"3";"1";"[1,2,5]";"1";"0";"1"
"1291";"27";"69";"1";"8";"3";"2";"3";"0";"[6,7,9,10]";"0";"2";"1"
"1292";"6";"70";"1";"4";"2";"2";"3";"0";"[1,2,5]";"2";"0";"1"
"1293";"24";"70";"1";"4";"4";"2";"3";"1";"[1,2,5]";"1";"0";"1"
"1294";"6";"71";"1";"4";"2";"2";"3";"0";"[1,2,5]";"2";"0";"1"
"1295";"7";"71";"1";"10";"4";"2";"3";"2";"[6,7,8,9]";"1";"0";"1"
"1296";"1";"71";"1";"5";"4";"2";"3";"0";"[1,2,3,4]";"1";"0";"1"
"1297";"24";"71";"1";"4";"4";"2";"3";"1";"[1,2,5]";"1";"0";"1"
"1298";"37";"10";"1";"7";"1";"2";"3";"1";"[6,8,9,10]";"1";"0";"1"
"1299";"16";"72";"1";"6";"4";"2";"3";"2";"[2,7,8,9,10]";"2";"1";"1"
"1300";"3";"72";"1";"1";"2";"2";"3";"1";"[2,3,4,5]";"1";"0";"1"
"1301";"7";"72";"1";"10";"4";"2";"3";"2";"[6,7,8,9]";"1";"0";"1"
"1302";"1";"72";"1";"5";"4";"2";"3";"0";"[1,2,3,4]";"1";"0";"1"
"1303";"2";"73";"1";"8";"4";"2";"3";"1";"[6,7,9,10]";"2";"0";"1"
"1304";"27";"73";"1";"8";"3";"2";"3";"0";"[6,7,9,10]";"2";"2";"1"
"1305";"37";"11";"1";"7";"1";"2";"3";"1";"[6,8,9,10]";"1";"0";"1"
"1306";"3";"73";"1";"1";"2";"2";"3";"1";"[2,3,4,5]";"1";"0";"1"
"1307";"2";"74";"1";"8";"4";"2";"3";"1";"[6,7,9,10]";"2";"0";"1"
"1308";"16";"74";"1";"6";"4";"2";"3";"2";"[2,7,8,9,10]";"2";"4";"1"
"1309";"27";"74";"1";"8";"3";"2";"3";"0";"[6,7,9,10]";"2";"2";"1"
"1310";"40";"75";"1";"3";"4";"2";"3";"0";"[1,2,5]";"2";"0";"1"
"1311";"40";"76";"1";"3";"4";"2";"3";"0";"[1,2,5]";"2";"0";"1"
"1312";"16";"76";"1";"6";"4";"2";"3";"2";"[2,7,8,9,10]";"2";"1";"1"
"1313";"38";"76";"1";"9";"2";"2";"3";"1";"[6,7,8,10]";"1";"0";"1"
"1314";"38";"77";"1";"9";"2";"2";"3";"1";"[6,7,8,10]";"1";"0";"1"
"1315";"16";"78";"1";"6";"4";"2";"3";"2";"[2,7,8,9,10]";"2";"4";"1"
"1316";"4";"79";"1";"2";"2";"2";"3";"0";"[1,3,4,5,6]";"1";"0";"1"
"1317";"12";"79";"1";"5";"3";"2";"3";"1";"[1,2,3,4]";"1";"0";"1"
"1318";"4";"80";"1";"2";"2";"2";"3";"0";"[1,3,4,5,6]";"1";"0";"1"
"1319";"20";"80";"1";"1";"4";"2";"3";"0";"[2,3,4,5]";"1";"0";"1"
"1320";"12";"80";"1";"5";"3";"2";"3";"1";"[1,2,3,4]";"1";"0";"1"
"1321";"26";"80";"1";"5";"2";"2";"3";"0";"[1,2,3,4]";"2";"0";"1"
"1322";"20";"81";"1";"1";"4";"2";"3";"0";"[2,3,4,5]";"1";"0";"1"
"1323";"26";"81";"1";"5";"2";"2";"3";"0";"[1,2,3,4]";"2";"0";"1"
"1324";"5";"86";"1";"1";"3";"2";"3";"0";"[2,3,4,5]";"1";"0";"1"
"1325";"5";"87";"1";"1";"3";"2";"3";"0";"[2,3,4,5]";"1";"0";"1"
"1326";"30";"2";"1";"2";"1";"2";"4";"1";"[1,3,4,5,6]";"1";"0";"1"
"1327";"32";"89";"1";"7";"2";"2";"4";"1";"[6,8,9,10]";"1";"0";"1"
"1328";"18";"89";"1";"9";"4";"2";"4";"2";"[6,7,8,10]";"2";"0";"1"
"1329";"30";"3";"1";"2";"1";"2";"4";"1";"[1,3,4,5,6]";"1";"0";"1"
"1330";"9";"3";"1";"6";"1";"2";"4";"2";"[2,7,8,9,10]";"2";"0";"1"
"1331";"32";"90";"1";"7";"2";"2";"4";"1";"[6,8,9,10]";"1";"0";"1"
"1332";"36";"90";"1";"10";"2";"2";"4";"1";"[6,7,8,9]";"1";"0";"1"
"1333";"14";"3";"1";"1";"1";"2";"4";"1";"[2,3,4,5]";"1";"0";"1"
"1334";"11";"3";"1";"10";"1";"2";"4";"0";"[6,7,8,9]";"2";"0";"1"
"1335";"18";"90";"1";"9";"4";"2";"4";"2";"[6,7,8,10]";"2";"0";"1"
"1336";"10";"91";"1";"3";"3";"2";"4";"1";"[1,2,5]";"1";"0";"1"
"1337";"9";"4";"1";"6";"1";"2";"4";"2";"[2,7,8,9,10]";"2";"0";"1"
"1338";"36";"91";"1";"10";"2";"2";"4";"1";"[6,7,8,9]";"1";"0";"1"
"1339";"14";"4";"1";"1";"1";"2";"4";"1";"[2,3,4,5]";"1";"0";"1"
"1340";"11";"4";"1";"10";"1";"2";"4";"0";"[6,7,8,9]";"2";"0";"1"
"1341";"15";"91";"1";"9";"3";"2";"4";"1";"[6,7,8,10]";"1";"0";"1"
"1342";"29";"91";"1";"4";"3";"2";"4";"1";"[1,2,5]";"1";"0";"1"
"1343";"40";"91";"1";"3";"4";"2";"4";"0";"[1,2,5]";"1";"0";"1"
"1344";"8";"91";"1";"3";"2";"2";"4";"1";"[1,2,5]";"1";"0";"1"
"1345";"10";"92";"1";"3";"3";"2";"4";"1";"[1,2,5]";"1";"0";"1"
"1346";"5";"92";"1";"1";"3";"2";"4";"0";"[2,3,4,5]";"1";"0";"1"
"1347";"31";"92";"1";"10";"3";"2";"4";"1";"[6,7,8,9]";"1";"0";"1"
"1348";"33";"92";"1";"6";"2";"2";"4";"2";"[2,7,8,9,10]";"1";"0";"1"
"1349";"28";"5";"1";"8";"1";"2";"4";"2";"[6,7,9,10]";"2";"0";"1"
"1350";"24";"92";"1";"4";"4";"2";"4";"1";"[1,2,5]";"1";"0";"1"
"1351";"15";"92";"1";"9";"3";"2";"4";"1";"[6,7,8,10]";"1";"0";"1"
"1352";"29";"92";"1";"4";"3";"2";"4";"1";"[1,2,5]";"1";"0";"1"
"1353";"22";"92";"1";"8";"2";"2";"4";"2";"[6,7,9,10]";"1";"0";"1"
"1354";"13";"92";"1";"2";"3";"2";"4";"1";"[1,3,4,5,6]";"1";"0";"1"
"1355";"40";"92";"1";"3";"4";"2";"4";"0";"[1,2,5]";"1";"0";"1"
"1356";"8";"92";"1";"3";"2";"2";"4";"1";"[1,2,5]";"1";"0";"1"
"1357";"5";"93";"1";"1";"3";"2";"4";"0";"[2,3,4,5]";"1";"0";"1"
"1358";"31";"93";"1";"10";"3";"2";"4";"1";"[6,7,8,9]";"1";"0";"1"
"1359";"33";"93";"1";"6";"2";"2";"4";"2";"[2,7,8,9,10]";"1";"0";"1"
"1360";"28";"6";"1";"8";"1";"2";"4";"2";"[6,7,9,10]";"2";"0";"1"
"1361";"24";"93";"1";"4";"4";"2";"4";"1";"[1,2,5]";"1";"0";"1"
"1362";"25";"6";"1";"4";"1";"2";"4";"2";"[1,2,5]";"1";"0";"1"
"1363";"22";"93";"1";"8";"2";"2";"4";"2";"[6,7,9,10]";"1";"0";"1"
"1364";"27";"93";"1";"8";"3";"2";"4";"0";"[6,7,9,10]";"0";"2";"1"
"1365";"20";"93";"1";"1";"4";"2";"4";"0";"[2,3,4,5]";"1";"0";"1"
"1366";"13";"93";"1";"2";"3";"2";"4";"1";"[1,3,4,5,6]";"1";"0";"1"
"1367";"16";"94";"1";"6";"4";"2";"4";"2";"[2,7,8,9,10]";"0";"4";"1"
"1368";"25";"7";"1";"4";"1";"2";"4";"2";"[1,2,5]";"1";"0";"1"
"1369";"19";"94";"1";"6";"3";"2";"4";"0";"[2,7,8,9,10]";"1";"0";"1"
"1370";"20";"94";"1";"1";"4";"2";"4";"0";"[2,3,4,5]";"1";"0";"1"
"1371";"3";"94";"1";"1";"2";"2";"4";"1";"[2,3,4,5]";"0";"2";"1"
"1372";"38";"95";"1";"9";"2";"2";"4";"1";"[6,7,8,10]";"1";"0";"1"
"1373";"6";"95";"1";"4";"2";"2";"4";"0";"[1,2,5]";"2";"0";"1"
"1374";"19";"95";"1";"6";"3";"2";"4";"0";"[2,7,8,9,10]";"1";"0";"1"
"1375";"16";"95";"1";"6";"4";"2";"4";"2";"[2,7,8,9,10]";"0";"2";"1"
"1376";"38";"96";"1";"9";"2";"2";"4";"1";"[6,7,8,10]";"1";"0";"1"
"1377";"6";"96";"1";"4";"2";"2";"4";"0";"[1,2,5]";"2";"0";"1"
"1378";"27";"96";"1";"8";"3";"2";"4";"0";"[6,7,9,10]";"0";"3";"1"
"1379";"39";"9";"1";"3";"1";"2";"4";"2";"[1,2,5]";"1";"0";"1"
"1380";"23";"96";"1";"2";"4";"2";"4";"1";"[1,3,4,5,6]";"1";"0";"1"
"1381";"3";"96";"1";"1";"2";"2";"4";"1";"[2,3,4,5]";"0";"3";"1"
"1382";"16";"97";"1";"6";"4";"2";"4";"2";"[2,7,8,9,10]";"0";"1";"1"
"1383";"39";"10";"1";"3";"1";"2";"4";"2";"[1,2,5]";"1";"0";"1"
"1384";"21";"10";"1";"5";"1";"2";"4";"0";"[1,2,3,4]";"1";"0";"1"
"1385";"23";"97";"1";"2";"4";"2";"4";"1";"[1,3,4,5,6]";"1";"0";"1"
"1386";"17";"11";"1";"9";"1";"2";"4";"2";"[6,7,8,10]";"2";"0";"1"
"1387";"27";"98";"1";"8";"3";"2";"4";"0";"[6,7,9,10]";"0";"2";"1"
"1388";"34";"98";"1";"7";"3";"2";"4";"2";"[6,8,9,10]";"2";"0";"1"
"1389";"21";"11";"1";"5";"1";"2";"4";"0";"[1,2,3,4]";"1";"0";"1"
"1390";"3";"98";"1";"1";"2";"2";"4";"1";"[2,3,4,5]";"0";"1";"1"
"1391";"17";"12";"1";"9";"1";"2";"4";"2";"[6,7,8,10]";"2";"0";"1"
"1392";"16";"99";"1";"6";"4";"2";"4";"2";"[2,7,8,9,10]";"0";"3";"1"
"1393";"34";"99";"1";"7";"3";"2";"4";"2";"[6,8,9,10]";"2";"0";"1"
"1394";"27";"100";"1";"8";"3";"2";"4";"0";"[6,7,9,10]";"0";"3";"1"
"1395";"3";"100";"1";"1";"2";"2";"4";"1";"[2,3,4,5]";"0";"7";"1"
"1396";"35";"100";"1";"7";"4";"2";"4";"0";"[6,8,9,10]";"2";"0";"1"
"1397";"16";"101";"1";"6";"4";"2";"4";"2";"[2,7,8,9,10]";"0";"5";"1"
"1398";"27";"101";"1";"8";"3";"2";"4";"0";"[6,7,9,10]";"1";"3";"1"
"1399";"35";"101";"1";"7";"4";"2";"4";"0";"[6,8,9,10]";"2";"0";"1"
"1400";"27";"102";"1";"8";"3";"2";"4";"0";"[6,7,9,10]";"1";"3";"1"
"1401";"4";"102";"1";"2";"2";"2";"4";"0";"[1,3,4,5,6]";"1";"0";"1"
"1402";"37";"16";"1";"7";"1";"2";"4";"1";"[6,8,9,10]";"1";"0";"1"
"1403";"4";"103";"1";"2";"2";"2";"4";"0";"[1,3,4,5,6]";"1";"0";"1"
"1404";"6";"104";"1";"4";"2";"2";"4";"0";"[1,2,5]";"2";"1";"1"
"1405";"37";"17";"1";"7";"1";"2";"4";"1";"[6,8,9,10]";"1";"0";"1"
"1406";"12";"105";"1";"5";"3";"2";"4";"1";"[1,2,3,4]";"1";"0";"1"
"1407";"6";"105";"1";"4";"2";"2";"4";"0";"[1,2,5]";"2";"3";"1"
"1408";"3";"105";"1";"1";"2";"2";"4";"1";"[2,3,4,5]";"1";"7";"1"
"1409";"12";"106";"1";"5";"3";"2";"4";"1";"[1,2,3,4]";"1";"0";"1"
"1410";"6";"106";"1";"4";"2";"2";"4";"0";"[1,2,5]";"2";"4";"1"
"1411";"3";"106";"1";"1";"2";"2";"4";"1";"[2,3,4,5]";"1";"7";"1"
"1412";"26";"106";"1";"5";"2";"2";"4";"0";"[1,2,3,4]";"1";"0";"1"
"1413";"1";"106";"1";"5";"4";"2";"4";"0";"[1,2,3,4]";"1";"0";"1"
"1414";"7";"106";"1";"10";"4";"2";"4";"2";"[6,7,8,9]";"2";"0";"1"
"1415";"26";"107";"1";"5";"2";"2";"4";"0";"[1,2,3,4]";"1";"0";"1"
"1416";"1";"107";"1";"5";"4";"2";"4";"0";"[1,2,3,4]";"1";"0";"1"
"1417";"7";"107";"1";"10";"4";"2";"4";"2";"[6,7,8,9]";"2";"0";"1"
"1418";"16";"111";"1";"6";"4";"2";"4";"2";"[2,7,8,9,10]";"1";"5";"1"
"1419";"16";"112";"1";"6";"4";"2";"4";"2";"[2,7,8,9,10]";"1";"5";"1"
"1420";"2";"116";"1";"8";"4";"2";"4";"1";"[6,7,9,10]";"2";"0";"1"
"1421";"2";"117";"1";"8";"4";"2";"4";"1";"[6,7,9,10]";"2";"0";"1"
"1422";"11";"1";"1";"10";"1";"2";"5";"0";"[6,7,8,9]";"2";"0";"1"
"1423";"30";"2";"1";"2";"1";"2";"5";"1";"[1,3,4,5,6]";"1";"0";"1"
"1424";"32";"119";"1";"7";"2";"2";"5";"1";"[6,8,9,10]";"1";"0";"1"
"1425";"25";"2";"1";"4";"1";"2";"5";"2";"[1,2,5]";"1";"0";"1"
"1426";"13";"119";"1";"2";"3";"2";"5";"1";"[1,3,4,5,6]";"1";"0";"1"
"1427";"36";"119";"1";"10";"2";"2";"5";"1";"[6,7,8,9]";"1";"0";"1"
"1428";"18";"119";"1";"9";"4";"2";"5";"2";"[6,7,8,10]";"2";"0";"1"
"1429";"15";"119";"1";"9";"3";"2";"5";"1";"[6,7,8,10]";"1";"0";"1"
"1430";"21";"2";"1";"5";"1";"2";"5";"0";"[1,2,3,4]";"1";"0";"1"
"1431";"11";"2";"1";"10";"1";"2";"5";"0";"[6,7,8,9]";"2";"0";"1"
"1432";"30";"3";"1";"2";"1";"2";"5";"1";"[1,3,4,5,6]";"1";"0";"1"
"1433";"31";"120";"1";"10";"3";"2";"5";"1";"[6,7,8,9]";"1";"0";"1"
"1434";"32";"120";"1";"7";"2";"2";"5";"1";"[6,8,9,10]";"1";"0";"1"
"1435";"39";"3";"1";"3";"1";"2";"5";"2";"[1,2,5]";"1";"0";"1"
"1436";"25";"3";"1";"4";"1";"2";"5";"2";"[1,2,5]";"1";"0";"1"
"1437";"6";"120";"1";"4";"2";"2";"5";"0";"[1,2,5]";"1";"0";"1"
"1438";"13";"120";"1";"2";"3";"2";"5";"1";"[1,3,4,5,6]";"1";"0";"1"
"1439";"14";"3";"1";"1";"1";"2";"5";"1";"[2,3,4,5]";"1";"0";"1"
"1440";"34";"120";"1";"7";"3";"2";"5";"2";"[6,8,9,10]";"1";"0";"1"
"1441";"36";"120";"1";"10";"2";"2";"5";"1";"[6,7,8,9]";"1";"0";"1"
"1442";"19";"120";"1";"6";"3";"2";"5";"0";"[2,7,8,9,10]";"1";"0";"1"
"1443";"18";"120";"1";"9";"4";"2";"5";"2";"[6,7,8,10]";"2";"0";"1"
"1444";"9";"3";"1";"6";"1";"2";"5";"2";"[2,7,8,9,10]";"2";"0";"1"
"1445";"16";"120";"1";"6";"4";"2";"5";"2";"[2,7,8,9,10]";"0";"1";"1"
"1446";"8";"120";"1";"3";"2";"2";"5";"1";"[1,2,5]";"1";"0";"1"
"1447";"15";"120";"1";"9";"3";"2";"5";"1";"[6,7,8,10]";"1";"0";"1"
"1448";"21";"3";"1";"5";"1";"2";"5";"0";"[1,2,3,4]";"1";"0";"1"
"1449";"4";"121";"1";"2";"2";"2";"5";"0";"[1,3,4,5,6]";"1";"0";"1"
"1450";"31";"121";"1";"10";"3";"2";"5";"1";"[6,7,8,9]";"1";"0";"1"
"1451";"40";"121";"1";"3";"4";"2";"5";"0";"[1,2,5]";"1";"0";"1"
"1452";"28";"4";"1";"8";"1";"2";"5";"2";"[6,7,9,10]";"2";"0";"1"
"1453";"39";"4";"1";"3";"1";"2";"5";"2";"[1,2,5]";"1";"0";"1"
"1454";"6";"121";"1";"4";"2";"2";"5";"0";"[1,2,5]";"1";"0";"1"
"1455";"14";"4";"1";"1";"1";"2";"5";"1";"[2,3,4,5]";"1";"0";"1"
"1456";"27";"121";"1";"8";"3";"2";"5";"0";"[6,7,9,10]";"1";"0";"1"
"1457";"34";"121";"1";"7";"3";"2";"5";"2";"[6,8,9,10]";"1";"0";"1"
"1458";"22";"121";"1";"8";"2";"2";"5";"2";"[6,7,9,10]";"1";"0";"1"
"1459";"19";"121";"1";"6";"3";"2";"5";"0";"[2,7,8,9,10]";"1";"0";"1"
"1460";"3";"121";"1";"1";"2";"2";"5";"1";"[2,3,4,5]";"1";"0";"1"
"1461";"9";"4";"1";"6";"1";"2";"5";"2";"[2,7,8,9,10]";"2";"0";"1"
"1462";"16";"121";"1";"6";"4";"2";"5";"2";"[2,7,8,9,10]";"0";"2";"1"
"1463";"8";"121";"1";"3";"2";"2";"5";"1";"[1,2,5]";"1";"0";"1"
"1464";"17";"4";"1";"9";"1";"2";"5";"2";"[6,7,8,10]";"1";"0";"1"
"1465";"4";"122";"1";"2";"2";"2";"5";"0";"[1,3,4,5,6]";"1";"0";"1"
"1466";"40";"122";"1";"3";"4";"2";"5";"0";"[1,2,5]";"1";"0";"1"
"1467";"28";"5";"1";"8";"1";"2";"5";"2";"[6,7,9,10]";"2";"0";"1"
"1468";"33";"122";"1";"6";"2";"2";"5";"2";"[2,7,8,9,10]";"1";"0";"1"
"1469";"16";"122";"1";"6";"4";"2";"5";"2";"[2,7,8,9,10]";"0";"3";"1"
"1470";"27";"122";"1";"8";"3";"2";"5";"0";"[6,7,9,10]";"1";"0";"1"
"1471";"22";"122";"1";"8";"2";"2";"5";"2";"[6,7,9,10]";"1";"0";"1"
"1472";"3";"122";"1";"1";"2";"2";"5";"1";"[2,3,4,5]";"1";"0";"1"
"1473";"26";"122";"1";"5";"2";"2";"5";"0";"[1,2,3,4]";"1";"0";"1"
"1474";"17";"5";"1";"9";"1";"2";"5";"2";"[6,7,8,10]";"1";"0";"1"
"1475";"10";"122";"1";"3";"3";"2";"5";"1";"[1,2,5]";"0";"1";"1"
"1476";"33";"123";"1";"6";"2";"2";"5";"2";"[2,7,8,9,10]";"1";"0";"1"
"1477";"16";"123";"1";"6";"4";"2";"5";"2";"[2,7,8,9,10]";"0";"4";"1"
"1478";"35";"123";"1";"7";"4";"2";"5";"0";"[6,8,9,10]";"2";"0";"1"
"1479";"26";"123";"1";"5";"2";"2";"5";"0";"[1,2,3,4]";"1";"0";"1"
"1480";"2";"124";"1";"8";"4";"2";"5";"1";"[6,7,9,10]";"1";"0";"1"
"1481";"35";"124";"1";"7";"4";"2";"5";"0";"[6,8,9,10]";"2";"0";"1"
"1482";"24";"124";"1";"4";"4";"2";"5";"1";"[1,2,5]";"1";"0";"1"
"1483";"16";"125";"1";"6";"4";"2";"5";"2";"[2,7,8,9,10]";"0";"5";"1"
"1484";"2";"125";"1";"8";"4";"2";"5";"1";"[6,7,9,10]";"1";"0";"1"
"1485";"24";"125";"1";"4";"4";"2";"5";"1";"[1,2,5]";"1";"0";"1"
"1486";"37";"8";"1";"7";"1";"2";"5";"1";"[6,8,9,10]";"2";"0";"1"
"1487";"38";"125";"1";"9";"2";"2";"5";"1";"[6,7,8,10]";"1";"0";"1"
"1488";"10";"126";"1";"3";"3";"2";"5";"1";"[1,2,5]";"0";"3";"1"
"1489";"16";"126";"1";"6";"4";"2";"5";"2";"[2,7,8,9,10]";"2";"5";"1"
"1490";"7";"126";"1";"10";"4";"2";"5";"2";"[6,7,8,9]";"2";"0";"1"
"1491";"29";"126";"1";"4";"3";"2";"5";"1";"[1,2,5]";"1";"0";"1"
"1492";"37";"9";"1";"7";"1";"2";"5";"1";"[6,8,9,10]";"2";"0";"1"
"1493";"38";"126";"1";"9";"2";"2";"5";"1";"[6,7,8,10]";"1";"0";"1"
"1494";"16";"127";"1";"6";"4";"2";"5";"2";"[2,7,8,9,10]";"2";"5";"1"
"1495";"7";"127";"1";"10";"4";"2";"5";"2";"[6,7,8,9]";"2";"0";"1"
"1496";"29";"127";"1";"4";"3";"2";"5";"1";"[1,2,5]";"1";"0";"1"
"1497";"20";"127";"1";"1";"4";"2";"5";"0";"[2,3,4,5]";"1";"0";"1"
"1498";"20";"129";"1";"1";"4";"2";"5";"0";"[2,3,4,5]";"1";"0";"1"
"1499";"10";"129";"1";"3";"3";"2";"5";"1";"[1,2,5]";"1";"3";"1"
"1500";"23";"129";"1";"2";"4";"2";"5";"1";"[1,3,4,5,6]";"1";"0";"1"
"1501";"5";"130";"1";"1";"3";"2";"5";"0";"[2,3,4,5]";"1";"0";"1"
"1502";"10";"130";"1";"3";"3";"2";"5";"1";"[1,2,5]";"1";"3";"1"
"1503";"23";"130";"1";"2";"4";"2";"5";"1";"[1,3,4,5,6]";"1";"0";"1"
"1504";"5";"131";"1";"1";"3";"2";"5";"0";"[2,3,4,5]";"1";"0";"1"
"1505";"1";"131";"1";"5";"4";"2";"5";"0";"[1,2,3,4]";"1";"0";"1"
"1506";"12";"132";"1";"5";"3";"2";"5";"1";"[1,2,3,4]";"1";"0";"1"
"1507";"1";"132";"1";"5";"4";"2";"5";"0";"[1,2,3,4]";"1";"0";"1"
"1508";"12";"133";"1";"5";"3";"2";"5";"1";"[1,2,3,4]";"1";"0";"1"
"1509";"36";"134";"1";"10";"2";"2";"6";"1";"[6,7,8,9]";"1";"0";"1"
"1510";"20";"134";"1";"1";"4";"2";"6";"0";"[2,3,4,5]";"1";"0";"1"
"1511";"32";"134";"1";"7";"2";"2";"6";"1";"[6,8,9,10]";"1";"0";"1"
"1512";"27";"134";"1";"8";"3";"2";"6";"0";"[6,7,9,10]";"1";"0";"1"
"1513";"30";"1";"1";"2";"1";"2";"6";"1";"[1,3,4,5,6]";"1";"0";"1"
"1514";"21";"1";"1";"5";"1";"2";"6";"0";"[1,2,3,4]";"1";"0";"1"
"1515";"19";"135";"1";"6";"3";"2";"6";"0";"[2,7,8,9,10]";"1";"0";"1"
"1516";"15";"135";"1";"9";"3";"2";"6";"1";"[6,7,8,10]";"1";"0";"1"
"1517";"5";"135";"1";"1";"3";"2";"6";"0";"[2,3,4,5]";"1";"0";"1"
