"id";"id_subj";"time";"session";"id_grp";"grp";"round";"period";"sig";"links";"choice";"hist";"active"
"1";"2";"0";"1";"8";"1";"1";"1";"1";"[7,14,16]";"0";"0";"1"
"2";"7";"0";"1";"18";"1";"1";"1";"1";"[17,23]";"0";"0";"1"
"3";"25";"0";"1";"37";"1";"1";"1";"1";"[14,27,33]";"0";"0";"1"
"4";"31";"0";"1";"9";"1";"1";"1";"1";"[29,35]";"0";"0";"1"
"5";"24";"0";"1";"17";"1";"1";"1";"1";"[1,4,7,14,18,25,28,38]";"0";"0";"1"
"6";"39";"0";"1";"28";"1";"1";"1";"1";"[10,17,21,24,26,34]";"0";"0";"1"
"7";"34";"0";"1";"15";"1";"1";"1";"2";"[2,3,11,25]";"0";"0";"1"
"8";"1";"0";"1";"7";"1";"1";"1";"1";"[3,8,17,20]";"0";"0";"1"
"9";"18";"0";"1";"34";"1";"1";"1";"2";"[28]";"0";"0";"1"
"10";"8";"0";"1";"36";"1";"1";"1";"1";"[2,21,24,32]";"0";"0";"1"
"11";"32";"0";"1";"12";"1";"1";"1";"1";"[10,29]";"0";"0";"1"
"12";"15";"0";"1";"3";"1";"1";"1";"1";"[7,15,16,20,29,40]";"0";"0";"1"
"13";"33";"0";"1";"39";"1";"1";"1";"2";"[2,19,22,29]";"0";"0";"1"
"14";"35";"0";"1";"1";"1";"1";"1";"1";"[4,16,17]";"0";"0";"1"
"15";"40";"0";"1";"4";"1";"1";"1";"1";"[1,14,17,25]";"0";"0";"1"
"16";"14";"0";"1";"30";"1";"1";"1";"1";"[13]";"0";"0";"1"
"17";"37";"0";"1";"25";"1";"1";"1";"1";"[4,15,17,20,26]";"0";"0";"1"
"18";"11";"0";"1";"14";"1";"1";"1";"1";"[4,8,17,22,37,40]";"0";"0";"1"
"19";"27";"0";"1";"31";"1";"1";"1";"1";"[5,21,29]";"0";"0";"1"
"20";"10";"0";"1";"6";"1";"1";"1";"1";"[5,26,32]";"0";"0";"1"
"21";"9";"0";"1";"11";"1";"1";"1";"1";"[5,15,26,35]";"0";"0";"1"
"22";"3";"0";"1";"13";"1";"1";"1";"1";"[21,30]";"0";"0";"1"
"23";"6";"0";"1";"21";"1";"1";"1";"1";"[5,13,16,26,28,31,32,33,36]";"0";"0";"1"
"24";"23";"0";"1";"10";"1";"1";"1";"2";"[12,19,28,33,38]";"0";"0";"1"
"25";"36";"0";"1";"29";"1";"1";"1";"1";"[3,9,12,31,39]";"0";"0";"1"
"26";"21";"0";"1";"33";"1";"1";"1";"2";"[10,21,32,37]";"0";"0";"1"
"27";"16";"0";"1";"32";"1";"1";"1";"1";"[6,21,26,33,36]";"0";"0";"1"
"28";"28";"0";"1";"35";"1";"1";"1";"1";"[9,11]";"0";"0";"1"
"29";"13";"0";"1";"22";"1";"1";"1";"1";"[14,26,27,39]";"0";"0";"1"
"30";"5";"0";"1";"27";"1";"1";"1";"2";"[19,22,23,24,37]";"0";"0";"1"
"31";"4";"0";"1";"23";"1";"1";"1";"1";"[18,27,40]";"0";"0";"1"
"32";"30";"0";"1";"38";"1";"1";"1";"2";"[10,17]";"0";"0";"1"
"33";"17";"0";"1";"20";"1";"1";"1";"2";"[3,7,25]";"0";"0";"1"
"34";"38";"0";"1";"24";"1";"1";"1";"1";"[16,27,28,36]";"0";"0";"1"
"35";"20";"0";"1";"40";"1";"1";"1";"2";"[3,14,23,26]";"0";"0";"1"
"36";"22";"0";"1";"2";"1";"1";"1";"1";"[15,36,39]";"0";"0";"1"
"37";"26";"0";"1";"5";"1";"1";"1";"1";"[6,11,21,31]";"0";"0";"1"
"38";"19";"0";"1";"16";"1";"1";"1";"1";"[1,3,8,21,24]";"0";"0";"1"
"39";"12";"0";"1";"19";"1";"1";"1";"1";"[10,26,27,39]";"0";"0";"1"
"40";"29";"0";"1";"26";"1";"1";"1";"2";"[6,11,19,21,22,25,28,32,40]";"0";"0";"1"
"41";"40";"4";"1";"4";"1";"1";"1";"1";"[1,14,17,25]";"1";"0";"1"
"42";"25";"5";"1";"37";"1";"1";"1";"1";"[14,27,33]";"1";"0";"1"
"43";"34";"5";"1";"15";"1";"1";"1";"2";"[2,3,11,25]";"2";"0";"1"
"44";"21";"5";"1";"33";"1";"1";"1";"2";"[10,21,32,37]";"1";"0";"1"
"45";"40";"5";"1";"4";"1";"1";"1";"1";"[1,14,17,25]";"1";"0";"1"
"46";"33";"5";"1";"39";"1";"1";"1";"2";"[2,19,22,29]";"2";"0";"1"
"47";"25";"6";"1";"37";"1";"1";"1";"1";"[14,27,33]";"1";"0";"1"
"48";"16";"6";"1";"32";"1";"1";"1";"1";"[6,21,26,33,36]";"1";"0";"1"
"49";"11";"6";"1";"14";"1";"1";"1";"1";"[4,8,17,22,37,40]";"1";"0";"1"
"50";"34";"6";"1";"15";"1";"1";"1";"2";"[2,3,11,25]";"2";"0";"1"
"51";"6";"6";"1";"21";"1";"1";"1";"1";"[5,13,16,26,28,31,32,33,36]";"1";"0";"1"
"52";"21";"6";"1";"33";"1";"1";"1";"2";"[10,21,32,37]";"1";"0";"1"
"53";"33";"7";"1";"39";"1";"1";"1";"2";"[2,19,22,29]";"2";"0";"1"
"54";"16";"7";"1";"32";"1";"1";"1";"1";"[6,21,26,33,36]";"1";"0";"1"
"55";"11";"7";"1";"14";"1";"1";"1";"1";"[4,8,17,22,37,40]";"1";"0";"1"
"56";"6";"7";"1";"21";"1";"1";"1";"1";"[5,13,16,26,28,31,32,33,36]";"1";"0";"1"
"57";"19";"7";"1";"16";"1";"1";"1";"1";"[1,3,8,21,24]";"1";"0";"1"
"58";"38";"8";"1";"24";"1";"1";"1";"1";"[16,27,28,36]";"2";"0";"1"
"59";"31";"8";"1";"9";"1";"1";"1";"1";"[29,35]";"1";"0";"1"
"60";"22";"8";"1";"2";"1";"1";"1";"1";"[15,36,39]";"1";"0";"1"
"61";"19";"8";"1";"16";"1";"1";"1";"1";"[1,3,8,21,24]";"1";"0";"1"
"62";"38";"9";"1";"24";"1";"1";"1";"1";"[16,27,28,36]";"2";"0";"1"
"63";"1";"9";"1";"7";"1";"1";"1";"1";"[3,8,17,20]";"1";"0";"1"
"64";"30";"9";"1";"38";"1";"1";"1";"2";"[10,17]";"2";"0";"1"
"65";"31";"9";"1";"9";"1";"1";"1";"1";"[29,35]";"1";"0";"1"
"66";"22";"9";"1";"2";"1";"1";"1";"1";"[15,36,39]";"1";"0";"1"
"67";"7";"9";"1";"18";"1";"1";"1";"1";"[17,23]";"1";"0";"1"
"68";"20";"10";"1";"40";"1";"1";"1";"2";"[3,14,23,26]";"2";"0";"1"
"69";"37";"10";"1";"25";"1";"1";"1";"1";"[4,15,17,20,26]";"1";"0";"1"
"70";"1";"10";"1";"7";"1";"1";"1";"1";"[3,8,17,20]";"1";"0";"1"
"71";"28";"10";"1";"35";"1";"1";"1";"1";"[9,11]";"1";"0";"1"
"72";"30";"10";"1";"38";"1";"1";"1";"2";"[10,17]";"2";"0";"1"
"73";"8";"10";"1";"36";"1";"1";"1";"1";"[2,21,24,32]";"1";"0";"1"
"74";"7";"10";"1";"18";"1";"1";"1";"1";"[17,23]";"1";"0";"1"
"75";"20";"11";"1";"40";"1";"1";"1";"2";"[3,14,23,26]";"2";"0";"1"
"76";"37";"11";"1";"25";"1";"1";"1";"1";"[4,15,17,20,26]";"1";"0";"1"
"77";"28";"11";"1";"35";"1";"1";"1";"1";"[9,11]";"1";"0";"1"
"78";"8";"11";"1";"36";"1";"1";"1";"1";"[2,21,24,32]";"1";"0";"1"
"79";"13";"11";"1";"22";"1";"1";"1";"1";"[14,26,27,39]";"1";"0";"1"
"80";"10";"11";"1";"6";"1";"1";"1";"1";"[5,26,32]";"1";"0";"1"
"81";"13";"12";"1";"22";"1";"1";"1";"1";"[14,26,27,39]";"1";"0";"1"
"82";"39";"12";"1";"28";"1";"1";"1";"1";"[10,17,21,24,26,34]";"1";"0";"1"
"83";"10";"12";"1";"6";"1";"1";"1";"1";"[5,26,32]";"1";"0";"1"
"84";"32";"13";"1";"12";"1";"1";"1";"1";"[10,29]";"1";"0";"1"
"85";"39";"13";"1";"28";"1";"1";"1";"1";"[10,17,21,24,26,34]";"1";"0";"1"
"86";"32";"14";"1";"12";"1";"1";"1";"1";"[10,29]";"1";"0";"1"
"87";"26";"14";"1";"5";"1";"1";"1";"1";"[6,11,21,31]";"1";"0";"1"
"88";"24";"15";"1";"17";"1";"1";"1";"1";"[1,4,7,14,18,25,28,38]";"1";"0";"1"
"89";"26";"15";"1";"5";"1";"1";"1";"1";"[6,11,21,31]";"1";"0";"1"
"90";"29";"15";"1";"26";"1";"1";"1";"2";"[6,11,19,21,22,25,28,32,40]";"2";"0";"1"
"91";"27";"15";"1";"31";"1";"1";"1";"1";"[5,21,29]";"1";"0";"1"
"92";"23";"15";"1";"10";"1";"1";"1";"2";"[12,19,28,33,38]";"2";"0";"1"
"93";"15";"15";"1";"3";"1";"1";"1";"1";"[7,15,16,20,29,40]";"1";"0";"1"
"94";"17";"16";"1";"20";"1";"1";"1";"2";"[3,7,25]";"1";"0";"1"
"95";"24";"16";"1";"17";"1";"1";"1";"1";"[1,4,7,14,18,25,28,38]";"1";"0";"1"
"96";"29";"16";"1";"26";"1";"1";"1";"2";"[6,11,19,21,22,25,28,32,40]";"2";"0";"1"
"97";"27";"16";"1";"31";"1";"1";"1";"1";"[5,21,29]";"1";"0";"1"
"98";"23";"16";"1";"10";"1";"1";"1";"2";"[12,19,28,33,38]";"2";"0";"1"
"99";"15";"16";"1";"3";"1";"1";"1";"1";"[7,15,16,20,29,40]";"1";"0";"1"
"100";"17";"17";"1";"20";"1";"1";"1";"2";"[3,7,25]";"1";"0";"1"
"101";"12";"17";"1";"19";"1";"1";"1";"1";"[10,26,27,39]";"1";"0";"1"
"102";"4";"17";"1";"23";"1";"1";"1";"1";"[18,27,40]";"1";"0";"1"
"103";"5";"17";"1";"27";"1";"1";"1";"2";"[19,22,23,24,37]";"2";"0";"1"
"104";"9";"18";"1";"11";"1";"1";"1";"1";"[5,15,26,35]";"1";"0";"1"
"105";"3";"18";"1";"13";"1";"1";"1";"1";"[21,30]";"1";"0";"1"
"106";"12";"18";"1";"19";"1";"1";"1";"1";"[10,26,27,39]";"1";"0";"1"
"107";"4";"18";"1";"23";"1";"1";"1";"1";"[18,27,40]";"1";"0";"1"
"108";"5";"18";"1";"27";"1";"1";"1";"2";"[19,22,23,24,37]";"2";"0";"1"
"109";"35";"18";"1";"1";"1";"1";"1";"1";"[4,16,17]";"2";"0";"1"
"110";"9";"19";"1";"11";"1";"1";"1";"1";"[5,15,26,35]";"1";"0";"1"
"111";"3";"19";"1";"13";"1";"1";"1";"1";"[21,30]";"1";"0";"1"
"112";"14";"19";"1";"30";"1";"1";"1";"1";"[13]";"1";"0";"1"
"113";"35";"19";"1";"1";"1";"1";"1";"1";"[4,16,17]";"2";"0";"1"
"114";"18";"20";"1";"34";"1";"1";"1";"2";"[28]";"2";"0";"1"
"115";"36";"20";"1";"29";"1";"1";"1";"1";"[3,9,12,31,39]";"1";"0";"1"
"116";"14";"20";"1";"30";"1";"1";"1";"1";"[13]";"1";"0";"1"
"117";"2";"20";"1";"8";"1";"1";"1";"1";"[7,14,16]";"1";"0";"1"
"118";"18";"21";"1";"34";"1";"1";"1";"2";"[28]";"2";"0";"1"
"119";"36";"21";"1";"29";"1";"1";"1";"1";"[3,9,12,31,39]";"1";"0";"1"
"120";"2";"21";"1";"8";"1";"1";"1";"1";"[7,14,16]";"1";"0";"1"
"121";"25";"4";"1";"37";"1";"1";"2";"1";"[14,27,33]";"1";"0";"1"
"122";"16";"4";"1";"32";"1";"1";"2";"1";"[6,21,26,33,36]";"1";"0";"1"
"123";"11";"4";"1";"14";"1";"1";"2";"1";"[4,8,17,22,37,40]";"1";"0";"1"
"124";"7";"5";"1";"18";"1";"1";"2";"1";"[17,23]";"1";"0";"1"
"125";"25";"5";"1";"37";"1";"1";"2";"1";"[14,27,33]";"1";"0";"1"
"126";"16";"5";"1";"32";"1";"1";"2";"1";"[6,21,26,33,36]";"1";"0";"1"
"127";"21";"5";"1";"33";"1";"1";"2";"2";"[10,21,32,37]";"1";"0";"1"
"128";"6";"5";"1";"21";"1";"1";"2";"1";"[5,13,16,26,28,31,32,33,36]";"1";"0";"1"
"129";"17";"5";"1";"20";"1";"1";"2";"2";"[3,7,25]";"1";"0";"1"
"130";"11";"5";"1";"14";"1";"1";"2";"1";"[4,8,17,22,37,40]";"1";"0";"1"
"131";"8";"5";"1";"36";"1";"1";"2";"1";"[2,21,24,32]";"1";"0";"1"
"132";"7";"6";"1";"18";"1";"1";"2";"1";"[17,23]";"1";"0";"1"
"133";"38";"6";"1";"24";"1";"1";"2";"1";"[16,27,28,36]";"1";"0";"1"
"134";"21";"6";"1";"33";"1";"1";"2";"2";"[10,21,32,37]";"1";"0";"1"
"135";"14";"6";"1";"30";"1";"1";"2";"1";"[13]";"1";"0";"1"
"136";"1";"6";"1";"7";"1";"1";"2";"1";"[3,8,17,20]";"1";"0";"1"
"137";"39";"6";"1";"28";"1";"1";"2";"1";"[10,17,21,24,26,34]";"1";"0";"1"
"138";"6";"6";"1";"21";"1";"1";"2";"1";"[5,13,16,26,28,31,32,33,36]";"1";"0";"1"
"139";"17";"6";"1";"20";"1";"1";"2";"2";"[3,7,25]";"1";"0";"1"
"140";"30";"6";"1";"38";"1";"1";"2";"2";"[10,17]";"2";"0";"1"
"141";"8";"6";"1";"36";"1";"1";"2";"1";"[2,21,24,32]";"1";"0";"1"
"142";"3";"6";"1";"13";"1";"1";"2";"1";"[21,30]";"1";"0";"1"
"143";"31";"6";"1";"9";"1";"1";"2";"1";"[29,35]";"1";"0";"1"
"144";"19";"7";"1";"16";"1";"1";"2";"1";"[1,3,8,21,24]";"1";"0";"1"
"145";"38";"7";"1";"24";"1";"1";"2";"1";"[16,27,28,36]";"1";"0";"1"
"146";"14";"7";"1";"30";"1";"1";"2";"1";"[13]";"1";"0";"1"
"147";"1";"7";"1";"7";"1";"1";"2";"1";"[3,8,17,20]";"1";"0";"1"
"148";"39";"7";"1";"28";"1";"1";"2";"1";"[10,17,21,24,26,34]";"1";"0";"1"
"149";"40";"7";"1";"4";"1";"1";"2";"1";"[1,14,17,25]";"1";"0";"1"
"150";"24";"7";"1";"17";"1";"1";"2";"1";"[1,4,7,14,18,25,28,38]";"1";"0";"1"
"151";"30";"7";"1";"38";"1";"1";"2";"2";"[10,17]";"2";"0";"1"
"152";"3";"7";"1";"13";"1";"1";"2";"1";"[21,30]";"1";"0";"1"
"153";"31";"7";"1";"9";"1";"1";"2";"1";"[29,35]";"1";"0";"1"
"154";"32";"8";"1";"12";"1";"1";"2";"1";"[10,29]";"1";"0";"1"
"155";"19";"8";"1";"16";"1";"1";"2";"1";"[1,3,8,21,24]";"1";"0";"1"
"156";"40";"8";"1";"4";"1";"1";"2";"1";"[1,14,17,25]";"1";"0";"1"
"157";"24";"8";"1";"17";"1";"1";"2";"1";"[1,4,7,14,18,25,28,38]";"1";"0";"1"
"158";"32";"9";"1";"12";"1";"1";"2";"1";"[10,29]";"1";"0";"1"
"159";"26";"9";"1";"5";"1";"1";"2";"1";"[6,11,21,31]";"2";"0";"1"
"160";"35";"10";"1";"1";"1";"1";"2";"1";"[4,16,17]";"2";"0";"1"
"161";"22";"10";"1";"2";"1";"1";"2";"1";"[15,36,39]";"1";"0";"1"
"162";"34";"10";"1";"15";"1";"1";"2";"2";"[2,3,11,25]";"1";"0";"1"
"163";"26";"10";"1";"5";"1";"1";"2";"1";"[6,11,21,31]";"2";"0";"1"
"164";"2";"11";"1";"8";"1";"1";"2";"1";"[7,14,16]";"1";"0";"1"
"165";"35";"11";"1";"1";"1";"1";"2";"1";"[4,16,17]";"2";"0";"1"
"166";"10";"11";"1";"6";"1";"1";"2";"1";"[5,26,32]";"1";"0";"1"
"167";"22";"11";"1";"2";"1";"1";"2";"1";"[15,36,39]";"1";"0";"1"
"168";"34";"11";"1";"15";"1";"1";"2";"2";"[2,3,11,25]";"1";"0";"1"
"169";"28";"12";"1";"35";"1";"1";"2";"1";"[9,11]";"1";"0";"1"
"170";"2";"12";"1";"8";"1";"1";"2";"1";"[7,14,16]";"1";"0";"1"
"171";"27";"12";"1";"31";"1";"1";"2";"1";"[5,21,29]";"1";"0";"1"
"172";"20";"12";"1";"40";"1";"1";"2";"2";"[3,14,23,26]";"2";"0";"1"
"173";"10";"12";"1";"6";"1";"1";"2";"1";"[5,26,32]";"1";"0";"1"
"174";"15";"13";"1";"3";"1";"1";"2";"1";"[7,15,16,20,29,40]";"1";"0";"1"
"175";"28";"13";"1";"35";"1";"1";"2";"1";"[9,11]";"1";"0";"1"
"176";"27";"13";"1";"31";"1";"1";"2";"1";"[5,21,29]";"1";"0";"1"
"177";"20";"13";"1";"40";"1";"1";"2";"2";"[3,14,23,26]";"2";"0";"1"
"178";"36";"13";"1";"29";"1";"1";"2";"1";"[3,9,12,31,39]";"1";"0";"1"
"179";"5";"13";"1";"27";"1";"1";"2";"2";"[19,22,23,24,37]";"2";"0";"1"
"180";"15";"14";"1";"3";"1";"1";"2";"1";"[7,15,16,20,29,40]";"1";"0";"1"
"181";"36";"14";"1";"29";"1";"1";"2";"1";"[3,9,12,31,39]";"1";"0";"1"
"182";"18";"14";"1";"34";"1";"1";"2";"2";"[28]";"2";"0";"1"
"183";"5";"14";"1";"27";"1";"1";"2";"2";"[19,22,23,24,37]";"2";"0";"1"
"184";"18";"15";"1";"34";"1";"1";"2";"2";"[28]";"2";"0";"1"
"185";"12";"17";"1";"19";"1";"1";"2";"1";"[10,26,27,39]";"2";"0";"1"
"186";"23";"18";"1";"10";"1";"1";"2";"2";"[12,19,28,33,38]";"2";"0";"1"
"187";"37";"18";"1";"25";"1";"1";"2";"1";"[4,15,17,20,26]";"1";"0";"1"
"188";"29";"18";"1";"26";"1";"1";"2";"2";"[6,11,19,21,22,25,28,32,40]";"1";"0";"1"
"189";"12";"18";"1";"19";"1";"1";"2";"1";"[10,26,27,39]";"2";"0";"1"
"190";"23";"19";"1";"10";"1";"1";"2";"2";"[12,19,28,33,38]";"2";"0";"1"
"191";"37";"19";"1";"25";"1";"1";"2";"1";"[4,15,17,20,26]";"1";"0";"1"
"192";"33";"19";"1";"39";"1";"1";"2";"2";"[2,19,22,29]";"2";"0";"1"
"193";"29";"19";"1";"26";"1";"1";"2";"2";"[6,11,19,21,22,25,28,32,40]";"1";"0";"1"
"194";"33";"20";"1";"39";"1";"1";"2";"2";"[2,19,22,29]";"2";"0";"1"
"195";"9";"21";"1";"11";"1";"1";"2";"1";"[5,15,26,35]";"1";"0";"1"
"196";"9";"22";"1";"11";"1";"1";"2";"1";"[5,15,26,35]";"1";"0";"1"
"197";"13";"28";"1";"22";"1";"1";"2";"1";"[14,26,27,39]";"2";"0";"1"
"198";"13";"29";"1";"22";"1";"1";"2";"1";"[14,26,27,39]";"2";"0";"1"
"199";"4";"29";"1";"23";"1";"1";"2";"1";"[18,27,40]";"1";"0";"1"
"200";"4";"30";"1";"23";"1";"1";"2";"1";"[18,27,40]";"1";"0";"1"
"201";"24";"0";"1";"17";"1";"1";"3";"1";"[1,4,7,14,18,25,28,38]";"0";"2";"1"
"202";"24";"2";"1";"17";"1";"1";"3";"1";"[1,4,7,14,18,25,28,38]";"0";"1";"1"
"203";"25";"2";"1";"37";"1";"1";"3";"1";"[14,27,33]";"1";"0";"1"
"204";"40";"3";"1";"4";"1";"1";"3";"1";"[1,14,17,25]";"1";"0";"1"
"205";"7";"3";"1";"18";"1";"1";"3";"1";"[17,23]";"1";"0";"1"
"206";"24";"3";"1";"17";"1";"1";"3";"1";"[1,4,7,14,18,25,28,38]";"0";"2";"1"
"207";"25";"3";"1";"37";"1";"1";"3";"1";"[14,27,33]";"1";"0";"1"
"208";"34";"4";"1";"15";"1";"1";"3";"2";"[2,3,11,25]";"1";"0";"1"
"209";"11";"4";"1";"14";"1";"1";"3";"1";"[4,8,17,22,37,40]";"1";"0";"1"
"210";"27";"4";"1";"31";"1";"1";"3";"1";"[5,21,29]";"0";"1";"1"
"211";"40";"4";"1";"4";"1";"1";"3";"1";"[1,14,17,25]";"1";"0";"1"
"212";"7";"4";"1";"18";"1";"1";"3";"1";"[17,23]";"1";"0";"1"
"213";"24";"4";"1";"17";"1";"1";"3";"1";"[1,4,7,14,18,25,28,38]";"0";"4";"1"
"214";"6";"4";"1";"21";"1";"1";"3";"1";"[5,13,16,26,28,31,32,33,36]";"1";"0";"1"
"215";"31";"4";"1";"9";"1";"1";"3";"1";"[29,35]";"1";"0";"1"
"216";"22";"5";"1";"2";"1";"1";"3";"1";"[15,36,39]";"1";"0";"1"
"217";"19";"5";"1";"16";"1";"1";"3";"1";"[1,3,8,21,24]";"1";"0";"1"
"218";"34";"5";"1";"15";"1";"1";"3";"2";"[2,3,11,25]";"1";"0";"1"
"219";"11";"5";"1";"14";"1";"1";"3";"1";"[4,8,17,22,37,40]";"1";"0";"1"
"220";"26";"5";"1";"5";"1";"1";"3";"1";"[6,11,21,31]";"2";"0";"1"
"221";"6";"5";"1";"21";"1";"1";"3";"1";"[5,13,16,26,28,31,32,33,36]";"1";"0";"1"
"222";"27";"5";"1";"31";"1";"1";"3";"1";"[5,21,29]";"0";"2";"1"
"223";"31";"5";"1";"9";"1";"1";"3";"1";"[29,35]";"1";"0";"1"
"224";"18";"5";"1";"34";"1";"1";"3";"2";"[28]";"0";"1";"1"
"225";"22";"6";"1";"2";"1";"1";"3";"1";"[15,36,39]";"1";"0";"1"
"226";"30";"6";"1";"38";"1";"1";"3";"2";"[10,17]";"2";"0";"1"
"227";"19";"6";"1";"16";"1";"1";"3";"1";"[1,3,8,21,24]";"1";"0";"1"
"228";"1";"6";"1";"7";"1";"1";"3";"1";"[3,8,17,20]";"1";"0";"1"
"229";"26";"6";"1";"5";"1";"1";"3";"1";"[6,11,21,31]";"2";"0";"1"
"230";"39";"6";"1";"28";"1";"1";"3";"1";"[10,17,21,24,26,34]";"1";"0";"1"
"231";"21";"6";"1";"33";"1";"1";"3";"2";"[10,21,32,37]";"2";"0";"1"
"232";"18";"6";"1";"34";"1";"1";"3";"2";"[28]";"0";"2";"1"
"233";"30";"7";"1";"38";"1";"1";"3";"2";"[10,17]";"2";"0";"1"
"234";"15";"7";"1";"3";"1";"1";"3";"1";"[7,15,16,20,29,40]";"1";"0";"1"
"235";"1";"7";"1";"7";"1";"1";"3";"1";"[3,8,17,20]";"1";"0";"1"
"236";"16";"7";"1";"32";"1";"1";"3";"1";"[6,21,26,33,36]";"1";"0";"1"
"237";"18";"7";"1";"34";"1";"1";"3";"2";"[28]";"0";"3";"1"
"238";"39";"7";"1";"28";"1";"1";"3";"1";"[10,17,21,24,26,34]";"1";"0";"1"
"239";"17";"7";"1";"20";"1";"1";"3";"2";"[3,7,25]";"1";"0";"1"
"240";"21";"7";"1";"33";"1";"1";"3";"2";"[10,21,32,37]";"2";"0";"1"
"241";"35";"7";"1";"1";"1";"1";"3";"1";"[4,16,17]";"2";"0";"1"
"242";"32";"8";"1";"12";"1";"1";"3";"1";"[10,29]";"2";"0";"1"
"243";"15";"8";"1";"3";"1";"1";"3";"1";"[7,15,16,20,29,40]";"1";"0";"1"
"244";"16";"8";"1";"32";"1";"1";"3";"1";"[6,21,26,33,36]";"1";"0";"1"
"245";"24";"8";"1";"17";"1";"1";"3";"1";"[1,4,7,14,18,25,28,38]";"0";"1";"1"
"246";"3";"8";"1";"13";"1";"1";"3";"1";"[21,30]";"1";"0";"1"
"247";"17";"8";"1";"20";"1";"1";"3";"2";"[3,7,25]";"1";"0";"1"
"248";"12";"8";"1";"19";"1";"1";"3";"1";"[10,26,27,39]";"2";"0";"1"
"249";"35";"8";"1";"1";"1";"1";"3";"1";"[4,16,17]";"2";"0";"1"
"250";"38";"8";"1";"24";"1";"1";"3";"1";"[16,27,28,36]";"1";"0";"1"
"251";"23";"9";"1";"10";"1";"1";"3";"2";"[12,19,28,33,38]";"2";"0";"1"
"252";"33";"9";"1";"39";"1";"1";"3";"2";"[2,19,22,29]";"2";"0";"1"
"253";"32";"9";"1";"12";"1";"1";"3";"1";"[10,29]";"2";"0";"1"
"254";"18";"9";"1";"34";"1";"1";"3";"2";"[28]";"2";"3";"1"
"255";"2";"9";"1";"8";"1";"1";"3";"1";"[7,14,16]";"1";"0";"1"
"256";"24";"9";"1";"17";"1";"1";"3";"1";"[1,4,7,14,18,25,28,38]";"0";"2";"1"
"257";"3";"9";"1";"13";"1";"1";"3";"1";"[21,30]";"1";"0";"1"
"258";"14";"9";"1";"30";"1";"1";"3";"1";"[13]";"1";"0";"1"
"259";"12";"9";"1";"19";"1";"1";"3";"1";"[10,26,27,39]";"2";"0";"1"
"260";"38";"9";"1";"24";"1";"1";"3";"1";"[16,27,28,36]";"1";"0";"1"
"261";"23";"10";"1";"10";"1";"1";"3";"2";"[12,19,28,33,38]";"2";"0";"1"
"262";"33";"10";"1";"39";"1";"1";"3";"2";"[2,19,22,29]";"2";"0";"1"
"263";"18";"10";"1";"34";"1";"1";"3";"2";"[28]";"2";"3";"1"
"264";"36";"10";"1";"29";"1";"1";"3";"1";"[3,9,12,31,39]";"1";"0";"1"
"265";"5";"10";"1";"27";"1";"1";"3";"2";"[19,22,23,24,37]";"0";"1";"1"
"266";"24";"10";"1";"17";"1";"1";"3";"1";"[1,4,7,14,18,25,28,38]";"1";"2";"1"
"267";"2";"10";"1";"8";"1";"1";"3";"1";"[7,14,16]";"1";"0";"1"
"268";"10";"10";"1";"6";"1";"1";"3";"1";"[5,26,32]";"1";"0";"1"
"269";"14";"10";"1";"30";"1";"1";"3";"1";"[13]";"1";"0";"1"
"270";"20";"10";"1";"40";"1";"1";"3";"2";"[3,14,23,26]";"2";"0";"1"
"271";"36";"11";"1";"29";"1";"1";"3";"1";"[3,9,12,31,39]";"1";"0";"1"
"272";"28";"11";"1";"35";"1";"1";"3";"1";"[9,11]";"1";"0";"1"
"273";"24";"11";"1";"17";"1";"1";"3";"1";"[1,4,7,14,18,25,28,38]";"1";"2";"1"
"274";"10";"11";"1";"6";"1";"1";"3";"1";"[5,26,32]";"1";"0";"1"
"275";"20";"11";"1";"40";"1";"1";"3";"2";"[3,14,23,26]";"2";"0";"1"
"276";"28";"12";"1";"35";"1";"1";"3";"1";"[9,11]";"1";"0";"1"
"277";"37";"12";"1";"25";"1";"1";"3";"1";"[4,15,17,20,26]";"1";"0";"1"
"278";"8";"12";"1";"36";"1";"1";"3";"1";"[2,21,24,32]";"1";"0";"1"
"279";"37";"13";"1";"25";"1";"1";"3";"1";"[4,15,17,20,26]";"1";"0";"1"
"280";"8";"13";"1";"36";"1";"1";"3";"1";"[2,21,24,32]";"1";"0";"1"
"281";"5";"14";"1";"27";"1";"1";"3";"2";"[19,22,23,24,37]";"0";"2";"1"
"282";"29";"14";"1";"26";"1";"1";"3";"2";"[6,11,19,21,22,25,28,32,40]";"1";"0";"1"
"283";"29";"15";"1";"26";"1";"1";"3";"2";"[6,11,19,21,22,25,28,32,40]";"1";"0";"1"
"284";"9";"17";"1";"11";"1";"1";"3";"1";"[5,15,26,35]";"2";"0";"1"
"285";"5";"17";"1";"27";"1";"1";"3";"2";"[19,22,23,24,37]";"2";"2";"1"
"286";"13";"17";"1";"22";"1";"1";"3";"1";"[14,26,27,39]";"2";"0";"1"
"287";"9";"18";"1";"11";"1";"1";"3";"1";"[5,15,26,35]";"2";"0";"1"
"288";"5";"18";"1";"27";"1";"1";"3";"2";"[19,22,23,24,37]";"2";"2";"1"
"289";"13";"18";"1";"22";"1";"1";"3";"1";"[14,26,27,39]";"2";"0";"1"
"290";"27";"20";"1";"31";"1";"1";"3";"1";"[5,21,29]";"1";"2";"1"
"291";"27";"21";"1";"31";"1";"1";"3";"1";"[5,21,29]";"1";"2";"1"
"292";"4";"29";"1";"23";"1";"1";"3";"1";"[18,27,40]";"1";"0";"1"
"293";"4";"30";"1";"23";"1";"1";"3";"1";"[18,27,40]";"1";"0";"1"
"294";"30";"1";"1";"38";"1";"1";"4";"2";"[10,17]";"2";"0";"1"
"295";"30";"2";"1";"38";"1";"1";"4";"2";"[10,17]";"2";"0";"1"
"296";"11";"2";"1";"14";"1";"1";"4";"1";"[4,8,17,22,37,40]";"1";"0";"1"
"297";"7";"3";"1";"18";"1";"1";"4";"1";"[17,23]";"1";"0";"1"
"298";"6";"3";"1";"21";"1";"1";"4";"1";"[5,13,16,26,28,31,32,33,36]";"1";"0";"1"
"299";"8";"3";"1";"36";"1";"1";"4";"1";"[2,21,24,32]";"1";"0";"1"
"300";"11";"3";"1";"14";"1";"1";"4";"1";"[4,8,17,22,37,40]";"1";"0";"1"
"301";"21";"3";"1";"33";"1";"1";"4";"2";"[10,21,32,37]";"2";"0";"1"
"302";"7";"4";"1";"18";"1";"1";"4";"1";"[17,23]";"1";"0";"1"
"303";"6";"4";"1";"21";"1";"1";"4";"1";"[5,13,16,26,28,31,32,33,36]";"1";"0";"1"
"304";"8";"4";"1";"36";"1";"1";"4";"1";"[2,21,24,32]";"1";"0";"1"
"305";"23";"4";"1";"10";"1";"1";"4";"2";"[12,19,28,33,38]";"2";"0";"1"
"306";"34";"4";"1";"15";"1";"1";"4";"2";"[2,3,11,25]";"1";"0";"1"
"307";"13";"4";"1";"22";"1";"1";"4";"1";"[14,26,27,39]";"1";"0";"1"
"308";"10";"4";"1";"6";"1";"1";"4";"1";"[5,26,32]";"1";"0";"1"
"309";"21";"4";"1";"33";"1";"1";"4";"2";"[10,21,32,37]";"2";"0";"1"
"310";"39";"5";"1";"28";"1";"1";"4";"1";"[10,17,21,24,26,34]";"1";"0";"1"
"311";"22";"5";"1";"2";"1";"1";"4";"1";"[15,36,39]";"1";"0";"1"
"312";"34";"5";"1";"15";"1";"1";"4";"2";"[2,3,11,25]";"1";"0";"1"
"313";"23";"5";"1";"10";"1";"1";"4";"2";"[12,19,28,33,38]";"2";"0";"1"
"314";"13";"5";"1";"22";"1";"1";"4";"1";"[14,26,27,39]";"1";"0";"1"
"315";"10";"5";"1";"6";"1";"1";"4";"1";"[5,26,32]";"1";"0";"1"
"316";"26";"5";"1";"5";"1";"1";"4";"1";"[6,11,21,31]";"2";"0";"1"
"317";"19";"6";"1";"16";"1";"1";"4";"1";"[1,3,8,21,24]";"1";"0";"1"
"318";"2";"6";"1";"8";"1";"1";"4";"1";"[7,14,16]";"2";"0";"1"
"319";"38";"6";"1";"24";"1";"1";"4";"1";"[16,27,28,36]";"1";"0";"1"
"320";"39";"6";"1";"28";"1";"1";"4";"1";"[10,17,21,24,26,34]";"1";"0";"1"
"321";"22";"6";"1";"2";"1";"1";"4";"1";"[15,36,39]";"1";"0";"1"
"322";"18";"6";"1";"34";"1";"1";"4";"2";"[28]";"0";"2";"1"
"323";"26";"7";"1";"5";"1";"1";"4";"1";"[6,11,21,31]";"2";"0";"1"
"324";"19";"7";"1";"16";"1";"1";"4";"1";"[1,3,8,21,24]";"1";"0";"1"
"325";"2";"7";"1";"8";"1";"1";"4";"1";"[7,14,16]";"2";"0";"1"
"326";"18";"7";"1";"34";"1";"1";"4";"2";"[28]";"0";"1";"1"
"327";"38";"7";"1";"24";"1";"1";"4";"1";"[16,27,28,36]";"1";"0";"1"
"328";"1";"7";"1";"7";"1";"1";"4";"1";"[3,8,17,20]";"1";"0";"1"
"329";"35";"7";"1";"1";"1";"1";"4";"1";"[4,16,17]";"1";"0";"1"
"330";"18";"7";"1";"34";"1";"1";"4";"2";"[28]";"0";"3";"1"
"331";"25";"7";"1";"37";"1";"1";"4";"1";"[14,27,33]";"1";"0";"1"
"332";"5";"7";"1";"27";"1";"1";"4";"2";"[19,22,23,24,37]";"2";"0";"1"
"333";"17";"8";"1";"20";"1";"1";"4";"2";"[3,7,25]";"1";"0";"1"
"334";"1";"8";"1";"7";"1";"1";"4";"1";"[3,8,17,20]";"1";"0";"1"
"335";"35";"8";"1";"1";"1";"1";"4";"1";"[4,16,17]";"1";"0";"1"
"336";"18";"8";"1";"34";"1";"1";"4";"2";"[28]";"0";"6";"1"
"337";"25";"8";"1";"37";"1";"1";"4";"1";"[14,27,33]";"1";"0";"1"
"338";"5";"8";"1";"27";"1";"1";"4";"2";"[19,22,23,24,37]";"2";"0";"1"
"339";"17";"9";"1";"20";"1";"1";"4";"2";"[3,7,25]";"1";"0";"1"
"340";"15";"9";"1";"3";"1";"1";"4";"1";"[7,15,16,20,29,40]";"1";"0";"1"
"341";"40";"9";"1";"4";"1";"1";"4";"1";"[1,14,17,25]";"1";"0";"1"
"342";"3";"9";"1";"13";"1";"1";"4";"1";"[21,30]";"1";"0";"1"
"343";"18";"9";"1";"34";"1";"1";"4";"2";"[28]";"0";"4";"1"
"344";"24";"9";"1";"17";"1";"1";"4";"1";"[1,4,7,14,18,25,28,38]";"1";"0";"1"
"345";"33";"9";"1";"39";"1";"1";"4";"2";"[2,19,22,29]";"2";"0";"1"
"346";"40";"10";"1";"4";"1";"1";"4";"1";"[1,14,17,25]";"1";"0";"1"
"347";"15";"10";"1";"3";"1";"1";"4";"1";"[7,15,16,20,29,40]";"1";"0";"1"
"348";"28";"10";"1";"35";"1";"1";"4";"1";"[9,11]";"1";"0";"1"
"349";"3";"10";"1";"13";"1";"1";"4";"1";"[21,30]";"1";"0";"1"
"350";"4";"10";"1";"23";"1";"1";"4";"1";"[18,27,40]";"0";"2";"1"
"351";"20";"10";"1";"40";"1";"1";"4";"2";"[3,14,23,26]";"2";"0";"1"
"352";"24";"10";"1";"17";"1";"1";"4";"1";"[1,4,7,14,18,25,28,38]";"1";"0";"1"
"353";"33";"11";"1";"39";"1";"1";"4";"2";"[2,19,22,29]";"2";"0";"1"
"354";"32";"11";"1";"12";"1";"1";"4";"1";"[10,29]";"1";"0";"1"
"355";"28";"11";"1";"35";"1";"1";"4";"1";"[9,11]";"1";"0";"1"
"356";"14";"11";"1";"30";"1";"1";"4";"1";"[13]";"1";"0";"1"
"357";"20";"11";"1";"40";"1";"1";"4";"2";"[3,14,23,26]";"2";"0";"1"
"358";"32";"12";"1";"12";"1";"1";"4";"1";"[10,29]";"1";"0";"1"
"359";"18";"12";"1";"34";"1";"1";"4";"2";"[28]";"1";"4";"1"
"360";"14";"12";"1";"30";"1";"1";"4";"1";"[13]";"1";"0";"1"
"361";"12";"12";"1";"19";"1";"1";"4";"1";"[10,26,27,39]";"2";"0";"1"
"362";"4";"13";"1";"23";"1";"1";"4";"1";"[18,27,40]";"0";"1";"1"
"363";"18";"13";"1";"34";"1";"1";"4";"2";"[28]";"1";"4";"1"
"364";"12";"13";"1";"19";"1";"1";"4";"1";"[10,26,27,39]";"2";"0";"1"
"365";"36";"13";"1";"29";"1";"1";"4";"1";"[3,9,12,31,39]";"1";"0";"1"
"366";"36";"14";"1";"29";"1";"1";"4";"1";"[3,9,12,31,39]";"1";"0";"1"
"367";"16";"14";"1";"32";"1";"1";"4";"1";"[6,21,26,33,36]";"1";"0";"1"
"368";"31";"14";"1";"9";"1";"1";"4";"1";"[29,35]";"1";"0";"1"
"369";"4";"15";"1";"23";"1";"1";"4";"1";"[18,27,40]";"0";"3";"1"
"370";"16";"15";"1";"32";"1";"1";"4";"1";"[6,21,26,33,36]";"1";"0";"1"
"371";"31";"15";"1";"9";"1";"1";"4";"1";"[29,35]";"1";"0";"1"
"372";"4";"17";"1";"23";"1";"1";"4";"1";"[18,27,40]";"0";"4";"1"
"373";"29";"21";"1";"26";"1";"1";"4";"2";"[6,11,19,21,22,25,28,32,40]";"1";"0";"1"
"374";"29";"22";"1";"26";"1";"1";"4";"2";"[6,11,19,21,22,25,28,32,40]";"1";"0";"1"
"375";"9";"23";"1";"11";"1";"1";"4";"1";"[5,15,26,35]";"1";"0";"1"
"376";"9";"24";"1";"11";"1";"1";"4";"1";"[5,15,26,35]";"1";"0";"1"
"377";"37";"27";"1";"25";"1";"1";"4";"1";"[4,15,17,20,26]";"2";"0";"1"
"378";"37";"28";"1";"25";"1";"1";"4";"1";"[4,15,17,20,26]";"2";"0";"1"
"379";"4";"29";"1";"23";"1";"1";"4";"1";"[18,27,40]";"1";"4";"1"
"380";"27";"29";"1";"31";"1";"1";"4";"1";"[5,21,29]";"1";"0";"1"
"381";"15";"30";"1";"3";"1";"1";"4";"1";"[7,15,16,20,29,40]";"1";"1";"1"
"382";"4";"30";"1";"23";"1";"1";"4";"1";"[18,27,40]";"1";"4";"1"
"383";"27";"30";"1";"31";"1";"1";"4";"1";"[5,21,29]";"1";"0";"1"
"384";"31";"2";"1";"9";"1";"1";"5";"1";"[29,35]";"1";"0";"1"
"385";"39";"3";"1";"28";"1";"1";"5";"1";"[10,17,21,24,26,34]";"1";"0";"1"
"386";"37";"3";"1";"25";"1";"1";"5";"1";"[4,15,17,20,26]";"2";"0";"1"
"387";"26";"3";"1";"5";"1";"1";"5";"1";"[6,11,21,31]";"1";"0";"1"
"388";"31";"3";"1";"9";"1";"1";"5";"1";"[29,35]";"1";"0";"1"
"389";"34";"4";"1";"15";"1";"1";"5";"2";"[2,3,11,25]";"1";"0";"1"
"390";"21";"4";"1";"33";"1";"1";"5";"2";"[10,21,32,37]";"2";"0";"1"
"391";"7";"4";"1";"18";"1";"1";"5";"1";"[17,23]";"1";"0";"1"
"392";"38";"4";"1";"24";"1";"1";"5";"1";"[16,27,28,36]";"1";"0";"1"
"393";"35";"4";"1";"1";"1";"1";"5";"1";"[4,16,17]";"2";"0";"1"
"394";"39";"4";"1";"28";"1";"1";"5";"1";"[10,17,21,24,26,34]";"1";"0";"1"
"395";"25";"4";"1";"37";"1";"1";"5";"1";"[14,27,33]";"1";"0";"1"
"396";"37";"4";"1";"25";"1";"1";"5";"1";"[4,15,17,20,26]";"2";"0";"1"
"397";"26";"4";"1";"5";"1";"1";"5";"1";"[6,11,21,31]";"1";"0";"1"
"398";"23";"4";"1";"10";"1";"1";"5";"2";"[12,19,28,33,38]";"2";"0";"1"
"399";"34";"5";"1";"15";"1";"1";"5";"2";"[2,3,11,25]";"1";"0";"1"
"400";"21";"5";"1";"33";"1";"1";"5";"2";"[10,21,32,37]";"2";"0";"1"
"401";"22";"5";"1";"2";"1";"1";"5";"1";"[15,36,39]";"1";"0";"1"
"402";"7";"5";"1";"18";"1";"1";"5";"1";"[17,23]";"1";"0";"1"
"403";"17";"5";"1";"20";"1";"1";"5";"2";"[3,7,25]";"2";"0";"1"
"404";"38";"5";"1";"24";"1";"1";"5";"1";"[16,27,28,36]";"1";"0";"1"
"405";"35";"5";"1";"1";"1";"1";"5";"1";"[4,16,17]";"2";"0";"1"
"406";"25";"5";"1";"37";"1";"1";"5";"1";"[14,27,33]";"1";"0";"1"
"407";"3";"5";"1";"13";"1";"1";"5";"1";"[21,30]";"1";"0";"1"
"408";"23";"5";"1";"10";"1";"1";"5";"2";"[12,19,28,33,38]";"2";"0";"1"
"409";"22";"6";"1";"2";"1";"1";"5";"1";"[15,36,39]";"1";"0";"1"
"410";"20";"6";"1";"40";"1";"1";"5";"2";"[3,14,23,26]";"2";"0";"1"
"411";"19";"6";"1";"16";"1";"1";"5";"1";"[1,3,8,21,24]";"1";"0";"1"
"412";"17";"6";"1";"20";"1";"1";"5";"2";"[3,7,25]";"2";"0";"1"
"413";"30";"6";"1";"38";"1";"1";"5";"2";"[10,17]";"2";"0";"1"
"414";"40";"6";"1";"4";"1";"1";"5";"1";"[1,14,17,25]";"1";"0";"1"
"415";"3";"6";"1";"13";"1";"1";"5";"1";"[21,30]";"1";"0";"1"
"416";"15";"6";"1";"3";"1";"1";"5";"1";"[7,15,16,20,29,40]";"1";"0";"1"
"417";"32";"6";"1";"12";"1";"1";"5";"1";"[10,29]";"1";"0";"1"
"418";"6";"6";"1";"21";"1";"1";"5";"1";"[5,13,16,26,28,31,32,33,36]";"1";"0";"1"
"419";"10";"6";"1";"6";"1";"1";"5";"1";"[5,26,32]";"1";"0";"1"
"420";"1";"7";"1";"7";"1";"1";"5";"1";"[3,8,17,20]";"1";"0";"1"
"421";"20";"7";"1";"40";"1";"1";"5";"2";"[3,14,23,26]";"2";"0";"1"
"422";"9";"7";"1";"11";"1";"1";"5";"1";"[5,15,26,35]";"0";"3";"1"
"423";"19";"7";"1";"16";"1";"1";"5";"1";"[1,3,8,21,24]";"1";"0";"1"
"424";"30";"7";"1";"38";"1";"1";"5";"2";"[10,17]";"2";"0";"1"
"425";"28";"7";"1";"35";"1";"1";"5";"1";"[9,11]";"1";"0";"1"
"426";"40";"7";"1";"4";"1";"1";"5";"1";"[1,14,17,25]";"1";"0";"1"
"427";"15";"7";"1";"3";"1";"1";"5";"1";"[7,15,16,20,29,40]";"1";"0";"1"
"428";"32";"7";"1";"12";"1";"1";"5";"1";"[10,29]";"1";"0";"1"
"429";"18";"7";"1";"34";"1";"1";"5";"2";"[28]";"0";"3";"1"
"430";"6";"7";"1";"21";"1";"1";"5";"1";"[5,13,16,26,28,31,32,33,36]";"1";"0";"1"
"431";"10";"7";"1";"6";"1";"1";"5";"1";"[5,26,32]";"1";"0";"1"
"432";"1";"8";"1";"7";"1";"1";"5";"1";"[3,8,17,20]";"1";"0";"1"
"433";"36";"8";"1";"29";"1";"1";"5";"1";"[3,9,12,31,39]";"1";"0";"1"
"434";"27";"8";"1";"31";"1";"1";"5";"1";"[5,21,29]";"1";"0";"1"
"435";"28";"8";"1";"35";"1";"1";"5";"1";"[9,11]";"1";"0";"1"
"436";"16";"8";"1";"32";"1";"1";"5";"1";"[6,21,26,33,36]";"1";"0";"1"
"437";"18";"8";"1";"34";"1";"1";"5";"2";"[28]";"0";"1";"1"
"438";"8";"8";"1";"36";"1";"1";"5";"1";"[2,21,24,32]";"1";"0";"1"
"439";"36";"9";"1";"29";"1";"1";"5";"1";"[3,9,12,31,39]";"1";"0";"1"
"440";"27";"9";"1";"31";"1";"1";"5";"1";"[5,21,29]";"1";"0";"1"
"441";"9";"9";"1";"11";"1";"1";"5";"1";"[5,15,26,35]";"0";"2";"1"
"442";"16";"9";"1";"32";"1";"1";"5";"1";"[6,21,26,33,36]";"1";"0";"1"
"443";"18";"9";"1";"34";"1";"1";"5";"2";"[28]";"0";"4";"1"
"444";"8";"9";"1";"36";"1";"1";"5";"1";"[2,21,24,32]";"1";"0";"1"
"445";"14";"9";"1";"30";"1";"1";"5";"1";"[13]";"1";"0";"1"
"446";"9";"10";"1";"11";"1";"1";"5";"1";"[5,15,26,35]";"0";"1";"1"
"447";"18";"10";"1";"34";"1";"1";"5";"2";"[28]";"0";"3";"1"
"448";"2";"10";"1";"8";"1";"1";"5";"1";"[7,14,16]";"1";"0";"1"
"449";"14";"10";"1";"30";"1";"1";"5";"1";"[13]";"1";"0";"1"
"450";"18";"11";"1";"34";"1";"1";"5";"2";"[28]";"0";"4";"1"
"451";"2";"11";"1";"8";"1";"1";"5";"1";"[7,14,16]";"1";"0";"1"
"452";"13";"12";"1";"22";"1";"1";"5";"1";"[14,26,27,39]";"1";"0";"1"
"453";"18";"13";"1";"34";"1";"1";"5";"2";"[28]";"2";"4";"1"
"454";"11";"13";"1";"14";"1";"1";"5";"1";"[4,8,17,22,37,40]";"1";"0";"1"
"455";"13";"13";"1";"22";"1";"1";"5";"1";"[14,26,27,39]";"1";"0";"1"
"456";"9";"13";"1";"11";"1";"1";"5";"1";"[5,15,26,35]";"0";"5";"1"
"457";"18";"14";"1";"34";"1";"1";"5";"2";"[28]";"2";"4";"1"
"458";"11";"14";"1";"14";"1";"1";"5";"1";"[4,8,17,22,37,40]";"1";"0";"1"
"459";"5";"14";"1";"27";"1";"1";"5";"2";"[19,22,23,24,37]";"2";"0";"1"
"460";"24";"14";"1";"17";"1";"1";"5";"1";"[1,4,7,14,18,25,28,38]";"1";"0";"1"
"461";"5";"15";"1";"27";"1";"1";"5";"2";"[19,22,23,24,37]";"2";"0";"1"
"462";"24";"15";"1";"17";"1";"1";"5";"1";"[1,4,7,14,18,25,28,38]";"1";"0";"1"
"463";"33";"17";"1";"39";"1";"1";"5";"2";"[2,19,22,29]";"2";"0";"1"
"464";"33";"18";"1";"39";"1";"1";"5";"2";"[2,19,22,29]";"2";"0";"1"
"465";"9";"21";"1";"11";"1";"1";"5";"1";"[5,15,26,35]";"1";"5";"1"
"466";"29";"21";"1";"26";"1";"1";"5";"2";"[6,11,19,21,22,25,28,32,40]";"1";"0";"1"
"467";"9";"22";"1";"11";"1";"1";"5";"1";"[5,15,26,35]";"1";"5";"1"
"468";"29";"22";"1";"26";"1";"1";"5";"2";"[6,11,19,21,22,25,28,32,40]";"1";"0";"1"
"469";"12";"24";"1";"19";"1";"1";"5";"1";"[10,26,27,39]";"2";"0";"1"
"470";"12";"25";"1";"19";"1";"1";"5";"1";"[10,26,27,39]";"2";"0";"1"
"471";"4";"29";"1";"23";"1";"1";"5";"1";"[18,27,40]";"1";"0";"1"
"472";"4";"30";"1";"23";"1";"1";"5";"1";"[18,27,40]";"1";"0";"1"
"473";"40";"2";"1";"4";"1";"1";"6";"1";"[1,14,17,25]";"1";"0";"1"
"474";"25";"2";"1";"37";"1";"1";"6";"1";"[14,27,33]";"1";"0";"1"
"475";"18";"2";"1";"34";"1";"1";"6";"2";"[28]";"0";"3";"1"
"476";"11";"3";"1";"14";"1";"1";"6";"1";"[4,8,17,22,37,40]";"1";"0";"1"
"477";"39";"3";"1";"28";"1";"1";"6";"1";"[10,17,21,24,26,34]";"1";"0";"1"
"478";"31";"3";"1";"9";"1";"1";"6";"1";"[29,35]";"1";"0";"1"
"479";"40";"3";"1";"4";"1";"1";"6";"1";"[1,14,17,25]";"1";"0";"1"
"480";"7";"3";"1";"18";"1";"1";"6";"1";"[17,23]";"1";"0";"1"
"481";"25";"3";"1";"37";"1";"1";"6";"1";"[14,27,33]";"1";"0";"1"
"482";"18";"3";"1";"34";"1";"1";"6";"2";"[28]";"0";"4";"1"
"483";"17";"3";"1";"20";"1";"1";"6";"2";"[3,7,25]";"1";"0";"1"
"484";"10";"3";"1";"6";"1";"1";"6";"1";"[5,26,32]";"1";"0";"1"
"485";"36";"3";"1";"29";"1";"1";"6";"1";"[3,9,12,31,39]";"1";"0";"1"
"486";"23";"4";"1";"10";"1";"1";"6";"2";"[12,19,28,33,38]";"2";"0";"1"
"487";"11";"4";"1";"14";"1";"1";"6";"1";"[4,8,17,22,37,40]";"1";"0";"1"
"488";"19";"4";"1";"16";"1";"1";"6";"1";"[1,3,8,21,24]";"1";"0";"1"
"489";"31";"4";"1";"9";"1";"1";"6";"1";"[29,35]";"1";"0";"1"
"490";"39";"4";"1";"28";"1";"1";"6";"1";"[10,17,21,24,26,34]";"1";"0";"1"
"491";"34";"4";"1";"15";"1";"1";"6";"2";"[2,3,11,25]";"1";"0";"1"
"492";"7";"4";"1";"18";"1";"1";"6";"1";"[17,23]";"1";"0";"1"
"493";"26";"4";"1";"5";"1";"1";"6";"1";"[6,11,21,31]";"1";"0";"1"
"494";"18";"4";"1";"34";"1";"1";"6";"2";"[28]";"0";"3";"1"
"495";"22";"4";"1";"2";"1";"1";"6";"1";"[15,36,39]";"1";"0";"1"
"496";"17";"4";"1";"20";"1";"1";"6";"2";"[3,7,25]";"1";"0";"1"
"497";"10";"4";"1";"6";"1";"1";"6";"1";"[5,26,32]";"1";"0";"1"
"498";"36";"4";"1";"29";"1";"1";"6";"1";"[3,9,12,31,39]";"1";"0";"1"
"499";"30";"4";"1";"38";"1";"1";"6";"2";"[10,17]";"2";"0";"1"
"500";"6";"4";"1";"21";"1";"1";"6";"1";"[5,13,16,26,28,31,32,33,36]";"0";"2";"1"
"501";"23";"5";"1";"10";"1";"1";"6";"2";"[12,19,28,33,38]";"2";"0";"1"
"502";"15";"5";"1";"3";"1";"1";"6";"1";"[7,15,16,20,29,40]";"1";"0";"1"
"503";"19";"5";"1";"16";"1";"1";"6";"1";"[1,3,8,21,24]";"1";"0";"1"
"504";"9";"5";"1";"11";"1";"1";"6";"1";"[5,15,26,35]";"2";"0";"1"
"505";"18";"5";"1";"34";"1";"1";"6";"2";"[28]";"0";"4";"1"
"506";"34";"5";"1";"15";"1";"1";"6";"2";"[2,3,11,25]";"1";"0";"1"
"507";"26";"5";"1";"5";"1";"1";"6";"1";"[6,11,21,31]";"1";"0";"1"
"508";"35";"5";"1";"1";"1";"1";"6";"1";"[4,16,17]";"2";"0";"1"
"509";"22";"5";"1";"2";"1";"1";"6";"1";"[15,36,39]";"1";"0";"1"
"510";"21";"5";"1";"33";"1";"1";"6";"2";"[10,21,32,37]";"2";"0";"1"
"511";"30";"5";"1";"38";"1";"1";"6";"2";"[10,17]";"2";"0";"1"
"512";"38";"5";"1";"24";"1";"1";"6";"1";"[16,27,28,36]";"1";"0";"1"
"513";"18";"6";"1";"34";"1";"1";"6";"2";"[28]";"0";"5";"1"
"514";"15";"6";"1";"3";"1";"1";"6";"1";"[7,15,16,20,29,40]";"1";"0";"1"
"515";"14";"6";"1";"30";"1";"1";"6";"1";"[13]";"1";"0";"1"
"516";"9";"6";"1";"11";"1";"1";"6";"1";"[5,15,26,35]";"2";"0";"1"
"517";"35";"6";"1";"1";"1";"1";"6";"1";"[4,16,17]";"2";"0";"1"
"518";"24";"6";"1";"17";"1";"1";"6";"1";"[1,4,7,14,18,25,28,38]";"1";"0";"1"
"519";"21";"6";"1";"33";"1";"1";"6";"2";"[10,21,32,37]";"2";"0";"1"
"520";"6";"6";"1";"21";"1";"1";"6";"1";"[5,13,16,26,28,31,32,33,36]";"0";"4";"1"
"521";"38";"6";"1";"24";"1";"1";"6";"1";"[16,27,28,36]";"1";"0";"1"
"522";"18";"7";"1";"34";"1";"1";"6";"2";"[28]";"0";"6";"1"
"523";"8";"7";"1";"36";"1";"1";"6";"1";"[2,21,24,32]";"1";"0";"1"
"524";"14";"7";"1";"30";"1";"1";"6";"1";"[13]";"1";"0";"1"
"525";"6";"7";"1";"21";"1";"1";"6";"1";"[5,13,16,26,28,31,32,33,36]";"0";"6";"1"
"526";"24";"7";"1";"17";"1";"1";"6";"1";"[1,4,7,14,18,25,28,38]";"1";"0";"1"
"527";"18";"8";"1";"34";"1";"1";"6";"2";"[28]";"1";"6";"1"
"528";"8";"8";"1";"36";"1";"1";"6";"1";"[2,21,24,32]";"1";"0";"1"
"529";"33";"8";"1";"39";"1";"1";"6";"2";"[2,19,22,29]";"2";"0";"1"
"530";"5";"8";"1";"27";"1";"1";"6";"2";"[19,22,23,24,37]";"2";"0";"1"
"531";"32";"8";"1";"12";"1";"1";"6";"1";"[10,29]";"1";"0";"1"
"532";"18";"9";"1";"34";"1";"1";"6";"2";"[28]";"1";"6";"1"
"533";"1";"9";"1";"7";"1";"1";"6";"1";"[3,8,17,20]";"1";"0";"1"
"534";"3";"9";"1";"13";"1";"1";"6";"1";"[21,30]";"1";"0";"1"
"535";"6";"9";"1";"21";"1";"1";"6";"1";"[5,13,16,26,28,31,32,33,36]";"0";"7";"1"
"536";"33";"9";"1";"39";"1";"1";"6";"2";"[2,19,22,29]";"2";"0";"1"
"537";"5";"9";"1";"27";"1";"1";"6";"2";"[19,22,23,24,37]";"2";"0";"1"
"538";"32";"9";"1";"12";"1";"1";"6";"1";"[10,29]";"1";"0";"1"
"539";"1";"10";"1";"7";"1";"1";"6";"1";"[3,8,17,20]";"1";"0";"1"
"540";"3";"10";"1";"13";"1";"1";"6";"1";"[21,30]";"1";"0";"1"
"541";"6";"10";"1";"21";"1";"1";"6";"1";"[5,13,16,26,28,31,32,33,36]";"1";"7";"1"
"542";"13";"10";"1";"22";"1";"1";"6";"1";"[14,26,27,39]";"1";"0";"1"
"543";"6";"11";"1";"21";"1";"1";"6";"1";"[5,13,16,26,28,31,32,33,36]";"1";"7";"1"
"544";"13";"11";"1";"22";"1";"1";"6";"1";"[14,26,27,39]";"1";"0";"1"
"545";"2";"11";"1";"8";"1";"1";"6";"1";"[7,14,16]";"1";"0";"1"
"546";"28";"12";"1";"35";"1";"1";"6";"1";"[9,11]";"2";"0";"1"
"547";"2";"12";"1";"8";"1";"1";"6";"1";"[7,14,16]";"1";"0";"1"
"548";"20";"13";"1";"40";"1";"1";"6";"2";"[3,14,23,26]";"2";"0";"1"
"549";"28";"13";"1";"35";"1";"1";"6";"1";"[9,11]";"2";"0";"1"
"550";"16";"13";"1";"32";"1";"1";"6";"1";"[6,21,26,33,36]";"1";"0";"1"
"551";"20";"14";"1";"40";"1";"1";"6";"2";"[3,14,23,26]";"2";"0";"1"
"552";"27";"14";"1";"31";"1";"1";"6";"1";"[5,21,29]";"1";"0";"1"
"553";"16";"14";"1";"32";"1";"1";"6";"1";"[6,21,26,33,36]";"1";"0";"1"
"554";"27";"15";"1";"31";"1";"1";"6";"1";"[5,21,29]";"1";"0";"1"
"555";"37";"18";"1";"25";"1";"1";"6";"1";"[4,15,17,20,26]";"2";"0";"1"
"556";"37";"19";"1";"25";"1";"1";"6";"1";"[4,15,17,20,26]";"2";"0";"1"
"557";"29";"22";"1";"26";"1";"1";"6";"2";"[6,11,19,21,22,25,28,32,40]";"1";"0";"1"
"558";"29";"24";"1";"26";"1";"1";"6";"2";"[6,11,19,21,22,25,28,32,40]";"1";"0";"1"
"559";"12";"24";"1";"19";"1";"1";"6";"1";"[10,26,27,39]";"2";"0";"1"
"560";"12";"25";"1";"19";"1";"1";"6";"1";"[10,26,27,39]";"2";"0";"1"
"561";"10";"26";"1";"6";"1";"1";"6";"1";"[5,26,32]";"1";"1";"1"
"562";"4";"29";"1";"23";"1";"1";"6";"1";"[18,27,40]";"1";"0";"1"
"563";"4";"30";"1";"23";"1";"1";"6";"1";"[18,27,40]";"1";"0";"1"
"564";"10";"1";"1";"6";"1";"1";"7";"1";"[5,26,32]";"0";"5";"1"
"565";"30";"2";"1";"38";"1";"1";"7";"2";"[10,17]";"2";"0";"1"
"566";"22";"2";"1";"2";"1";"1";"7";"1";"[15,36,39]";"1";"0";"1"
"567";"40";"2";"1";"4";"1";"1";"7";"1";"[1,14,17,25]";"1";"0";"1"
"568";"31";"2";"1";"9";"1";"1";"7";"1";"[29,35]";"1";"0";"1"
"569";"15";"2";"1";"3";"1";"1";"7";"1";"[7,15,16,20,29,40]";"1";"0";"1"
"570";"10";"2";"1";"6";"1";"1";"7";"1";"[5,26,32]";"1";"5";"1"
"571";"39";"3";"1";"28";"1";"1";"7";"1";"[10,17,21,24,26,34]";"1";"0";"1"
"572";"11";"3";"1";"14";"1";"1";"7";"1";"[4,8,17,22,37,40]";"1";"0";"1"
"573";"7";"3";"1";"18";"1";"1";"7";"1";"[17,23]";"1";"0";"1"
"574";"30";"3";"1";"38";"1";"1";"7";"2";"[10,17]";"2";"0";"1"
"575";"6";"3";"1";"21";"1";"1";"7";"1";"[5,13,16,26,28,31,32,33,36]";"1";"0";"1"
"576";"22";"3";"1";"2";"1";"1";"7";"1";"[15,36,39]";"1";"0";"1"
"577";"23";"3";"1";"10";"1";"1";"7";"2";"[12,19,28,33,38]";"2";"0";"1"
"578";"32";"3";"1";"12";"1";"1";"7";"1";"[10,29]";"2";"0";"1"
"579";"8";"3";"1";"36";"1";"1";"7";"1";"[2,21,24,32]";"1";"0";"1"
"580";"40";"3";"1";"4";"1";"1";"7";"1";"[1,14,17,25]";"1";"0";"1"
"581";"31";"3";"1";"9";"1";"1";"7";"1";"[29,35]";"1";"0";"1"
"582";"24";"3";"1";"17";"1";"1";"7";"1";"[1,4,7,14,18,25,28,38]";"1";"0";"1"
"583";"15";"3";"1";"3";"1";"1";"7";"1";"[7,15,16,20,29,40]";"1";"0";"1"
"584";"10";"3";"1";"6";"1";"1";"7";"1";"[5,26,32]";"1";"5";"1"
"585";"18";"3";"1";"34";"1";"1";"7";"2";"[28]";"0";"4";"1"
"586";"39";"4";"1";"28";"1";"1";"7";"1";"[10,17,21,24,26,34]";"1";"0";"1"
"587";"1";"4";"1";"7";"1";"1";"7";"1";"[3,8,17,20]";"1";"0";"1"
"588";"11";"4";"1";"14";"1";"1";"7";"1";"[4,8,17,22,37,40]";"1";"0";"1"
"589";"7";"4";"1";"18";"1";"1";"7";"1";"[17,23]";"1";"0";"1"
"590";"6";"4";"1";"21";"1";"1";"7";"1";"[5,13,16,26,28,31,32,33,36]";"1";"0";"1"
"591";"23";"4";"1";"10";"1";"1";"7";"2";"[12,19,28,33,38]";"2";"0";"1"
"592";"32";"4";"1";"12";"1";"1";"7";"1";"[10,29]";"2";"0";"1"
"593";"8";"4";"1";"36";"1";"1";"7";"1";"[2,21,24,32]";"1";"0";"1"
"594";"38";"4";"1";"24";"1";"1";"7";"1";"[16,27,28,36]";"1";"0";"1"
"595";"24";"4";"1";"17";"1";"1";"7";"1";"[1,4,7,14,18,25,28,38]";"1";"0";"1"
"596";"5";"5";"1";"27";"1";"1";"7";"2";"[19,22,23,24,37]";"2";"0";"1"
"597";"18";"5";"1";"34";"1";"1";"7";"2";"[28]";"0";"3";"1"
"598";"1";"5";"1";"7";"1";"1";"7";"1";"[3,8,17,20]";"1";"0";"1"
"599";"21";"5";"1";"33";"1";"1";"7";"2";"[10,21,32,37]";"1";"0";"1"
"600";"14";"5";"1";"30";"1";"1";"7";"1";"[13]";"1";"0";"1"
"601";"35";"5";"1";"1";"1";"1";"7";"1";"[4,16,17]";"2";"0";"1"
"602";"3";"5";"1";"13";"1";"1";"7";"1";"[21,30]";"1";"0";"1"
"603";"38";"5";"1";"24";"1";"1";"7";"1";"[16,27,28,36]";"1";"0";"1"
"604";"28";"5";"1";"35";"1";"1";"7";"1";"[9,11]";"1";"0";"1"
"605";"34";"5";"1";"15";"1";"1";"7";"2";"[2,3,11,25]";"2";"0";"1"
"606";"19";"5";"1";"16";"1";"1";"7";"1";"[1,3,8,21,24]";"1";"0";"1"
"607";"5";"6";"1";"27";"1";"1";"7";"2";"[19,22,23,24,37]";"2";"0";"1"
"608";"21";"6";"1";"33";"1";"1";"7";"2";"[10,21,32,37]";"1";"0";"1"
"609";"18";"6";"1";"34";"1";"1";"7";"2";"[28]";"0";"6";"1"
"610";"13";"6";"1";"22";"1";"1";"7";"1";"[14,26,27,39]";"1";"0";"1"
"611";"14";"6";"1";"30";"1";"1";"7";"1";"[13]";"1";"0";"1"
"612";"35";"6";"1";"1";"1";"1";"7";"1";"[4,16,17]";"2";"0";"1"
"613";"3";"6";"1";"13";"1";"1";"7";"1";"[21,30]";"1";"0";"1"
"614";"28";"6";"1";"35";"1";"1";"7";"1";"[9,11]";"1";"0";"1"
"615";"18";"6";"1";"34";"1";"1";"7";"2";"[28]";"0";"7";"1"
"616";"34";"6";"1";"15";"1";"1";"7";"2";"[2,3,11,25]";"2";"0";"1"
"617";"19";"6";"1";"16";"1";"1";"7";"1";"[1,3,8,21,24]";"1";"0";"1"
"618";"13";"7";"1";"22";"1";"1";"7";"1";"[14,26,27,39]";"1";"0";"1"
"619";"26";"7";"1";"5";"1";"1";"7";"1";"[6,11,21,31]";"1";"0";"1"
"620";"18";"7";"1";"34";"1";"1";"7";"2";"[28]";"1";"7";"1"
"621";"36";"8";"1";"29";"1";"1";"7";"1";"[3,9,12,31,39]";"1";"0";"1"
"622";"20";"8";"1";"40";"1";"1";"7";"2";"[3,14,23,26]";"2";"0";"1"
"623";"26";"8";"1";"5";"1";"1";"7";"1";"[6,11,21,31]";"1";"0";"1"
"624";"37";"8";"1";"25";"1";"1";"7";"1";"[4,15,17,20,26]";"1";"0";"1"
"625";"18";"8";"1";"34";"1";"1";"7";"2";"[28]";"1";"7";"1"
"626";"36";"9";"1";"29";"1";"1";"7";"1";"[3,9,12,31,39]";"1";"0";"1"
"627";"20";"9";"1";"40";"1";"1";"7";"2";"[3,14,23,26]";"2";"0";"1"
"628";"37";"9";"1";"25";"1";"1";"7";"1";"[4,15,17,20,26]";"1";"0";"1"
"629";"25";"9";"1";"37";"1";"1";"7";"1";"[14,27,33]";"1";"0";"1"
"630";"16";"10";"1";"32";"1";"1";"7";"1";"[6,21,26,33,36]";"1";"0";"1"
"631";"12";"10";"1";"19";"1";"1";"7";"1";"[10,26,27,39]";"1";"0";"1"
"632";"33";"10";"1";"39";"1";"1";"7";"2";"[2,19,22,29]";"0";"2";"1"
"633";"25";"10";"1";"37";"1";"1";"7";"1";"[14,27,33]";"1";"0";"1"
"634";"16";"11";"1";"32";"1";"1";"7";"1";"[6,21,26,33,36]";"1";"0";"1"
"635";"12";"11";"1";"19";"1";"1";"7";"1";"[10,26,27,39]";"1";"0";"1"
"636";"33";"14";"1";"39";"1";"1";"7";"2";"[2,19,22,29]";"0";"5";"1"
"637";"33";"15";"1";"39";"1";"1";"7";"2";"[2,19,22,29]";"0";"6";"1"
"638";"33";"17";"1";"39";"1";"1";"7";"2";"[2,19,22,29]";"0";"7";"1"
"639";"9";"17";"1";"11";"1";"1";"7";"1";"[5,15,26,35]";"1";"0";"1"
"640";"27";"17";"1";"31";"1";"1";"7";"1";"[5,21,29]";"1";"0";"1"
"641";"9";"18";"1";"11";"1";"1";"7";"1";"[5,15,26,35]";"1";"0";"1"
"642";"27";"18";"1";"31";"1";"1";"7";"1";"[5,21,29]";"1";"0";"1"
"643";"17";"19";"1";"20";"1";"1";"7";"2";"[3,7,25]";"1";"0";"1"
"644";"33";"20";"1";"39";"1";"1";"7";"2";"[2,19,22,29]";"2";"7";"1"
"645";"17";"20";"1";"20";"1";"1";"7";"2";"[3,7,25]";"1";"0";"1"
"646";"33";"21";"1";"39";"1";"1";"7";"2";"[2,19,22,29]";"2";"7";"1"
"647";"2";"21";"1";"8";"1";"1";"7";"1";"[7,14,16]";"1";"0";"1"
"648";"2";"22";"1";"8";"1";"1";"7";"1";"[7,14,16]";"1";"0";"1"
"649";"29";"26";"1";"26";"1";"1";"7";"2";"[6,11,19,21,22,25,28,32,40]";"1";"0";"1"
"650";"29";"27";"1";"26";"1";"1";"7";"2";"[6,11,19,21,22,25,28,32,40]";"1";"0";"1"
"651";"4";"31";"1";"23";"1";"1";"7";"1";"[18,27,40]";"0";"0";"1"
"652";"0";"30";"1";"23";"1";"1";"7";"1";"[18,27,40]";"1";"0";"0"
"653";"31";"1";"1";"9";"1";"1";"8";"1";"[29,35]";"1";"0";"1"
"654";"40";"1";"1";"4";"1";"1";"8";"1";"[1,14,17,25]";"1";"0";"1"
"655";"27";"2";"1";"31";"1";"1";"8";"1";"[5,21,29]";"1";"0";"1"
"656";"31";"2";"1";"9";"1";"1";"8";"1";"[29,35]";"1";"0";"1"
"657";"25";"2";"1";"37";"1";"1";"8";"1";"[14,27,33]";"1";"0";"1"
"658";"40";"2";"1";"4";"1";"1";"8";"1";"[1,14,17,25]";"1";"0";"1"
"659";"17";"2";"1";"20";"1";"1";"8";"2";"[3,7,25]";"1";"0";"1"
"660";"10";"2";"1";"6";"1";"1";"8";"1";"[5,26,32]";"1";"0";"1"
"661";"2";"2";"1";"8";"1";"1";"8";"1";"[7,14,16]";"2";"0";"1"
"662";"22";"2";"1";"2";"1";"1";"8";"1";"[15,36,39]";"1";"0";"1"
"663";"21";"2";"1";"33";"1";"1";"8";"2";"[10,21,32,37]";"2";"0";"1"
"664";"3";"2";"1";"13";"1";"1";"8";"1";"[21,30]";"1";"0";"1"
"665";"15";"2";"1";"3";"1";"1";"8";"1";"[7,15,16,20,29,40]";"1";"0";"1"
"666";"11";"2";"1";"14";"1";"1";"8";"1";"[4,8,17,22,37,40]";"1";"0";"1"
"667";"27";"3";"1";"31";"1";"1";"8";"1";"[5,21,29]";"1";"0";"1"
"668";"25";"3";"1";"37";"1";"1";"8";"1";"[14,27,33]";"1";"0";"1"
"669";"7";"3";"1";"18";"1";"1";"8";"1";"[17,23]";"1";"0";"1"
"670";"39";"3";"1";"28";"1";"1";"8";"1";"[10,17,21,24,26,34]";"1";"0";"1"
"671";"17";"3";"1";"20";"1";"1";"8";"2";"[3,7,25]";"1";"0";"1"
"672";"29";"3";"1";"26";"1";"1";"8";"2";"[6,11,19,21,22,25,28,32,40]";"1";"0";"1"
"673";"6";"3";"1";"21";"1";"1";"8";"1";"[5,13,16,26,28,31,32,33,36]";"1";"0";"1"
"674";"10";"3";"1";"6";"1";"1";"8";"1";"[5,26,32]";"1";"0";"1"
"675";"2";"3";"1";"8";"1";"1";"8";"1";"[7,14,16]";"2";"0";"1"
"676";"22";"3";"1";"2";"1";"1";"8";"1";"[15,36,39]";"1";"0";"1"
"677";"21";"3";"1";"33";"1";"1";"8";"2";"[10,21,32,37]";"2";"0";"1"
"678";"3";"3";"1";"13";"1";"1";"8";"1";"[21,30]";"1";"0";"1"
"679";"15";"3";"1";"3";"1";"1";"8";"1";"[7,15,16,20,29,40]";"1";"0";"1"
"680";"24";"3";"1";"17";"1";"1";"8";"1";"[1,4,7,14,18,25,28,38]";"1";"0";"1"
"681";"11";"3";"1";"14";"1";"1";"8";"1";"[4,8,17,22,37,40]";"1";"0";"1"
"682";"7";"4";"1";"18";"1";"1";"8";"1";"[17,23]";"1";"0";"1"
"683";"18";"4";"1";"34";"1";"1";"8";"2";"[28]";"0";"6";"1"
"684";"39";"4";"1";"28";"1";"1";"8";"1";"[10,17,21,24,26,34]";"1";"0";"1"
"685";"8";"4";"1";"36";"1";"1";"8";"1";"[2,21,24,32]";"1";"0";"1"
"686";"34";"4";"1";"15";"1";"1";"8";"2";"[2,3,11,25]";"1";"0";"1"
"687";"29";"4";"1";"26";"1";"1";"8";"2";"[6,11,19,21,22,25,28,32,40]";"1";"0";"1"
"688";"6";"4";"1";"21";"1";"1";"8";"1";"[5,13,16,26,28,31,32,33,36]";"1";"0";"1"
"689";"16";"4";"1";"32";"1";"1";"8";"1";"[6,21,26,33,36]";"1";"0";"1"
"690";"24";"4";"1";"17";"1";"1";"8";"1";"[1,4,7,14,18,25,28,38]";"1";"0";"1"
"691";"18";"4";"1";"34";"1";"1";"8";"2";"[28]";"0";"5";"1"
"692";"38";"5";"1";"24";"1";"1";"8";"1";"[16,27,28,36]";"1";"0";"1"
"693";"33";"5";"1";"39";"1";"1";"8";"2";"[2,19,22,29]";"2";"0";"1"
"694";"19";"5";"1";"16";"1";"1";"8";"1";"[1,3,8,21,24]";"1";"0";"1"
"695";"8";"5";"1";"36";"1";"1";"8";"1";"[2,21,24,32]";"1";"0";"1"
"696";"34";"5";"1";"15";"1";"1";"8";"2";"[2,3,11,25]";"1";"0";"1"
"697";"16";"5";"1";"32";"1";"1";"8";"1";"[6,21,26,33,36]";"1";"0";"1"
"698";"38";"6";"1";"24";"1";"1";"8";"1";"[16,27,28,36]";"1";"0";"1"
"699";"33";"6";"1";"39";"1";"1";"8";"2";"[2,19,22,29]";"2";"0";"1"
"700";"19";"6";"1";"16";"1";"1";"8";"1";"[1,3,8,21,24]";"1";"0";"1"
"701";"14";"6";"1";"30";"1";"1";"8";"1";"[13]";"1";"0";"1"
"702";"35";"6";"1";"1";"1";"1";"8";"1";"[4,16,17]";"2";"0";"1"
"703";"18";"6";"1";"34";"1";"1";"8";"2";"[28]";"0";"7";"1"
"704";"26";"7";"1";"5";"1";"1";"8";"1";"[6,11,21,31]";"1";"0";"1"
"705";"14";"7";"1";"30";"1";"1";"8";"1";"[13]";"1";"0";"1"
"706";"35";"7";"1";"1";"1";"1";"8";"1";"[4,16,17]";"2";"0";"1"
"707";"1";"7";"1";"7";"1";"1";"8";"1";"[3,8,17,20]";"1";"0";"1"
"708";"36";"7";"1";"29";"1";"1";"8";"1";"[3,9,12,31,39]";"1";"0";"1"
"709";"12";"7";"1";"19";"1";"1";"8";"1";"[10,26,27,39]";"2";"0";"1"
"710";"26";"8";"1";"5";"1";"1";"8";"1";"[6,11,21,31]";"1";"0";"1"
"711";"28";"8";"1";"35";"1";"1";"8";"1";"[9,11]";"1";"0";"1"
"712";"1";"8";"1";"7";"1";"1";"8";"1";"[3,8,17,20]";"1";"0";"1"
"713";"36";"8";"1";"29";"1";"1";"8";"1";"[3,9,12,31,39]";"1";"0";"1"
"714";"12";"8";"1";"19";"1";"1";"8";"1";"[10,26,27,39]";"2";"0";"1"
"715";"32";"9";"1";"12";"1";"1";"8";"1";"[10,29]";"1";"0";"1"
"716";"18";"9";"1";"34";"1";"1";"8";"2";"[28]";"0";"6";"1"
"717";"28";"9";"1";"35";"1";"1";"8";"1";"[9,11]";"1";"0";"1"
"718";"20";"9";"1";"40";"1";"1";"8";"2";"[3,14,23,26]";"2";"0";"1"
"719";"9";"9";"1";"11";"1";"1";"8";"1";"[5,15,26,35]";"1";"0";"1"
"720";"30";"10";"1";"38";"1";"1";"8";"2";"[10,17]";"2";"0";"1"
"721";"32";"10";"1";"12";"1";"1";"8";"1";"[10,29]";"1";"0";"1"
"722";"18";"10";"1";"34";"1";"1";"8";"2";"[28]";"0";"7";"1"
"723";"20";"10";"1";"40";"1";"1";"8";"2";"[3,14,23,26]";"2";"0";"1"
"724";"31";"10";"1";"9";"1";"1";"8";"1";"[29,35]";"1";"2";"1"
"725";"9";"10";"1";"11";"1";"1";"8";"1";"[5,15,26,35]";"1";"0";"1"
"726";"18";"11";"1";"34";"1";"1";"8";"2";"[28]";"2";"7";"1"
"727";"30";"11";"1";"38";"1";"1";"8";"2";"[10,17]";"2";"0";"1"
"728";"18";"12";"1";"34";"1";"1";"8";"2";"[28]";"2";"7";"1"
"729";"31";"12";"1";"9";"1";"1";"8";"1";"[29,35]";"1";"3";"1"
"730";"5";"12";"1";"27";"1";"1";"8";"2";"[19,22,23,24,37]";"2";"0";"1"
"731";"31";"12";"1";"9";"1";"1";"8";"1";"[29,35]";"1";"4";"1"
"732";"31";"13";"1";"9";"1";"1";"8";"1";"[29,35]";"1";"5";"1"
"733";"29";"13";"1";"26";"1";"1";"8";"2";"[6,11,19,21,22,25,28,32,40]";"1";"6";"1"
"734";"5";"13";"1";"27";"1";"1";"8";"2";"[19,22,23,24,37]";"2";"0";"1"
"735";"31";"13";"1";"9";"1";"1";"8";"1";"[29,35]";"1";"6";"1"
"736";"23";"13";"1";"10";"1";"1";"8";"2";"[12,19,28,33,38]";"2";"0";"1"
"737";"31";"14";"1";"9";"1";"1";"8";"1";"[29,35]";"1";"4";"1"
"738";"23";"14";"1";"10";"1";"1";"8";"2";"[12,19,28,33,38]";"2";"0";"1"
"739";"31";"14";"1";"9";"1";"1";"8";"1";"[29,35]";"1";"3";"1"
"740";"29";"15";"1";"26";"1";"1";"8";"2";"[6,11,19,21,22,25,28,32,40]";"1";"1";"1"
"741";"31";"15";"1";"9";"1";"1";"8";"1";"[29,35]";"1";"1";"1"
"742";"4";"15";"1";"23";"1";"1";"8";"1";"[18,27,40]";"1";"0";"1"
"743";"31";"16";"1";"9";"1";"1";"8";"1";"[29,35]";"1";"2";"1"
"744";"31";"16";"1";"9";"1";"1";"8";"1";"[29,35]";"1";"3";"1"
"745";"31";"16";"1";"9";"1";"1";"8";"1";"[29,35]";"1";"4";"1"
"746";"4";"16";"1";"23";"1";"1";"8";"1";"[18,27,40]";"1";"0";"1"
"747";"31";"17";"1";"9";"1";"1";"8";"1";"[29,35]";"1";"5";"1"
"748";"37";"17";"1";"25";"1";"1";"8";"1";"[4,15,17,20,26]";"1";"0";"1"
"749";"31";"17";"1";"9";"1";"1";"8";"1";"[29,35]";"1";"6";"1"
"750";"13";"17";"1";"22";"1";"1";"8";"1";"[14,26,27,39]";"2";"0";"1"
"751";"37";"18";"1";"25";"1";"1";"8";"1";"[4,15,17,20,26]";"1";"0";"1"
"752";"31";"18";"1";"9";"1";"1";"8";"1";"[29,35]";"1";"8";"1"
"753";"13";"18";"1";"22";"1";"1";"8";"1";"[14,26,27,39]";"2";"0";"1"
"754";"10";"2";"1";"6";"1";"1";"9";"1";"[5,26,32]";"1";"0";"1"
"755";"29";"2";"1";"26";"1";"1";"9";"2";"[6,11,19,21,22,25,28,32,40]";"0";"8";"1"
"756";"31";"3";"1";"9";"1";"1";"9";"1";"[29,35]";"1";"0";"1"
"757";"13";"3";"1";"22";"1";"1";"9";"1";"[14,26,27,39]";"2";"0";"1"
"758";"24";"3";"1";"17";"1";"1";"9";"1";"[1,4,7,14,18,25,28,38]";"1";"0";"1"
"759";"10";"3";"1";"6";"1";"1";"9";"1";"[5,26,32]";"1";"0";"1"
"760";"6";"3";"1";"21";"1";"1";"9";"1";"[5,13,16,26,28,31,32,33,36]";"1";"0";"1"
"761";"1";"3";"1";"7";"1";"1";"9";"1";"[3,8,17,20]";"1";"0";"1"
"762";"7";"3";"1";"18";"1";"1";"9";"1";"[17,23]";"1";"0";"1"
"763";"25";"3";"1";"37";"1";"1";"9";"1";"[14,27,33]";"1";"0";"1"
"764";"17";"3";"1";"20";"1";"1";"9";"2";"[3,7,25]";"1";"0";"1"
"765";"22";"3";"1";"2";"1";"1";"9";"1";"[15,36,39]";"1";"0";"1"
"766";"23";"4";"1";"10";"1";"1";"9";"2";"[12,19,28,33,38]";"2";"0";"1"
"767";"31";"4";"1";"9";"1";"1";"9";"1";"[29,35]";"1";"0";"1"
"768";"21";"4";"1";"33";"1";"1";"9";"2";"[10,21,32,37]";"2";"0";"1"
"769";"13";"4";"1";"22";"1";"1";"9";"1";"[14,26,27,39]";"2";"0";"1"
"770";"24";"4";"1";"17";"1";"1";"9";"1";"[1,4,7,14,18,25,28,38]";"1";"0";"1"
"771";"39";"4";"1";"28";"1";"1";"9";"1";"[10,17,21,24,26,34]";"1";"0";"1"
"772";"6";"4";"1";"21";"1";"1";"9";"1";"[5,13,16,26,28,31,32,33,36]";"1";"0";"1"
"773";"31";"4";"1";"9";"1";"1";"9";"1";"[29,35]";"1";"9";"1"
"774";"1";"4";"1";"7";"1";"1";"9";"1";"[3,8,17,20]";"1";"0";"1"
"775";"7";"4";"1";"18";"1";"1";"9";"1";"[17,23]";"1";"0";"1"
"776";"25";"4";"1";"37";"1";"1";"9";"1";"[14,27,33]";"1";"0";"1"
"777";"40";"4";"1";"4";"1";"1";"9";"1";"[1,14,17,25]";"1";"0";"1"
"778";"34";"4";"1";"15";"1";"1";"9";"2";"[2,3,11,25]";"1";"0";"1"
"779";"17";"4";"1";"20";"1";"1";"9";"2";"[3,7,25]";"1";"0";"1"
"780";"31";"4";"1";"9";"1";"1";"9";"1";"[29,35]";"1";"9";"1"
"781";"22";"4";"1";"2";"1";"1";"9";"1";"[15,36,39]";"1";"0";"1"
"782";"23";"5";"1";"10";"1";"1";"9";"2";"[12,19,28,33,38]";"2";"0";"1"
"783";"18";"5";"1";"34";"1";"1";"9";"2";"[28]";"2";"0";"1"
"784";"21";"5";"1";"33";"1";"1";"9";"2";"[10,21,32,37]";"2";"0";"1"
"785";"3";"5";"1";"13";"1";"1";"9";"1";"[21,30]";"1";"0";"1"
"786";"32";"5";"1";"12";"1";"1";"9";"1";"[10,29]";"2";"0";"1"
"787";"39";"5";"1";"28";"1";"1";"9";"1";"[10,17,21,24,26,34]";"1";"0";"1"
"788";"40";"5";"1";"4";"1";"1";"9";"1";"[1,14,17,25]";"1";"0";"1"
"789";"38";"5";"1";"24";"1";"1";"9";"1";"[16,27,28,36]";"0";"1";"1"
"790";"34";"5";"1";"15";"1";"1";"9";"2";"[2,3,11,25]";"1";"0";"1"
"791";"8";"5";"1";"36";"1";"1";"9";"1";"[2,21,24,32]";"1";"0";"1"
"792";"28";"6";"1";"35";"1";"1";"9";"1";"[9,11]";"1";"0";"1"
"793";"18";"6";"1";"34";"1";"1";"9";"2";"[28]";"2";"0";"1"
"794";"3";"6";"1";"13";"1";"1";"9";"1";"[21,30]";"1";"0";"1"
"795";"32";"6";"1";"12";"1";"1";"9";"1";"[10,29]";"2";"0";"1"
"796";"27";"6";"1";"31";"1";"1";"9";"1";"[5,21,29]";"1";"0";"1"
"797";"16";"6";"1";"32";"1";"1";"9";"1";"[6,21,26,33,36]";"1";"0";"1"
"798";"36";"6";"1";"29";"1";"1";"9";"1";"[3,9,12,31,39]";"1";"0";"1"
"799";"8";"7";"1";"36";"1";"1";"9";"1";"[2,21,24,32]";"1";"0";"1"
"800";"20";"7";"1";"40";"1";"1";"9";"2";"[3,14,23,26]";"2";"0";"1"
"801";"28";"7";"1";"35";"1";"1";"9";"1";"[9,11]";"1";"0";"1"
"802";"33";"7";"1";"39";"1";"1";"9";"2";"[2,19,22,29]";"2";"0";"1"
"803";"26";"7";"1";"5";"1";"1";"9";"1";"[6,11,21,31]";"1";"0";"1"
"804";"27";"7";"1";"31";"1";"1";"9";"1";"[5,21,29]";"1";"0";"1"
"805";"38";"7";"1";"24";"1";"1";"9";"1";"[16,27,28,36]";"0";"3";"1"
"806";"19";"7";"1";"16";"1";"1";"9";"1";"[1,3,8,21,24]";"1";"0";"1"
"807";"2";"7";"1";"8";"1";"1";"9";"1";"[7,14,16]";"1";"0";"1"
"808";"30";"7";"1";"38";"1";"1";"9";"2";"[10,17]";"2";"0";"1"
"809";"5";"7";"1";"27";"1";"1";"9";"2";"[19,22,23,24,37]";"2";"0";"1"
"810";"27";"7";"1";"31";"1";"1";"9";"1";"[5,21,29]";"1";"7";"1"
"811";"16";"7";"1";"32";"1";"1";"9";"1";"[6,21,26,33,36]";"1";"0";"1"
"812";"36";"7";"1";"29";"1";"1";"9";"1";"[3,9,12,31,39]";"1";"0";"1"
"813";"20";"8";"1";"40";"1";"1";"9";"2";"[3,14,23,26]";"2";"0";"1"
"814";"33";"8";"1";"39";"1";"1";"9";"2";"[2,19,22,29]";"2";"0";"1"
"815";"26";"8";"1";"5";"1";"1";"9";"1";"[6,11,21,31]";"1";"0";"1"
"816";"11";"8";"1";"14";"1";"1";"9";"1";"[4,8,17,22,37,40]";"1";"0";"1"
"817";"19";"8";"1";"16";"1";"1";"9";"1";"[1,3,8,21,24]";"1";"0";"1"
"818";"2";"8";"1";"8";"1";"1";"9";"1";"[7,14,16]";"1";"0";"1"
"819";"30";"8";"1";"38";"1";"1";"9";"2";"[10,17]";"2";"0";"1"
"820";"5";"8";"1";"27";"1";"1";"9";"2";"[19,22,23,24,37]";"2";"0";"1"
"821";"38";"8";"1";"24";"1";"1";"9";"1";"[16,27,28,36]";"0";"5";"1"
"822";"27";"9";"1";"31";"1";"1";"9";"1";"[5,21,29]";"1";"4";"1"
"823";"11";"9";"1";"14";"1";"1";"9";"1";"[4,8,17,22,37,40]";"1";"0";"1"
"824";"14";"9";"1";"30";"1";"1";"9";"1";"[13]";"1";"0";"1"
"825";"29";"9";"1";"26";"1";"1";"9";"2";"[6,11,19,21,22,25,28,32,40]";"1";"8";"1"
"826";"15";"10";"1";"3";"1";"1";"9";"1";"[7,15,16,20,29,40]";"1";"0";"1"
"827";"27";"10";"1";"31";"1";"1";"9";"1";"[5,21,29]";"1";"1";"1"
"828";"14";"10";"1";"30";"1";"1";"9";"1";"[13]";"1";"0";"1"
"829";"29";"10";"1";"26";"1";"1";"9";"2";"[6,11,19,21,22,25,28,32,40]";"1";"8";"1"
"830";"15";"11";"1";"3";"1";"1";"9";"1";"[7,15,16,20,29,40]";"1";"0";"1"
"831";"38";"11";"1";"24";"1";"1";"9";"1";"[16,27,28,36]";"0";"11";"1"
"832";"35";"12";"1";"1";"1";"1";"9";"1";"[4,16,17]";"2";"0";"1"
"833";"27";"12";"1";"31";"1";"1";"9";"1";"[5,21,29]";"1";"8";"1"
"834";"35";"13";"1";"1";"1";"1";"9";"1";"[4,16,17]";"2";"0";"1"
"835";"38";"14";"1";"24";"1";"1";"9";"1";"[16,27,28,36]";"1";"11";"1"
"836";"27";"15";"1";"31";"1";"1";"9";"1";"[5,21,29]";"1";"9";"1"
"837";"37";"15";"1";"25";"1";"1";"9";"1";"[4,15,17,20,26]";"1";"0";"1"
"838";"38";"15";"1";"24";"1";"1";"9";"1";"[16,27,28,36]";"1";"11";"1"
"839";"37";"16";"1";"25";"1";"1";"9";"1";"[4,15,17,20,26]";"1";"0";"1"
"840";"12";"16";"1";"19";"1";"1";"9";"1";"[10,26,27,39]";"2";"0";"1"
"841";"12";"17";"1";"19";"1";"1";"9";"1";"[10,26,27,39]";"2";"0";"1"
"842";"9";"21";"1";"11";"1";"1";"9";"1";"[5,15,26,35]";"1";"0";"1"
"843";"9";"22";"1";"11";"1";"1";"9";"1";"[5,15,26,35]";"1";"0";"1"
"844";"39";"27";"1";"28";"1";"1";"9";"1";"[10,17,21,24,26,34]";"1";"7";"1"
"845";"4";"28";"1";"23";"1";"1";"9";"1";"[18,27,40]";"1";"0";"1"
"846";"4";"29";"1";"23";"1";"1";"9";"1";"[18,27,40]";"1";"0";"1"
"847";"39";"0";"1";"28";"1";"1";"10";"1";"[10,17,21,24,26,34]";"0";"7";"1"
"848";"40";"0";"1";"4";"1";"1";"10";"1";"[1,14,17,25]";"1";"0";"1"
"849";"22";"1";"1";"2";"1";"1";"10";"1";"[15,36,39]";"1";"0";"1"
"850";"17";"1";"1";"20";"1";"1";"10";"2";"[3,7,25]";"1";"0";"1"
"851";"38";"1";"1";"24";"1";"1";"10";"1";"[16,27,28,36]";"1";"0";"1"
"852";"10";"1";"1";"6";"1";"1";"10";"1";"[5,26,32]";"1";"0";"1"
"853";"31";"1";"1";"9";"1";"1";"10";"1";"[29,35]";"1";"0";"1"
"854";"25";"1";"1";"37";"1";"1";"10";"1";"[14,27,33]";"1";"0";"1"
"855";"7";"1";"1";"18";"1";"1";"10";"1";"[17,23]";"1";"0";"1"
"856";"40";"1";"1";"4";"1";"1";"10";"1";"[1,14,17,25]";"1";"0";"1"
"857";"22";"2";"1";"2";"1";"1";"10";"1";"[15,36,39]";"1";"0";"1"
"858";"6";"2";"1";"21";"1";"1";"10";"1";"[5,13,16,26,28,31,32,33,36]";"1";"0";"1"
"859";"17";"2";"1";"20";"1";"1";"10";"2";"[3,7,25]";"1";"0";"1"
"860";"8";"2";"1";"36";"1";"1";"10";"1";"[2,21,24,32]";"1";"0";"1"
"861";"38";"2";"1";"24";"1";"1";"10";"1";"[16,27,28,36]";"1";"0";"1"
"862";"10";"2";"1";"6";"1";"1";"10";"1";"[5,26,32]";"1";"0";"1"
"863";"34";"2";"1";"15";"1";"1";"10";"2";"[2,3,11,25]";"1";"0";"1"
"864";"31";"2";"1";"9";"1";"1";"10";"1";"[29,35]";"1";"0";"1"
"865";"25";"2";"1";"37";"1";"1";"10";"1";"[14,27,33]";"1";"0";"1"
"866";"14";"2";"1";"30";"1";"1";"10";"1";"[13]";"1";"0";"1"
"867";"7";"2";"1";"18";"1";"1";"10";"1";"[17,23]";"1";"0";"1"
"868";"6";"3";"1";"21";"1";"1";"10";"1";"[5,13,16,26,28,31,32,33,36]";"1";"0";"1"
"869";"39";"3";"1";"28";"1";"1";"10";"1";"[10,17,21,24,26,34]";"1";"7";"1"
"870";"8";"3";"1";"36";"1";"1";"10";"1";"[2,21,24,32]";"1";"0";"1"
"871";"21";"3";"1";"33";"1";"1";"10";"2";"[10,21,32,37]";"1";"0";"1"
"872";"1";"3";"1";"7";"1";"1";"10";"1";"[3,8,17,20]";"1";"0";"1"
"873";"37";"3";"1";"25";"1";"1";"10";"1";"[4,15,17,20,26]";"2";"0";"1"
"874";"34";"3";"1";"15";"1";"1";"10";"2";"[2,3,11,25]";"1";"0";"1"
"875";"3";"3";"1";"13";"1";"1";"10";"1";"[21,30]";"1";"0";"1"
"876";"32";"3";"1";"12";"1";"1";"10";"1";"[10,29]";"1";"0";"1"
"877";"14";"3";"1";"30";"1";"1";"10";"1";"[13]";"1";"0";"1"
"878";"5";"3";"1";"27";"1";"1";"10";"2";"[19,22,23,24,37]";"2";"0";"1"
"879";"27";"4";"1";"31";"1";"1";"10";"1";"[5,21,29]";"1";"0";"1"
"880";"39";"4";"1";"28";"1";"1";"10";"1";"[10,17,21,24,26,34]";"1";"7";"1"
"881";"21";"4";"1";"33";"1";"1";"10";"2";"[10,21,32,37]";"1";"0";"1"
"882";"1";"4";"1";"7";"1";"1";"10";"1";"[3,8,17,20]";"1";"0";"1"
"883";"37";"4";"1";"25";"1";"1";"10";"1";"[4,15,17,20,26]";"2";"0";"1"
"884";"3";"4";"1";"13";"1";"1";"10";"1";"[21,30]";"1";"0";"1"
"885";"19";"4";"1";"16";"1";"1";"10";"1";"[1,3,8,21,24]";"1";"0";"1"
"886";"32";"4";"1";"12";"1";"1";"10";"1";"[10,29]";"1";"0";"1"
"887";"23";"4";"1";"10";"1";"1";"10";"2";"[12,19,28,33,38]";"2";"0";"1"
"888";"5";"4";"1";"27";"1";"1";"10";"2";"[19,22,23,24,37]";"2";"0";"1"
"889";"26";"5";"1";"5";"1";"1";"10";"1";"[6,11,21,31]";"1";"0";"1"
"890";"27";"5";"1";"31";"1";"1";"10";"1";"[5,21,29]";"1";"0";"1"
"891";"24";"5";"1";"17";"1";"1";"10";"1";"[1,4,7,14,18,25,28,38]";"1";"0";"1"
"892";"20";"5";"1";"40";"1";"1";"10";"2";"[3,14,23,26]";"2";"0";"1"
"893";"35";"5";"1";"1";"1";"1";"10";"1";"[4,16,17]";"2";"0";"1"
"894";"19";"5";"1";"16";"1";"1";"10";"1";"[1,3,8,21,24]";"1";"0";"1"
"895";"15";"5";"1";"3";"1";"1";"10";"1";"[7,15,16,20,29,40]";"1";"0";"1"
"896";"23";"5";"1";"10";"1";"1";"10";"2";"[12,19,28,33,38]";"2";"0";"1"
"897";"26";"6";"1";"5";"1";"1";"10";"1";"[6,11,21,31]";"1";"0";"1"
"898";"18";"6";"1";"34";"1";"1";"10";"2";"[28]";"0";"2";"1"
"899";"13";"6";"1";"22";"1";"1";"10";"1";"[14,26,27,39]";"1";"0";"1"
"900";"11";"6";"1";"14";"1";"1";"10";"1";"[4,8,17,22,37,40]";"1";"0";"1"
"901";"24";"6";"1";"17";"1";"1";"10";"1";"[1,4,7,14,18,25,28,38]";"1";"0";"1"
"902";"20";"6";"1";"40";"1";"1";"10";"2";"[3,14,23,26]";"2";"0";"1"
"903";"9";"6";"1";"11";"1";"1";"10";"1";"[5,15,26,35]";"1";"0";"1"
"904";"35";"6";"1";"1";"1";"1";"10";"1";"[4,16,17]";"2";"0";"1"
"905";"19";"6";"1";"16";"1";"1";"10";"1";"[1,3,8,21,24]";"1";"1";"1"
"906";"18";"6";"1";"34";"1";"1";"10";"2";"[28]";"0";"1";"1"
"907";"15";"6";"1";"3";"1";"1";"10";"1";"[7,15,16,20,29,40]";"1";"0";"1"
"908";"29";"7";"1";"26";"1";"1";"10";"2";"[6,11,19,21,22,25,28,32,40]";"1";"0";"1"
"909";"13";"7";"1";"22";"1";"1";"10";"1";"[14,26,27,39]";"1";"0";"1"
"910";"11";"7";"1";"14";"1";"1";"10";"1";"[4,8,17,22,37,40]";"1";"0";"1"
"911";"18";"7";"1";"34";"1";"1";"10";"2";"[28]";"0";"3";"1"
"912";"9";"7";"1";"11";"1";"1";"10";"1";"[5,15,26,35]";"1";"0";"1"
"913";"16";"7";"1";"32";"1";"1";"10";"1";"[6,21,26,33,36]";"1";"0";"1"
"914";"29";"8";"1";"26";"1";"1";"10";"2";"[6,11,19,21,22,25,28,32,40]";"1";"0";"1"
"915";"19";"8";"1";"16";"1";"1";"10";"1";"[1,3,8,21,24]";"1";"2";"1"
"916";"16";"8";"1";"32";"1";"1";"10";"1";"[6,21,26,33,36]";"1";"0";"1"
"917";"18";"9";"1";"34";"1";"1";"10";"2";"[28]";"0";"4";"1"
"918";"19";"10";"1";"16";"1";"1";"10";"1";"[1,3,8,21,24]";"1";"10";"1"
"919";"18";"10";"1";"34";"1";"1";"10";"2";"[28]";"0";"5";"1"
"920";"18";"11";"1";"34";"1";"1";"10";"2";"[28]";"0";"6";"1"
"921";"18";"11";"1";"34";"1";"1";"10";"2";"[28]";"0";"7";"1"
"922";"30";"11";"1";"38";"1";"1";"10";"2";"[10,17]";"2";"0";"1"
"923";"36";"11";"1";"29";"1";"1";"10";"1";"[3,9,12,31,39]";"1";"0";"1"
"924";"18";"12";"1";"34";"1";"1";"10";"2";"[28]";"0";"8";"1"
"925";"2";"12";"1";"8";"1";"1";"10";"1";"[7,14,16]";"1";"0";"1"
"926";"30";"12";"1";"38";"1";"1";"10";"2";"[10,17]";"2";"0";"1"
"927";"36";"13";"1";"29";"1";"1";"10";"1";"[3,9,12,31,39]";"1";"0";"1"
"928";"18";"13";"1";"34";"1";"1";"10";"2";"[28]";"0";"9";"1"
"929";"2";"13";"1";"8";"1";"1";"10";"1";"[7,14,16]";"1";"0";"1"
"930";"18";"15";"1";"34";"1";"1";"10";"2";"[28]";"0";"10";"1"
"931";"28";"15";"1";"35";"1";"1";"10";"1";"[9,11]";"2";"0";"1"
"932";"18";"15";"1";"34";"1";"1";"10";"2";"[28]";"2";"10";"1"
"933";"28";"16";"1";"35";"1";"1";"10";"1";"[9,11]";"2";"0";"1"
"934";"18";"16";"1";"34";"1";"1";"10";"2";"[28]";"2";"10";"1"
"935";"33";"22";"1";"39";"1";"1";"10";"2";"[2,19,22,29]";"2";"0";"1"
"936";"4";"22";"1";"23";"1";"1";"10";"1";"[18,27,40]";"2";"0";"1"
"937";"33";"23";"1";"39";"1";"1";"10";"2";"[2,19,22,29]";"2";"0";"1"
"938";"12";"23";"1";"19";"1";"1";"10";"1";"[10,26,27,39]";"2";"0";"1"
"939";"4";"23";"1";"23";"1";"1";"10";"1";"[18,27,40]";"2";"0";"1"
"940";"12";"24";"1";"19";"1";"1";"10";"1";"[10,26,27,39]";"2";"0";"1"
"941";"15";"1";"1";"3";"1";"1";"11";"1";"[7,15,16,20,29,40]";"1";"0";"1"
"942";"22";"2";"1";"2";"1";"1";"11";"1";"[15,36,39]";"1";"0";"1"
"943";"6";"2";"1";"21";"1";"1";"11";"1";"[5,13,16,26,28,31,32,33,36]";"1";"0";"1"
"944";"21";"2";"1";"33";"1";"1";"11";"2";"[10,21,32,37]";"1";"0";"1"
"945";"31";"2";"1";"9";"1";"1";"11";"1";"[29,35]";"1";"0";"1"
"946";"34";"2";"1";"15";"1";"1";"11";"2";"[2,3,11,25]";"1";"0";"1"
"947";"15";"2";"1";"3";"1";"1";"11";"1";"[7,15,16,20,29,40]";"1";"0";"1"
"948";"35";"2";"1";"1";"1";"1";"11";"1";"[4,16,17]";"2";"0";"1"
"949";"8";"2";"1";"36";"1";"1";"11";"1";"[2,21,24,32]";"1";"0";"1"
"950";"28";"2";"1";"35";"1";"1";"11";"1";"[9,11]";"1";"0";"1"
"951";"10";"3";"1";"6";"1";"1";"11";"1";"[5,26,32]";"1";"0";"1"
"952";"22";"3";"1";"2";"1";"1";"11";"1";"[15,36,39]";"1";"0";"1"
"953";"36";"3";"1";"29";"1";"1";"11";"1";"[3,9,12,31,39]";"1";"0";"1"
"954";"37";"3";"1";"25";"1";"1";"11";"1";"[4,15,17,20,26]";"2";"0";"1"
"955";"6";"3";"1";"21";"1";"1";"11";"1";"[5,13,16,26,28,31,32,33,36]";"1";"0";"1"
"956";"21";"3";"1";"33";"1";"1";"11";"2";"[10,21,32,37]";"1";"0";"1"
"957";"31";"3";"1";"9";"1";"1";"11";"1";"[29,35]";"1";"0";"1"
"958";"25";"3";"1";"37";"1";"1";"11";"1";"[14,27,33]";"1";"0";"1"
"959";"34";"3";"1";"15";"1";"1";"11";"2";"[2,3,11,25]";"1";"0";"1"
"960";"33";"3";"1";"39";"1";"1";"11";"2";"[2,19,22,29]";"2";"0";"1"
"961";"32";"3";"1";"12";"1";"1";"11";"1";"[10,29]";"1";"0";"1"
"962";"16";"3";"1";"32";"1";"1";"11";"1";"[6,21,26,33,36]";"1";"0";"1"
"963";"35";"3";"1";"1";"1";"1";"11";"1";"[4,16,17]";"2";"0";"1"
"964";"8";"3";"1";"36";"1";"1";"11";"1";"[2,21,24,32]";"1";"0";"1"
"965";"28";"3";"1";"35";"1";"1";"11";"1";"[9,11]";"1";"0";"1"
"966";"40";"4";"1";"4";"1";"1";"11";"1";"[1,14,17,25]";"1";"0";"1"
"967";"39";"4";"1";"28";"1";"1";"11";"1";"[10,17,21,24,26,34]";"1";"0";"1"
"968";"10";"4";"1";"6";"1";"1";"11";"1";"[5,26,32]";"1";"0";"1"
"969";"18";"4";"1";"34";"1";"1";"11";"2";"[28]";"1";"0";"1"
"970";"27";"4";"1";"31";"1";"1";"11";"1";"[5,21,29]";"1";"0";"1"
"971";"36";"4";"1";"29";"1";"1";"11";"1";"[3,9,12,31,39]";"1";"0";"1"
"972";"2";"4";"1";"8";"1";"1";"11";"1";"[7,14,16]";"2";"0";"1"
"973";"23";"4";"1";"10";"1";"1";"11";"2";"[12,19,28,33,38]";"2";"0";"1"
"974";"37";"4";"1";"25";"1";"1";"11";"1";"[4,15,17,20,26]";"2";"0";"1"
"975";"5";"4";"1";"27";"1";"1";"11";"2";"[19,22,23,24,37]";"2";"0";"1"
"976";"19";"4";"1";"16";"1";"1";"11";"1";"[1,3,8,21,24]";"1";"0";"1"
"977";"1";"4";"1";"7";"1";"1";"11";"1";"[3,8,17,20]";"1";"0";"1"
"978";"11";"4";"1";"14";"1";"1";"11";"1";"[4,8,17,22,37,40]";"1";"0";"1"
"979";"7";"4";"1";"18";"1";"1";"11";"1";"[17,23]";"1";"0";"1"
"980";"25";"4";"1";"37";"1";"1";"11";"1";"[14,27,33]";"1";"0";"1"
"981";"33";"4";"1";"39";"1";"1";"11";"2";"[2,19,22,29]";"2";"0";"1"
"982";"32";"4";"1";"12";"1";"1";"11";"1";"[10,29]";"1";"0";"1"
"983";"29";"4";"1";"26";"1";"1";"11";"2";"[6,11,19,21,22,25,28,32,40]";"0";"9";"1"
"984";"16";"4";"1";"32";"1";"1";"11";"1";"[6,21,26,33,36]";"1";"0";"1"
"985";"38";"4";"1";"24";"1";"1";"11";"1";"[16,27,28,36]";"1";"0";"1"
"986";"3";"4";"1";"13";"1";"1";"11";"1";"[21,30]";"1";"0";"1"
"987";"40";"5";"1";"4";"1";"1";"11";"1";"[1,14,17,25]";"1";"0";"1"
"988";"39";"5";"1";"28";"1";"1";"11";"1";"[10,17,21,24,26,34]";"1";"0";"1"
"989";"27";"5";"1";"31";"1";"1";"11";"1";"[5,21,29]";"1";"0";"1"
"990";"18";"5";"1";"34";"1";"1";"11";"2";"[28]";"1";"0";"1"
"991";"2";"5";"1";"8";"1";"1";"11";"1";"[7,14,16]";"2";"0";"1"
"992";"23";"5";"1";"10";"1";"1";"11";"2";"[12,19,28,33,38]";"2";"0";"1"
"993";"5";"5";"1";"27";"1";"1";"11";"2";"[19,22,23,24,37]";"2";"0";"1"
"994";"19";"5";"1";"16";"1";"1";"11";"1";"[1,3,8,21,24]";"1";"0";"1"
"995";"1";"5";"1";"7";"1";"1";"11";"1";"[3,8,17,20]";"1";"0";"1"
"996";"11";"5";"1";"14";"1";"1";"11";"1";"[4,8,17,22,37,40]";"1";"0";"1"
"997";"14";"5";"1";"30";"1";"1";"11";"1";"[13]";"1";"0";"1"
"998";"7";"5";"1";"18";"1";"1";"11";"1";"[17,23]";"1";"0";"1"
"999";"26";"5";"1";"5";"1";"1";"11";"1";"[6,11,21,31]";"1";"0";"1"
"1000";"38";"5";"1";"24";"1";"1";"11";"1";"[16,27,28,36]";"1";"0";"1"
"1001";"3";"5";"1";"13";"1";"1";"11";"1";"[21,30]";"1";"0";"1"
"1002";"29";"6";"1";"26";"1";"1";"11";"2";"[6,11,19,21,22,25,28,32,40]";"0";"10";"1"
"1003";"14";"6";"1";"30";"1";"1";"11";"1";"[13]";"1";"0";"1"
"1004";"26";"6";"1";"5";"1";"1";"11";"1";"[6,11,21,31]";"1";"0";"1"
"1005";"9";"7";"1";"11";"1";"1";"11";"1";"[5,15,26,35]";"1";"0";"1"
"1006";"29";"7";"1";"26";"1";"1";"11";"2";"[6,11,19,21,22,25,28,32,40]";"0";"9";"1"
"1007";"17";"8";"1";"20";"1";"1";"11";"2";"[3,7,25]";"1";"0";"1"
"1008";"9";"8";"1";"11";"1";"1";"11";"1";"[5,15,26,35]";"1";"0";"1"
"1009";"17";"9";"1";"20";"1";"1";"11";"2";"[3,7,25]";"1";"0";"1"
"1010";"29";"9";"1";"26";"1";"1";"11";"2";"[6,11,19,21,22,25,28,32,40]";"0";"10";"1"
"1011";"12";"10";"1";"19";"1";"1";"11";"1";"[10,26,27,39]";"2";"0";"1"
"1012";"20";"11";"1";"40";"1";"1";"11";"2";"[3,14,23,26]";"2";"0";"1"
"1013";"30";"11";"1";"38";"1";"1";"11";"2";"[10,17]";"2";"0";"1"
"1014";"13";"11";"1";"22";"1";"1";"11";"1";"[14,26,27,39]";"1";"0";"1"
"1015";"12";"11";"1";"19";"1";"1";"11";"1";"[10,26,27,39]";"2";"0";"1"
"1016";"29";"11";"1";"26";"1";"1";"11";"2";"[6,11,19,21,22,25,28,32,40]";"1";"10";"1"
"1017";"20";"12";"1";"40";"1";"1";"11";"2";"[3,14,23,26]";"2";"0";"1"
"1018";"30";"12";"1";"38";"1";"1";"11";"2";"[10,17]";"2";"0";"1"
"1019";"13";"12";"1";"22";"1";"1";"11";"1";"[14,26,27,39]";"1";"0";"1"
"1020";"29";"12";"1";"26";"1";"1";"11";"2";"[6,11,19,21,22,25,28,32,40]";"1";"10";"1"
"1021";"4";"14";"1";"23";"1";"1";"11";"1";"[18,27,40]";"2";"0";"1"
"1022";"4";"15";"1";"23";"1";"1";"11";"1";"[18,27,40]";"2";"0";"1"
"1023";"24";"17";"1";"17";"1";"1";"11";"1";"[1,4,7,14,18,25,28,38]";"1";"0";"1"
"1024";"24";"18";"1";"17";"1";"1";"11";"1";"[1,4,7,14,18,25,28,38]";"1";"0";"1"
"1025";"35";"1";"1";"1";"1";"1";"12";"1";"[4,16,17]";"2";"0";"1"
"1026";"6";"1";"1";"21";"1";"1";"12";"1";"[5,13,16,26,28,31,32,33,36]";"1";"0";"1"
"1027";"2";"2";"1";"8";"1";"1";"12";"1";"[7,14,16]";"1";"0";"1"
"1028";"8";"2";"1";"36";"1";"1";"12";"1";"[2,21,24,32]";"1";"0";"1"
"1029";"39";"2";"1";"28";"1";"1";"12";"1";"[10,17,21,24,26,34]";"1";"0";"1"
"1030";"35";"2";"1";"1";"1";"1";"12";"1";"[4,16,17]";"2";"0";"1"
"1031";"10";"2";"1";"6";"1";"1";"12";"1";"[5,26,32]";"1";"0";"1"
"1032";"21";"2";"1";"33";"1";"1";"12";"2";"[10,21,32,37]";"1";"0";"1"
"1033";"13";"2";"1";"22";"1";"1";"12";"1";"[14,26,27,39]";"1";"0";"1"
"1034";"32";"2";"1";"12";"1";"1";"12";"1";"[10,29]";"2";"0";"1"
"1035";"22";"2";"1";"2";"1";"1";"12";"1";"[15,36,39]";"1";"0";"1"
"1036";"6";"2";"1";"21";"1";"1";"12";"1";"[5,13,16,26,28,31,32,33,36]";"1";"0";"1"
"1037";"33";"2";"1";"39";"1";"1";"12";"2";"[2,19,22,29]";"2";"0";"1"
"1038";"3";"3";"1";"13";"1";"1";"12";"1";"[21,30]";"1";"0";"1"
"1039";"4";"3";"1";"23";"1";"1";"12";"1";"[18,27,40]";"2";"0";"1"
"1040";"38";"3";"1";"24";"1";"1";"12";"1";"[16,27,28,36]";"1";"0";"1"
"1041";"14";"3";"1";"30";"1";"1";"12";"1";"[13]";"1";"0";"1"
"1042";"2";"3";"1";"8";"1";"1";"12";"1";"[7,14,16]";"1";"0";"1"
"1043";"8";"3";"1";"36";"1";"1";"12";"1";"[2,21,24,32]";"1";"0";"1"
"1044";"39";"3";"1";"28";"1";"1";"12";"1";"[10,17,21,24,26,34]";"1";"0";"1"
"1045";"20";"3";"1";"40";"1";"1";"12";"2";"[3,14,23,26]";"2";"0";"1"
"1046";"10";"3";"1";"6";"1";"1";"12";"1";"[5,26,32]";"1";"0";"1"
"1047";"15";"3";"1";"3";"1";"1";"12";"1";"[7,15,16,20,29,40]";"1";"0";"1"
"1048";"7";"3";"1";"18";"1";"1";"12";"1";"[17,23]";"1";"0";"1"
"1049";"21";"3";"1";"33";"1";"1";"12";"2";"[10,21,32,37]";"1";"0";"1"
"1050";"13";"3";"1";"22";"1";"1";"12";"1";"[14,26,27,39]";"1";"0";"1"
"1051";"32";"3";"1";"12";"1";"1";"12";"1";"[10,29]";"2";"0";"1"
"1052";"17";"3";"1";"20";"1";"1";"12";"2";"[3,7,25]";"1";"0";"1"
"1053";"22";"3";"1";"2";"1";"1";"12";"1";"[15,36,39]";"1";"0";"1"
"1054";"33";"3";"1";"39";"1";"1";"12";"2";"[2,19,22,29]";"2";"0";"1"
"1055";"3";"4";"1";"13";"1";"1";"12";"1";"[21,30]";"1";"0";"1"
"1056";"4";"4";"1";"23";"1";"1";"12";"1";"[18,27,40]";"2";"0";"1"
"1057";"18";"4";"1";"34";"1";"1";"12";"2";"[28]";"1";"0";"1"
"1058";"38";"4";"1";"24";"1";"1";"12";"1";"[16,27,28,36]";"1";"0";"1"
"1059";"27";"4";"1";"31";"1";"1";"12";"1";"[5,21,29]";"1";"0";"1"
"1060";"14";"4";"1";"30";"1";"1";"12";"1";"[13]";"1";"0";"1"
"1061";"19";"4";"1";"16";"1";"1";"12";"1";"[1,3,8,21,24]";"1";"0";"1"
"1062";"20";"4";"1";"40";"1";"1";"12";"2";"[3,14,23,26]";"2";"0";"1"
"1063";"40";"4";"1";"4";"1";"1";"12";"1";"[1,14,17,25]";"1";"0";"1"
"1064";"15";"4";"1";"3";"1";"1";"12";"1";"[7,15,16,20,29,40]";"1";"0";"1"
"1065";"31";"4";"1";"9";"1";"1";"12";"1";"[29,35]";"1";"0";"1"
"1066";"7";"4";"1";"18";"1";"1";"12";"1";"[17,23]";"1";"0";"1"
"1067";"17";"4";"1";"20";"1";"1";"12";"2";"[3,7,25]";"1";"0";"1"
"1068";"25";"4";"1";"37";"1";"1";"12";"1";"[14,27,33]";"1";"0";"1"
"1069";"34";"4";"1";"15";"1";"1";"12";"2";"[2,3,11,25]";"1";"0";"1"
"1070";"28";"5";"1";"35";"1";"1";"12";"1";"[9,11]";"1";"0";"1"
"1071";"18";"5";"1";"34";"1";"1";"12";"2";"[28]";"1";"0";"1"
"1072";"11";"5";"1";"14";"1";"1";"12";"1";"[4,8,17,22,37,40]";"1";"0";"1"
"1073";"27";"5";"1";"31";"1";"1";"12";"1";"[5,21,29]";"1";"0";"1"
"1074";"19";"5";"1";"16";"1";"1";"12";"1";"[1,3,8,21,24]";"1";"0";"1"
"1075";"37";"5";"1";"25";"1";"1";"12";"1";"[4,15,17,20,26]";"2";"0";"1"
"1076";"5";"5";"1";"27";"1";"1";"12";"2";"[19,22,23,24,37]";"2";"0";"1"
"1077";"40";"5";"1";"4";"1";"1";"12";"1";"[1,14,17,25]";"1";"0";"1"
"1078";"31";"5";"1";"9";"1";"1";"12";"1";"[29,35]";"1";"0";"1"
"1079";"16";"5";"1";"32";"1";"1";"12";"1";"[6,21,26,33,36]";"1";"0";"1"
"1080";"25";"5";"1";"37";"1";"1";"12";"1";"[14,27,33]";"1";"0";"1"
"1081";"34";"5";"1";"15";"1";"1";"12";"2";"[2,3,11,25]";"1";"0";"1"
"1082";"1";"5";"1";"7";"1";"1";"12";"1";"[3,8,17,20]";"1";"0";"1"
"1083";"28";"6";"1";"35";"1";"1";"12";"1";"[9,11]";"1";"0";"1"
"1084";"11";"6";"1";"14";"1";"1";"12";"1";"[4,8,17,22,37,40]";"1";"0";"1"
"1085";"37";"6";"1";"25";"1";"1";"12";"1";"[4,15,17,20,26]";"2";"0";"1"
"1086";"5";"6";"1";"27";"1";"1";"12";"2";"[19,22,23,24,37]";"2";"0";"1"
"1087";"36";"6";"1";"29";"1";"1";"12";"1";"[3,9,12,31,39]";"1";"0";"1"
"1088";"16";"6";"1";"32";"1";"1";"12";"1";"[6,21,26,33,36]";"1";"0";"1"
"1089";"1";"6";"1";"7";"1";"1";"12";"1";"[3,8,17,20]";"1";"0";"1"
"1090";"36";"7";"1";"29";"1";"1";"12";"1";"[3,9,12,31,39]";"1";"0";"1"
"1091";"23";"7";"1";"10";"1";"1";"12";"2";"[12,19,28,33,38]";"2";"0";"1"
"1092";"26";"8";"1";"5";"1";"1";"12";"1";"[6,11,21,31]";"1";"0";"1"
"1093";"9";"8";"1";"11";"1";"1";"12";"1";"[5,15,26,35]";"1";"0";"1"
"1094";"24";"8";"1";"17";"1";"1";"12";"1";"[1,4,7,14,18,25,28,38]";"1";"0";"1"
"1095";"23";"9";"1";"10";"1";"1";"12";"2";"[12,19,28,33,38]";"2";"0";"1"
"1096";"26";"9";"1";"5";"1";"1";"12";"1";"[6,11,21,31]";"1";"0";"1"
"1097";"9";"9";"1";"11";"1";"1";"12";"1";"[5,15,26,35]";"1";"0";"1"
"1098";"24";"9";"1";"17";"1";"1";"12";"1";"[1,4,7,14,18,25,28,38]";"1";"0";"1"
"1099";"29";"11";"1";"26";"1";"1";"12";"2";"[6,11,19,21,22,25,28,32,40]";"1";"0";"1"
"1100";"29";"12";"1";"26";"1";"1";"12";"2";"[6,11,19,21,22,25,28,32,40]";"1";"0";"1"
"1101";"30";"13";"1";"38";"1";"1";"12";"2";"[10,17]";"2";"0";"1"
"1102";"30";"14";"1";"38";"1";"1";"12";"2";"[10,17]";"2";"0";"1"
"1103";"12";"24";"1";"19";"1";"1";"12";"1";"[10,26,27,39]";"2";"0";"1"
"1104";"12";"25";"1";"19";"1";"1";"12";"1";"[10,26,27,39]";"2";"0";"1"
"1105";"39";"0";"1";"39";"1";"2";"12";"1";"[2,19,22,29]";"2";"0";"1"
"1106";"31";"0";"1";"3";"1";"2";"12";"2";"[7,15,16,20,29,40]";"1";"0";"1"
"1107";"7";"0";"1";"14";"1";"2";"12";"2";"[4,8,17,22,37,40]";"1";"0";"1"
"1108";"40";"0";"1";"25";"1";"2";"12";"1";"[4,15,17,20,26]";"2";"0";"1"
"1109";"25";"0";"1";"29";"1";"2";"12";"2";"[3,9,12,31,39]";"1";"0";"1"
"1110";"37";"0";"1";"19";"1";"2";"12";"1";"[10,26,27,39]";"2";"0";"1"
"1111";"1";"0";"1";"15";"1";"2";"12";"1";"[2,3,11,25]";"1";"0";"1"
"1112";"26";"0";"1";"37";"1";"2";"12";"1";"[14,27,33]";"1";"0";"1"
"1113";"22";"0";"1";"26";"1";"2";"12";"1";"[6,11,19,21,22,25,28,32,40]";"1";"0";"1"
"1114";"8";"0";"1";"38";"1";"2";"12";"2";"[10,17]";"2";"0";"1"
"1115";"14";"0";"1";"28";"1";"2";"12";"2";"[10,17,21,24,26,34]";"1";"0";"1"
"1116";"16";"0";"1";"24";"1";"2";"12";"1";"[16,27,28,36]";"1";"0";"1"
"1117";"11";"0";"1";"8";"1";"2";"12";"2";"[7,14,16]";"1";"0";"1"
"1118";"9";"0";"1";"9";"1";"2";"12";"2";"[29,35]";"1";"0";"1"
"1119";"2";"0";"1";"11";"1";"2";"12";"2";"[5,15,26,35]";"1";"0";"1"
"1120";"6";"0";"1";"35";"1";"2";"12";"2";"[9,11]";"1";"0";"1"
"1121";"34";"0";"1";"16";"1";"2";"12";"2";"[1,3,8,21,24]";"1";"0";"1"
"1122";"30";"0";"1";"32";"1";"2";"12";"2";"[6,21,26,33,36]";"1";"0";"1"
"1123";"3";"0";"1";"17";"1";"2";"12";"2";"[1,4,7,14,18,25,28,38]";"1";"0";"1"
"1124";"33";"0";"1";"4";"1";"2";"12";"2";"[1,14,17,25]";"1";"0";"1"
"1125";"35";"0";"1";"36";"1";"2";"12";"1";"[2,21,24,32]";"1";"0";"1"
"1126";"28";"0";"1";"20";"1";"2";"12";"1";"[3,7,25]";"1";"0";"1"
"1127";"36";"0";"1";"30";"1";"2";"12";"2";"[13]";"1";"0";"1"
"1128";"21";"0";"1";"21";"1";"2";"12";"2";"[5,13,16,26,28,31,32,33,36]";"1";"0";"1"
"1129";"24";"0";"1";"10";"1";"2";"12";"2";"[12,19,28,33,38]";"2";"0";"1"
"1130";"27";"0";"1";"33";"1";"2";"12";"2";"[10,21,32,37]";"1";"0";"1"
"1131";"38";"0";"1";"23";"1";"2";"12";"2";"[18,27,40]";"2";"0";"1"
"1132";"5";"0";"1";"2";"1";"2";"12";"2";"[15,36,39]";"1";"0";"1"
"1133";"32";"0";"1";"27";"1";"2";"12";"1";"[19,22,23,24,37]";"2";"0";"1"
"1134";"10";"0";"1";"31";"1";"2";"12";"2";"[5,21,29]";"1";"0";"1"
"1135";"19";"0";"1";"1";"1";"2";"12";"2";"[4,16,17]";"2";"0";"1"
"1136";"15";"0";"1";"7";"1";"2";"12";"1";"[3,8,17,20]";"1";"0";"1"
"1137";"20";"0";"1";"18";"1";"2";"12";"2";"[17,23]";"1";"0";"1"
"1138";"23";"0";"1";"5";"1";"2";"12";"2";"[6,11,21,31]";"1";"0";"1"
"1139";"29";"0";"1";"34";"1";"2";"12";"2";"[28]";"1";"0";"1"
"1140";"12";"0";"1";"12";"1";"2";"12";"1";"[10,29]";"2";"0";"1"
"1141";"4";"0";"1";"40";"1";"2";"12";"2";"[3,14,23,26]";"2";"0";"1"
"1142";"13";"0";"1";"13";"1";"2";"12";"2";"[21,30]";"1";"0";"1"
"1143";"18";"0";"1";"6";"1";"2";"12";"1";"[5,26,32]";"1";"0";"1"
"1144";"17";"0";"1";"22";"1";"2";"12";"2";"[14,26,27,39]";"1";"0";"1"
"1145";"6";"2";"1";"35";"1";"2";"1";"2";"[9,11]";"2";"0";"1"
"1146";"39";"2";"1";"39";"1";"2";"1";"1";"[2,19,22,29]";"1";"0";"1"
"1147";"10";"2";"1";"31";"1";"2";"1";"2";"[5,21,29]";"2";"0";"1"
"1148";"6";"3";"1";"35";"1";"2";"1";"2";"[9,11]";"2";"0";"1"
"1149";"4";"3";"1";"40";"1";"2";"1";"2";"[3,14,23,26]";"2";"0";"1"
"1150";"8";"3";"1";"38";"1";"2";"1";"2";"[10,17]";"2";"0";"1"
"1151";"7";"3";"1";"14";"1";"2";"1";"2";"[4,8,17,22,37,40]";"2";"0";"1"
"1152";"38";"3";"1";"23";"1";"2";"1";"2";"[18,27,40]";"2";"0";"1"
"1153";"39";"3";"1";"39";"1";"2";"1";"1";"[2,19,22,29]";"1";"0";"1"
"1154";"30";"3";"1";"32";"1";"2";"1";"2";"[6,21,26,33,36]";"2";"0";"1"
"1155";"10";"3";"1";"31";"1";"2";"1";"2";"[5,21,29]";"2";"0";"1"
"1156";"25";"4";"1";"29";"1";"2";"1";"2";"[3,9,12,31,39]";"2";"0";"1"
"1157";"22";"4";"1";"26";"1";"2";"1";"1";"[6,11,19,21,22,25,28,32,40]";"1";"0";"1"
"1158";"4";"4";"1";"40";"1";"2";"1";"2";"[3,14,23,26]";"2";"0";"1"
"1159";"11";"4";"1";"8";"1";"2";"1";"2";"[7,14,16]";"2";"0";"1"
"1160";"40";"4";"1";"25";"1";"2";"1";"1";"[4,15,17,20,26]";"1";"0";"1"
"1161";"8";"4";"1";"38";"1";"2";"1";"2";"[10,17]";"2";"0";"1"
"1162";"7";"4";"1";"14";"1";"2";"1";"2";"[4,8,17,22,37,40]";"2";"0";"1"
"1163";"38";"4";"1";"23";"1";"2";"1";"2";"[18,27,40]";"2";"0";"1"
"1164";"12";"4";"1";"12";"1";"2";"1";"1";"[10,29]";"1";"0";"1"
"1165";"30";"4";"1";"32";"1";"2";"1";"2";"[6,21,26,33,36]";"2";"0";"1"
"1166";"31";"4";"1";"3";"1";"2";"1";"2";"[7,15,16,20,29,40]";"2";"0";"1"
"1167";"35";"4";"1";"36";"1";"2";"1";"1";"[2,21,24,32]";"1";"0";"1"
"1168";"34";"4";"1";"16";"1";"2";"1";"2";"[1,3,8,21,24]";"2";"0";"1"
"1169";"21";"4";"1";"21";"1";"2";"1";"2";"[5,13,16,26,28,31,32,33,36]";"1";"0";"1"
"1170";"25";"5";"1";"29";"1";"2";"1";"2";"[3,9,12,31,39]";"2";"0";"1"
"1171";"22";"5";"1";"26";"1";"2";"1";"1";"[6,11,19,21,22,25,28,32,40]";"1";"0";"1"
"1172";"33";"5";"1";"4";"1";"2";"1";"2";"[1,14,17,25]";"2";"0";"1"
"1173";"11";"5";"1";"8";"1";"2";"1";"2";"[7,14,16]";"2";"0";"1"
"1174";"40";"5";"1";"25";"1";"2";"1";"1";"[4,15,17,20,26]";"1";"0";"1"
"1175";"19";"5";"1";"1";"1";"2";"1";"2";"[4,16,17]";"2";"0";"1"
"1176";"12";"5";"1";"12";"1";"2";"1";"1";"[10,29]";"1";"0";"1"
"1177";"31";"5";"1";"3";"1";"2";"1";"2";"[7,15,16,20,29,40]";"2";"0";"1"
"1178";"35";"5";"1";"36";"1";"2";"1";"1";"[2,21,24,32]";"1";"0";"1"
"1179";"2";"5";"1";"11";"1";"2";"1";"2";"[5,15,26,35]";"2";"0";"1"
"1180";"34";"5";"1";"16";"1";"2";"1";"2";"[1,3,8,21,24]";"2";"0";"1"
"1181";"21";"5";"1";"21";"1";"2";"1";"2";"[5,13,16,26,28,31,32,33,36]";"1";"0";"1"
"1182";"33";"6";"1";"4";"1";"2";"1";"2";"[1,14,17,25]";"2";"0";"1"
"1183";"26";"6";"1";"37";"1";"2";"1";"1";"[14,27,33]";"1";"0";"1"
"1184";"19";"6";"1";"1";"1";"2";"1";"2";"[4,16,17]";"2";"0";"1"
"1185";"2";"6";"1";"11";"1";"2";"1";"2";"[5,15,26,35]";"2";"0";"1"
"1186";"5";"6";"1";"2";"1";"2";"1";"2";"[15,36,39]";"2";"0";"1"
"1187";"1";"6";"1";"15";"1";"2";"1";"1";"[2,3,11,25]";"1";"0";"1"
"1188";"16";"7";"1";"24";"1";"2";"1";"1";"[16,27,28,36]";"1";"0";"1"
"1189";"36";"7";"1";"30";"1";"2";"1";"2";"[13]";"2";"0";"1"
"1190";"14";"7";"1";"28";"1";"2";"1";"2";"[10,17,21,24,26,34]";"2";"0";"1"
"1191";"26";"7";"1";"37";"1";"2";"1";"1";"[14,27,33]";"1";"0";"1"
"1192";"5";"7";"1";"2";"1";"2";"1";"2";"[15,36,39]";"2";"0";"1"
"1193";"1";"7";"1";"15";"1";"2";"1";"1";"[2,3,11,25]";"1";"0";"1"
"1194";"29";"8";"1";"34";"1";"2";"1";"2";"[28]";"2";"0";"1"
"1195";"16";"8";"1";"24";"1";"2";"1";"1";"[16,27,28,36]";"1";"0";"1"
"1196";"13";"8";"1";"13";"1";"2";"1";"2";"[21,30]";"2";"0";"1"
"1197";"36";"8";"1";"30";"1";"2";"1";"2";"[13]";"2";"0";"1"
"1198";"14";"8";"1";"28";"1";"2";"1";"2";"[10,17,21,24,26,34]";"2";"0";"1"
"1199";"18";"8";"1";"6";"1";"2";"1";"1";"[5,26,32]";"1";"0";"1"
"1200";"27";"8";"1";"33";"1";"2";"1";"2";"[10,21,32,37]";"2";"0";"1"
"1201";"29";"9";"1";"34";"1";"2";"1";"2";"[28]";"2";"0";"1"
"1202";"13";"9";"1";"13";"1";"2";"1";"2";"[21,30]";"2";"0";"1"
"1203";"3";"9";"1";"17";"1";"2";"1";"2";"[1,4,7,14,18,25,28,38]";"1";"0";"1"
"1204";"37";"9";"1";"19";"1";"2";"1";"1";"[10,26,27,39]";"1";"0";"1"
"1205";"20";"9";"1";"18";"1";"2";"1";"2";"[17,23]";"2";"0";"1"
"1206";"18";"9";"1";"6";"1";"2";"1";"1";"[5,26,32]";"1";"0";"1"
"1207";"27";"10";"1";"33";"1";"2";"1";"2";"[10,21,32,37]";"2";"0";"1"
"1208";"3";"10";"1";"17";"1";"2";"1";"2";"[1,4,7,14,18,25,28,38]";"1";"0";"1"
"1209";"37";"10";"1";"19";"1";"2";"1";"1";"[10,26,27,39]";"1";"0";"1"
"1210";"20";"10";"1";"18";"1";"2";"1";"2";"[17,23]";"2";"0";"1"
"1211";"24";"11";"1";"10";"1";"2";"1";"2";"[12,19,28,33,38]";"2";"0";"1"
"1212";"15";"12";"1";"7";"1";"2";"1";"1";"[3,8,17,20]";"1";"0";"1"
"1213";"24";"12";"1";"10";"1";"2";"1";"2";"[12,19,28,33,38]";"2";"0";"1"
"1214";"15";"13";"1";"7";"1";"2";"1";"1";"[3,8,17,20]";"1";"0";"1"
"1215";"28";"14";"1";"20";"1";"2";"1";"1";"[3,7,25]";"1";"0";"1"
"1216";"28";"15";"1";"20";"1";"2";"1";"1";"[3,7,25]";"1";"0";"1"
"1217";"32";"16";"1";"27";"1";"2";"1";"1";"[19,22,23,24,37]";"1";"0";"1"
"1218";"32";"17";"1";"27";"1";"2";"1";"1";"[19,22,23,24,37]";"1";"0";"1"
"1219";"17";"17";"1";"22";"1";"2";"1";"2";"[14,26,27,39]";"2";"0";"1"
"1220";"9";"17";"1";"9";"1";"2";"1";"2";"[29,35]";"2";"0";"1"
"1221";"17";"18";"1";"22";"1";"2";"1";"2";"[14,26,27,39]";"2";"0";"1"
"1222";"9";"18";"1";"9";"1";"2";"1";"2";"[29,35]";"2";"0";"1"
"1223";"23";"20";"1";"5";"1";"2";"1";"2";"[6,11,21,31]";"2";"0";"1"
"1224";"23";"21";"1";"5";"1";"2";"1";"2";"[6,11,21,31]";"2";"0";"1"
"1225";"30";"1";"1";"32";"1";"2";"2";"2";"[6,21,26,33,36]";"2";"0";"1"
"1226";"6";"2";"1";"35";"1";"2";"2";"2";"[9,11]";"2";"0";"1"
"1227";"25";"2";"1";"29";"1";"2";"2";"2";"[3,9,12,31,39]";"2";"0";"1"
"1228";"30";"2";"1";"32";"1";"2";"2";"2";"[6,21,26,33,36]";"2";"0";"1"
"1229";"6";"3";"1";"35";"1";"2";"2";"2";"[9,11]";"2";"0";"1"
"1230";"34";"3";"1";"16";"1";"2";"2";"2";"[1,3,8,21,24]";"2";"0";"1"
"1231";"5";"3";"1";"2";"1";"2";"2";"2";"[15,36,39]";"1";"0";"1"
"1232";"33";"3";"1";"4";"1";"2";"2";"2";"[1,14,17,25]";"2";"0";"1"
"1233";"39";"3";"1";"39";"1";"2";"2";"1";"[2,19,22,29]";"1";"0";"1"
"1234";"25";"3";"1";"29";"1";"2";"2";"2";"[3,9,12,31,39]";"2";"0";"1"
"1235";"7";"3";"1";"14";"1";"2";"2";"2";"[4,8,17,22,37,40]";"2";"0";"1"
"1236";"8";"3";"1";"38";"1";"2";"2";"2";"[10,17]";"2";"0";"1"
"1237";"10";"3";"1";"31";"1";"2";"2";"2";"[5,21,29]";"2";"0";"1"
"1238";"40";"3";"1";"25";"1";"2";"2";"1";"[4,15,17,20,26]";"1";"0";"1"
"1239";"34";"4";"1";"16";"1";"2";"2";"2";"[1,3,8,21,24]";"2";"0";"1"
"1240";"5";"4";"1";"2";"1";"2";"2";"2";"[15,36,39]";"1";"0";"1"
"1241";"33";"4";"1";"4";"1";"2";"2";"2";"[1,14,17,25]";"2";"0";"1"
"1242";"37";"4";"1";"19";"1";"2";"2";"1";"[10,26,27,39]";"1";"0";"1"
"1243";"39";"4";"1";"39";"1";"2";"2";"1";"[2,19,22,29]";"1";"0";"1"
"1244";"7";"4";"1";"14";"1";"2";"2";"2";"[4,8,17,22,37,40]";"2";"0";"1"
"1245";"8";"4";"1";"38";"1";"2";"2";"2";"[10,17]";"2";"0";"1"
"1246";"10";"4";"1";"31";"1";"2";"2";"2";"[5,21,29]";"2";"0";"1"
"1247";"40";"4";"1";"25";"1";"2";"2";"1";"[4,15,17,20,26]";"1";"0";"1"
"1248";"11";"5";"1";"8";"1";"2";"2";"2";"[7,14,16]";"2";"0";"1"
"1249";"38";"5";"1";"23";"1";"2";"2";"2";"[18,27,40]";"2";"0";"1"
"1250";"37";"5";"1";"19";"1";"2";"2";"1";"[10,26,27,39]";"1";"0";"1"
"1251";"20";"5";"1";"18";"1";"2";"2";"2";"[17,23]";"2";"0";"1"
"1252";"35";"5";"1";"36";"1";"2";"2";"1";"[2,21,24,32]";"1";"0";"1"
"1253";"18";"6";"1";"6";"1";"2";"2";"1";"[5,26,32]";"1";"0";"1"
"1254";"11";"6";"1";"8";"1";"2";"2";"2";"[7,14,16]";"2";"0";"1"
"1255";"38";"6";"1";"23";"1";"2";"2";"2";"[18,27,40]";"2";"0";"1"
"1256";"16";"6";"1";"24";"1";"2";"2";"1";"[16,27,28,36]";"1";"0";"1"
"1257";"26";"6";"1";"37";"1";"2";"2";"1";"[14,27,33]";"1";"0";"1"
"1258";"20";"6";"1";"18";"1";"2";"2";"2";"[17,23]";"2";"0";"1"
"1259";"35";"6";"1";"36";"1";"2";"2";"1";"[2,21,24,32]";"1";"0";"1"
"1260";"29";"6";"1";"34";"1";"2";"2";"2";"[28]";"2";"0";"1"
"1261";"18";"7";"1";"6";"1";"2";"2";"1";"[5,26,32]";"1";"0";"1"
"1262";"16";"7";"1";"24";"1";"2";"2";"1";"[16,27,28,36]";"1";"0";"1"
"1263";"21";"7";"1";"21";"1";"2";"2";"2";"[5,13,16,26,28,31,32,33,36]";"1";"0";"1"
"1264";"26";"7";"1";"37";"1";"2";"2";"1";"[14,27,33]";"1";"0";"1"
"1265";"19";"7";"1";"1";"1";"2";"2";"2";"[4,16,17]";"2";"0";"1"
"1266";"32";"7";"1";"27";"1";"2";"2";"1";"[19,22,23,24,37]";"1";"0";"1"
"1267";"29";"7";"1";"34";"1";"2";"2";"2";"[28]";"2";"0";"1"
"1268";"22";"8";"1";"26";"1";"2";"2";"1";"[6,11,19,21,22,25,28,32,40]";"1";"0";"1"
"1269";"21";"8";"1";"21";"1";"2";"2";"2";"[5,13,16,26,28,31,32,33,36]";"1";"0";"1"
"1270";"19";"8";"1";"1";"1";"2";"2";"2";"[4,16,17]";"2";"0";"1"
"1271";"24";"8";"1";"10";"1";"2";"2";"2";"[12,19,28,33,38]";"2";"0";"1"
"1272";"32";"8";"1";"27";"1";"2";"2";"1";"[19,22,23,24,37]";"1";"0";"1"
"1273";"17";"8";"1";"22";"1";"2";"2";"2";"[14,26,27,39]";"1";"0";"1"
"1274";"22";"9";"1";"26";"1";"2";"2";"1";"[6,11,19,21,22,25,28,32,40]";"1";"0";"1"
"1275";"24";"9";"1";"10";"1";"2";"2";"2";"[12,19,28,33,38]";"2";"0";"1"
"1276";"17";"9";"1";"22";"1";"2";"2";"2";"[14,26,27,39]";"1";"0";"1"
"1277";"4";"10";"1";"40";"1";"2";"2";"2";"[3,14,23,26]";"2";"0";"1"
"1278";"1";"11";"1";"15";"1";"2";"2";"1";"[2,3,11,25]";"2";"0";"1"
"1279";"4";"11";"1";"40";"1";"2";"2";"2";"[3,14,23,26]";"2";"0";"1"
"1280";"1";"12";"1";"15";"1";"2";"2";"1";"[2,3,11,25]";"2";"0";"1"
"1281";"3";"12";"1";"17";"1";"2";"2";"2";"[1,4,7,14,18,25,28,38]";"2";"0";"1"
"1282";"23";"13";"1";"5";"1";"2";"2";"2";"[6,11,21,31]";"2";"0";"1"
"1283";"3";"13";"1";"17";"1";"2";"2";"2";"[1,4,7,14,18,25,28,38]";"2";"0";"1"
"1284";"23";"14";"1";"5";"1";"2";"2";"2";"[6,11,21,31]";"2";"0";"1"
"1285";"36";"15";"1";"30";"1";"2";"2";"2";"[13]";"2";"0";"1"
"1286";"31";"16";"1";"3";"1";"2";"2";"2";"[7,15,16,20,29,40]";"2";"0";"1"
"1287";"36";"16";"1";"30";"1";"2";"2";"2";"[13]";"2";"0";"1"
"1288";"31";"17";"1";"3";"1";"2";"2";"2";"[7,15,16,20,29,40]";"2";"0";"1"
"1289";"13";"17";"1";"13";"1";"2";"2";"2";"[21,30]";"2";"0";"1"
"1290";"14";"18";"1";"28";"1";"2";"2";"2";"[10,17,21,24,26,34]";"2";"0";"1"
"1291";"27";"18";"1";"33";"1";"2";"2";"2";"[10,21,32,37]";"2";"0";"1"
"1292";"13";"18";"1";"13";"1";"2";"2";"2";"[21,30]";"2";"0";"1"
"1293";"14";"19";"1";"28";"1";"2";"2";"2";"[10,17,21,24,26,34]";"2";"0";"1"
"1294";"27";"19";"1";"33";"1";"2";"2";"2";"[10,21,32,37]";"2";"0";"1"
"1295";"2";"19";"1";"11";"1";"2";"2";"2";"[5,15,26,35]";"2";"0";"1"
"1296";"2";"20";"1";"11";"1";"2";"2";"2";"[5,15,26,35]";"2";"0";"1"
"1297";"28";"20";"1";"20";"1";"2";"2";"1";"[3,7,25]";"1";"0";"1"
"1298";"28";"21";"1";"20";"1";"2";"2";"1";"[3,7,25]";"1";"0";"1"
"1299";"12";"22";"1";"12";"1";"2";"2";"1";"[10,29]";"2";"0";"1"
"1300";"12";"23";"1";"12";"1";"2";"2";"1";"[10,29]";"2";"0";"1"
"1301";"9";"24";"1";"9";"1";"2";"2";"2";"[29,35]";"2";"0";"1"
"1302";"9";"25";"1";"9";"1";"2";"2";"2";"[29,35]";"2";"0";"1"
"1303";"15";"25";"1";"7";"1";"2";"2";"1";"[3,8,17,20]";"1";"0";"1"
"1304";"15";"26";"1";"7";"1";"2";"2";"1";"[3,8,17,20]";"1";"0";"1"
"1305";"30";"1";"1";"32";"1";"2";"3";"2";"[6,21,26,33,36]";"2";"0";"1"
"1306";"6";"2";"1";"35";"1";"2";"3";"2";"[9,11]";"2";"0";"1"
"1307";"40";"2";"1";"25";"1";"2";"3";"1";"[4,15,17,20,26]";"1";"0";"1"
"1308";"21";"2";"1";"21";"1";"2";"3";"2";"[5,13,16,26,28,31,32,33,36]";"2";"0";"1"
"1309";"26";"2";"1";"37";"1";"2";"3";"1";"[14,27,33]";"1";"0";"1"
"1310";"7";"2";"1";"14";"1";"2";"3";"2";"[4,8,17,22,37,40]";"2";"0";"1"
"1311";"30";"2";"1";"32";"1";"2";"3";"2";"[6,21,26,33,36]";"2";"0";"1"
"1312";"11";"2";"1";"8";"1";"2";"3";"2";"[7,14,16]";"2";"0";"1"
"1313";"35";"3";"1";"36";"1";"2";"3";"1";"[2,21,24,32]";"1";"0";"1"
"1314";"6";"3";"1";"35";"1";"2";"3";"2";"[9,11]";"2";"0";"1"
"1315";"34";"3";"1";"16";"1";"2";"3";"2";"[1,3,8,21,24]";"2";"0";"1"
"1316";"40";"3";"1";"25";"1";"2";"3";"1";"[4,15,17,20,26]";"1";"0";"1"
"1317";"21";"3";"1";"21";"1";"2";"3";"2";"[5,13,16,26,28,31,32,33,36]";"2";"0";"1"
"1318";"26";"3";"1";"37";"1";"2";"3";"1";"[14,27,33]";"1";"0";"1"
"1319";"7";"3";"1";"14";"1";"2";"3";"2";"[4,8,17,22,37,40]";"2";"0";"1"
"1320";"2";"3";"1";"11";"1";"2";"3";"2";"[5,15,26,35]";"2";"0";"1"
"1321";"39";"3";"1";"39";"1";"2";"3";"1";"[2,19,22,29]";"1";"0";"1"
"1322";"22";"3";"1";"26";"1";"2";"3";"1";"[6,11,19,21,22,25,28,32,40]";"1";"0";"1"
"1323";"25";"3";"1";"29";"1";"2";"3";"2";"[3,9,12,31,39]";"2";"0";"1"
"1324";"11";"3";"1";"8";"1";"2";"3";"2";"[7,14,16]";"2";"0";"1"
"1325";"35";"4";"1";"36";"1";"2";"3";"1";"[2,21,24,32]";"1";"0";"1"
"1326";"37";"4";"1";"19";"1";"2";"3";"1";"[10,26,27,39]";"1";"0";"1"
"1327";"34";"4";"1";"16";"1";"2";"3";"2";"[1,3,8,21,24]";"2";"0";"1"
"1328";"17";"4";"1";"22";"1";"2";"3";"2";"[14,26,27,39]";"2";"0";"1"
"1329";"28";"4";"1";"20";"1";"2";"3";"1";"[3,7,25]";"1";"0";"1"
"1330";"2";"4";"1";"11";"1";"2";"3";"2";"[5,15,26,35]";"2";"0";"1"
"1331";"10";"4";"1";"31";"1";"2";"3";"2";"[5,21,29]";"2";"0";"1"
"1332";"39";"4";"1";"39";"1";"2";"3";"1";"[2,19,22,29]";"1";"0";"1"
"1333";"22";"4";"1";"26";"1";"2";"3";"1";"[6,11,19,21,22,25,28,32,40]";"1";"0";"1"
"1334";"25";"4";"1";"29";"1";"2";"3";"2";"[3,9,12,31,39]";"2";"0";"1"
"1335";"5";"4";"1";"2";"1";"2";"3";"2";"[15,36,39]";"1";"0";"1"
"1336";"37";"5";"1";"19";"1";"2";"3";"1";"[10,26,27,39]";"1";"0";"1"
"1337";"38";"5";"1";"23";"1";"2";"3";"2";"[18,27,40]";"0";"1";"1"
"1338";"17";"5";"1";"22";"1";"2";"3";"2";"[14,26,27,39]";"2";"0";"1"
"1339";"18";"5";"1";"6";"1";"2";"3";"1";"[5,26,32]";"1";"0";"1"
"1340";"8";"5";"1";"38";"1";"2";"3";"2";"[10,17]";"2";"0";"1"
"1341";"28";"5";"1";"20";"1";"2";"3";"1";"[3,7,25]";"1";"0";"1"
"1342";"10";"5";"1";"31";"1";"2";"3";"2";"[5,21,29]";"2";"0";"1"
"1343";"5";"5";"1";"2";"1";"2";"3";"2";"[15,36,39]";"1";"0";"1"
"1344";"24";"6";"1";"10";"1";"2";"3";"2";"[12,19,28,33,38]";"2";"0";"1"
"1345";"18";"6";"1";"6";"1";"2";"3";"1";"[5,26,32]";"1";"0";"1"
"1346";"32";"6";"1";"27";"1";"2";"3";"1";"[19,22,23,24,37]";"2";"0";"1"
"1347";"8";"6";"1";"38";"1";"2";"3";"2";"[10,17]";"2";"0";"1"
"1348";"38";"6";"1";"23";"1";"2";"3";"2";"[18,27,40]";"0";"4";"1"
"1349";"24";"7";"1";"10";"1";"2";"3";"2";"[12,19,28,33,38]";"2";"0";"1"
"1350";"16";"7";"1";"24";"1";"2";"3";"1";"[16,27,28,36]";"1";"0";"1"
"1351";"32";"7";"1";"27";"1";"2";"3";"1";"[19,22,23,24,37]";"2";"0";"1"
"1352";"36";"8";"1";"30";"1";"2";"3";"2";"[13]";"2";"0";"1"
"1353";"16";"8";"1";"24";"1";"2";"3";"1";"[16,27,28,36]";"1";"0";"1"
"1354";"33";"8";"1";"4";"1";"2";"3";"2";"[1,14,17,25]";"2";"0";"1"
"1355";"19";"8";"1";"1";"1";"2";"3";"2";"[4,16,17]";"2";"0";"1"
"1356";"38";"9";"1";"23";"1";"2";"3";"2";"[18,27,40]";"2";"4";"1"
"1357";"36";"9";"1";"30";"1";"2";"3";"2";"[13]";"2";"0";"1"
"1358";"33";"9";"1";"4";"1";"2";"3";"2";"[1,14,17,25]";"2";"0";"1"
"1359";"19";"9";"1";"1";"1";"2";"3";"2";"[4,16,17]";"2";"0";"1"
"1360";"38";"10";"1";"23";"1";"2";"3";"2";"[18,27,40]";"2";"4";"1"
"1361";"20";"10";"1";"18";"1";"2";"3";"2";"[17,23]";"2";"0";"1"
"1362";"31";"10";"1";"3";"1";"2";"3";"2";"[7,15,16,20,29,40]";"2";"0";"1"
"1363";"20";"11";"1";"18";"1";"2";"3";"2";"[17,23]";"2";"0";"1"
"1364";"31";"11";"1";"3";"1";"2";"3";"2";"[7,15,16,20,29,40]";"2";"0";"1"
"1365";"1";"11";"1";"15";"1";"2";"3";"1";"[2,3,11,25]";"1";"0";"1"
"1366";"13";"12";"1";"13";"1";"2";"3";"2";"[21,30]";"2";"0";"1"
"1367";"3";"12";"1";"17";"1";"2";"3";"2";"[1,4,7,14,18,25,28,38]";"2";"0";"1"
"1368";"1";"12";"1";"15";"1";"2";"3";"1";"[2,3,11,25]";"1";"0";"1"
"1369";"27";"12";"1";"33";"1";"2";"3";"2";"[10,21,32,37]";"2";"0";"1"
"1370";"13";"13";"1";"13";"1";"2";"3";"2";"[21,30]";"2";"0";"1"
"1371";"3";"13";"1";"17";"1";"2";"3";"2";"[1,4,7,14,18,25,28,38]";"2";"0";"1"
"1372";"27";"13";"1";"33";"1";"2";"3";"2";"[10,21,32,37]";"2";"0";"1"
"1373";"29";"14";"1";"34";"1";"2";"3";"2";"[28]";"2";"0";"1"
"1374";"23";"14";"1";"5";"1";"2";"3";"2";"[6,11,21,31]";"2";"0";"1"
"1375";"29";"15";"1";"34";"1";"2";"3";"2";"[28]";"2";"0";"1"
"1376";"23";"16";"1";"5";"1";"2";"3";"2";"[6,11,21,31]";"2";"0";"1"
"1377";"14";"17";"1";"28";"1";"2";"3";"2";"[10,17,21,24,26,34]";"2";"0";"1"
"1378";"13";"18";"1";"13";"1";"2";"3";"2";"[21,30]";"2";"1";"1"
"1379";"14";"18";"1";"28";"1";"2";"3";"2";"[10,17,21,24,26,34]";"2";"0";"1"
"1380";"12";"19";"1";"12";"1";"2";"3";"1";"[10,29]";"1";"0";"1"
"1381";"13";"19";"1";"13";"1";"2";"3";"2";"[21,30]";"2";"2";"1"
"1382";"12";"20";"1";"12";"1";"2";"3";"1";"[10,29]";"1";"0";"1"
"1383";"15";"21";"1";"7";"1";"2";"3";"1";"[3,8,17,20]";"2";"0";"1"
"1384";"4";"21";"1";"40";"1";"2";"3";"2";"[3,14,23,26]";"2";"0";"1"
"1385";"15";"22";"1";"7";"1";"2";"3";"1";"[3,8,17,20]";"2";"0";"1"
"1386";"13";"22";"1";"13";"1";"2";"3";"2";"[21,30]";"2";"3";"1"
"1387";"4";"22";"1";"40";"1";"2";"3";"2";"[3,14,23,26]";"2";"0";"1"
"1388";"13";"23";"1";"13";"1";"2";"3";"2";"[21,30]";"2";"4";"1"
"1389";"9";"29";"1";"9";"1";"2";"3";"2";"[29,35]";"2";"0";"1"
"1390";"9";"30";"1";"9";"1";"2";"3";"2";"[29,35]";"2";"0";"1"
"1391";"25";"1";"1";"29";"1";"2";"4";"2";"[3,9,12,31,39]";"2";"0";"1"
"1392";"30";"1";"1";"32";"1";"2";"4";"2";"[6,21,26,33,36]";"2";"0";"1"
"1393";"17";"1";"1";"22";"1";"2";"4";"2";"[14,26,27,39]";"2";"0";"1"
"1394";"21";"1";"1";"21";"1";"2";"4";"2";"[5,13,16,26,28,31,32,33,36]";"2";"0";"1"
"1395";"11";"2";"1";"8";"1";"2";"4";"2";"[7,14,16]";"2";"0";"1"
"1396";"25";"2";"1";"29";"1";"2";"4";"2";"[3,9,12,31,39]";"2";"0";"1"
"1397";"39";"2";"1";"39";"1";"2";"4";"1";"[2,19,22,29]";"1";"0";"1"
"1398";"8";"2";"1";"38";"1";"2";"4";"2";"[10,17]";"2";"0";"1"
"1399";"7";"2";"1";"14";"1";"2";"4";"2";"[4,8,17,22,37,40]";"2";"0";"1"
"1400";"30";"2";"1";"32";"1";"2";"4";"2";"[6,21,26,33,36]";"2";"0";"1"
"1401";"6";"2";"1";"35";"1";"2";"4";"2";"[9,11]";"2";"0";"1"
"1402";"17";"2";"1";"22";"1";"2";"4";"2";"[14,26,27,39]";"2";"0";"1"
"1403";"21";"2";"1";"21";"1";"2";"4";"2";"[5,13,16,26,28,31,32,33,36]";"2";"0";"1"
"1404";"10";"3";"1";"31";"1";"2";"4";"2";"[5,21,29]";"2";"0";"1"
"1405";"2";"3";"1";"11";"1";"2";"4";"2";"[5,15,26,35]";"1";"0";"1"
"1406";"22";"3";"1";"26";"1";"2";"4";"1";"[6,11,19,21,22,25,28,32,40]";"1";"0";"1"
"1407";"5";"3";"1";"2";"1";"2";"4";"2";"[15,36,39]";"1";"0";"1"
"1408";"19";"3";"1";"1";"1";"2";"4";"2";"[4,16,17]";"2";"0";"1"
"1409";"11";"3";"1";"8";"1";"2";"4";"2";"[7,14,16]";"2";"0";"1"
"1410";"39";"3";"1";"39";"1";"2";"4";"1";"[2,19,22,29]";"1";"0";"1"
"1411";"18";"3";"1";"6";"1";"2";"4";"1";"[5,26,32]";"1";"0";"1"
"1412";"8";"3";"1";"38";"1";"2";"4";"2";"[10,17]";"2";"0";"1"
"1413";"7";"3";"1";"14";"1";"2";"4";"2";"[4,8,17,22,37,40]";"2";"0";"1"
"1414";"6";"3";"1";"35";"1";"2";"4";"2";"[9,11]";"2";"0";"1"
"1415";"1";"3";"1";"15";"1";"2";"4";"1";"[2,3,11,25]";"1";"0";"1"
"1416";"10";"4";"1";"31";"1";"2";"4";"2";"[5,21,29]";"2";"0";"1"
"1417";"2";"4";"1";"11";"1";"2";"4";"2";"[5,15,26,35]";"1";"0";"1"
"1418";"22";"4";"1";"26";"1";"2";"4";"1";"[6,11,19,21,22,25,28,32,40]";"1";"0";"1"
"1419";"40";"4";"1";"25";"1";"2";"4";"1";"[4,15,17,20,26]";"1";"0";"1"
"1420";"5";"4";"1";"2";"1";"2";"4";"2";"[15,36,39]";"1";"0";"1"
"1421";"19";"4";"1";"1";"1";"2";"4";"2";"[4,16,17]";"2";"0";"1"
"1422";"35";"4";"1";"36";"1";"2";"4";"1";"[2,21,24,32]";"1";"0";"1"
"1423";"18";"4";"1";"6";"1";"2";"4";"1";"[5,26,32]";"1";"0";"1"
"1424";"37";"4";"1";"19";"1";"2";"4";"1";"[10,26,27,39]";"2";"0";"1"
"1425";"1";"4";"1";"15";"1";"2";"4";"1";"[2,3,11,25]";"1";"0";"1"
"1426";"33";"4";"1";"4";"1";"2";"4";"2";"[1,14,17,25]";"2";"0";"1"
"1427";"40";"5";"1";"25";"1";"2";"4";"1";"[4,15,17,20,26]";"1";"0";"1"
"1428";"14";"5";"1";"28";"1";"2";"4";"2";"[10,17,21,24,26,34]";"2";"0";"1"
"1429";"32";"5";"1";"27";"1";"2";"4";"1";"[19,22,23,24,37]";"1";"0";"1"
"1430";"35";"5";"1";"36";"1";"2";"4";"1";"[2,21,24,32]";"1";"0";"1"
"1431";"37";"5";"1";"19";"1";"2";"4";"1";"[10,26,27,39]";"2";"0";"1"
"1432";"33";"5";"1";"4";"1";"2";"4";"2";"[1,14,17,25]";"2";"0";"1"
"1433";"34";"6";"1";"16";"1";"2";"4";"2";"[1,3,8,21,24]";"2";"0";"1"
"1434";"23";"6";"1";"5";"1";"2";"4";"2";"[6,11,21,31]";"2";"0";"1"
"1435";"28";"6";"1";"20";"1";"2";"4";"1";"[3,7,25]";"2";"0";"1"
"1436";"38";"6";"1";"23";"1";"2";"4";"2";"[18,27,40]";"2";"0";"1"
"1437";"14";"6";"1";"28";"1";"2";"4";"2";"[10,17,21,24,26,34]";"2";"0";"1"
"1438";"32";"6";"1";"27";"1";"2";"4";"1";"[19,22,23,24,37]";"1";"0";"1"
"1439";"3";"6";"1";"17";"1";"2";"4";"2";"[1,4,7,14,18,25,28,38]";"2";"0";"1"
"1440";"29";"6";"1";"34";"1";"2";"4";"2";"[28]";"1";"0";"1"
"1441";"27";"6";"1";"33";"1";"2";"4";"2";"[10,21,32,37]";"2";"0";"1"
"1442";"20";"7";"1";"18";"1";"2";"4";"2";"[17,23]";"2";"0";"1"
"1443";"34";"7";"1";"16";"1";"2";"4";"2";"[1,3,8,21,24]";"2";"0";"1"
"1444";"23";"7";"1";"5";"1";"2";"4";"2";"[6,11,21,31]";"2";"0";"1"
"1445";"28";"7";"1";"20";"1";"2";"4";"1";"[3,7,25]";"2";"0";"1"
"1446";"38";"7";"1";"23";"1";"2";"4";"2";"[18,27,40]";"2";"0";"1"
"1447";"26";"7";"1";"37";"1";"2";"4";"1";"[14,27,33]";"1";"0";"1"
"1448";"13";"7";"1";"13";"1";"2";"4";"2";"[21,30]";"2";"0";"1"
"1449";"3";"7";"1";"17";"1";"2";"4";"2";"[1,4,7,14,18,25,28,38]";"2";"0";"1"
"1450";"29";"7";"1";"34";"1";"2";"4";"2";"[28]";"1";"0";"1"
"1451";"27";"7";"1";"33";"1";"2";"4";"2";"[10,21,32,37]";"2";"0";"1"
"1452";"20";"8";"1";"18";"1";"2";"4";"2";"[17,23]";"2";"0";"1"
"1453";"13";"8";"1";"13";"1";"2";"4";"2";"[21,30]";"2";"0";"1"
"1454";"26";"8";"1";"37";"1";"2";"4";"1";"[14,27,33]";"1";"0";"1"
"1455";"15";"9";"1";"7";"1";"2";"4";"1";"[3,8,17,20]";"2";"0";"1"
"1456";"36";"9";"1";"30";"1";"2";"4";"2";"[13]";"2";"0";"1"
"1457";"31";"9";"1";"3";"1";"2";"4";"2";"[7,15,16,20,29,40]";"2";"0";"1"
"1458";"24";"9";"1";"10";"1";"2";"4";"2";"[12,19,28,33,38]";"2";"0";"1"
"1459";"16";"9";"1";"24";"1";"2";"4";"1";"[16,27,28,36]";"2";"0";"1"
"1460";"15";"10";"1";"7";"1";"2";"4";"1";"[3,8,17,20]";"2";"0";"1"
"1461";"36";"10";"1";"30";"1";"2";"4";"2";"[13]";"2";"0";"1"
