"id";"id_subj";"time";"session";"id_grp";"grp";"round";"period";"sig";"links";"choice";"hist";"active"
"1";"8";"0";"1";"23";"1";"1";"1";"2";"[15,21,22,24,25]";"0";"0";"1"
"2";"20";"0";"1";"31";"1";"1";"1";"1";"[32,33,34,35]";"0";"0";"1"
"3";"2";"0";"1";"27";"1";"1";"1";"1";"[26,28,29,30]";"0";"0";"1"
"4";"15";"0";"1";"38";"1";"1";"1";"1";"[4,36,39,40]";"0";"0";"1"
"5";"31";"0";"1";"2";"1";"1";"1";"1";"[1,3,4,5,19]";"0";"0";"1"
"6";"25";"0";"1";"22";"1";"1";"1";"1";"[1,21,23,24]";"0";"0";"1"
"7";"39";"0";"1";"30";"1";"1";"1";"1";"[15,26,27]";"0";"0";"1"
"8";"24";"0";"1";"8";"1";"1";"1";"1";"[4,6,7,9]";"0";"0";"1"
"9";"9";"0";"1";"28";"1";"1";"1";"1";"[26,27,29]";"0";"0";"1"
"10";"4";"0";"1";"37";"1";"1";"1";"2";"[36,39,40]";"0";"0";"1"
"11";"17";"0";"1";"13";"1";"1";"1";"1";"[11,12,14,15]";"0";"0";"1"
"12";"38";"0";"1";"7";"1";"1";"1";"1";"[6,8,9,33]";"0";"0";"1"
"13";"37";"0";"1";"19";"1";"1";"1";"1";"[2,9,16,17,18,20]";"0";"0";"1"
"14";"28";"0";"1";"11";"1";"1";"1";"1";"[12,13,14,15]";"0";"0";"1"
"15";"5";"0";"1";"1";"1";"1";"1";"2";"[2,3,4,5,22]";"0";"0";"1"
"16";"18";"0";"1";"18";"1";"1";"1";"2";"[5,16,17,19,20]";"0";"0";"1"
"17";"32";"0";"1";"9";"1";"1";"1";"2";"[6,7,8,10,19,36]";"0";"0";"1"
"18";"19";"0";"1";"12";"1";"1";"1";"1";"[11,13,14,15]";"0";"0";"1"
"19";"3";"0";"1";"16";"1";"1";"1";"2";"[17,18,19,20]";"0";"0";"1"
"20";"14";"0";"1";"35";"1";"1";"1";"1";"[31,32,33]";"0";"0";"1"
"21";"26";"0";"1";"29";"1";"1";"1";"1";"[26,27,28]";"0";"0";"1"
"22";"40";"0";"1";"34";"1";"1";"1";"2";"[31,32]";"0";"0";"1"
"23";"22";"0";"1";"15";"1";"1";"1";"2";"[11,12,13,14,23,30]";"0";"0";"1"
"24";"27";"0";"1";"33";"1";"1";"1";"1";"[7,31,32,35]";"0";"0";"1"
"25";"12";"0";"1";"36";"1";"1";"1";"1";"[9,37,38,40]";"0";"0";"1"
"26";"6";"0";"1";"32";"1";"1";"1";"1";"[17,31,33,34,35]";"0";"0";"1"
"27";"30";"0";"1";"39";"1";"1";"1";"1";"[37,38,40]";"0";"0";"1"
"28";"7";"0";"1";"5";"1";"1";"1";"2";"[1,2,4,18]";"0";"0";"1"
"29";"36";"0";"1";"4";"1";"1";"1";"1";"[1,2,5,8,26,38]";"0";"0";"1"
"30";"11";"0";"1";"20";"1";"1";"1";"1";"[16,17,18,19]";"0";"0";"1"
"31";"23";"0";"1";"21";"1";"1";"1";"2";"[22,23,24,25]";"0";"0";"1"
"32";"21";"0";"1";"25";"1";"1";"1";"1";"[21,23,24]";"0";"0";"1"
"33";"29";"0";"1";"3";"1";"1";"1";"1";"[1,2]";"0";"0";"1"
"34";"13";"0";"1";"26";"1";"1";"1";"1";"[4,27,28,29,30]";"0";"0";"1"
"35";"35";"0";"1";"14";"1";"1";"1";"1";"[11,12,13,15]";"0";"0";"1"
"36";"1";"0";"1";"24";"1";"1";"1";"1";"[21,22,23,25]";"0";"0";"1"
"37";"16";"0";"1";"10";"1";"1";"1";"1";"[9]";"0";"0";"1"
"38";"33";"0";"1";"40";"1";"1";"1";"1";"[36,37,38,39]";"0";"0";"1"
"39";"10";"0";"1";"17";"1";"1";"1";"1";"[16,18,19,20,32]";"0";"0";"1"
"40";"34";"0";"1";"6";"1";"1";"1";"1";"[7,8,9]";"0";"0";"1"
"41";"23";"6";"1";"21";"1";"1";"1";"2";"[22,23,24,25]";"1";"0";"1"
"42";"15";"6";"1";"38";"1";"1";"1";"1";"[4,36,39,40]";"1";"0";"1"
"43";"35";"7";"1";"14";"1";"1";"1";"1";"[11,12,13,15]";"1";"0";"1"
"44";"23";"7";"1";"21";"1";"1";"1";"2";"[22,23,24,25]";"1";"0";"1"
"45";"11";"7";"1";"20";"1";"1";"1";"1";"[16,17,18,19]";"1";"0";"1"
"46";"17";"7";"1";"13";"1";"1";"1";"1";"[11,12,14,15]";"1";"0";"1"
"47";"15";"7";"1";"38";"1";"1";"1";"1";"[4,36,39,40]";"1";"0";"1"
"48";"28";"7";"1";"11";"1";"1";"1";"1";"[12,13,14,15]";"1";"0";"1"
"49";"38";"7";"1";"7";"1";"1";"1";"1";"[6,8,9,33]";"1";"0";"1"
"50";"35";"8";"1";"14";"1";"1";"1";"1";"[11,12,13,15]";"1";"0";"1"
"51";"5";"8";"1";"1";"1";"1";"1";"2";"[2,3,4,5,22]";"2";"0";"1"
"52";"30";"8";"1";"39";"1";"1";"1";"1";"[37,38,40]";"1";"0";"1"
"53";"11";"8";"1";"20";"1";"1";"1";"1";"[16,17,18,19]";"1";"0";"1"
"54";"17";"8";"1";"13";"1";"1";"1";"1";"[11,12,14,15]";"1";"0";"1"
"55";"28";"8";"1";"11";"1";"1";"1";"1";"[12,13,14,15]";"1";"0";"1"
"56";"38";"8";"1";"7";"1";"1";"1";"1";"[6,8,9,33]";"1";"0";"1"
"57";"5";"9";"1";"1";"1";"1";"1";"2";"[2,3,4,5,22]";"2";"0";"1"
"58";"30";"9";"1";"39";"1";"1";"1";"1";"[37,38,40]";"1";"0";"1"
"59";"12";"9";"1";"36";"1";"1";"1";"1";"[9,37,38,40]";"1";"0";"1"
"60";"14";"9";"1";"35";"1";"1";"1";"1";"[31,32,33]";"1";"0";"1"
"61";"36";"9";"1";"4";"1";"1";"1";"1";"[1,2,5,8,26,38]";"1";"0";"1"
"62";"12";"10";"1";"36";"1";"1";"1";"1";"[9,37,38,40]";"1";"0";"1"
"63";"14";"10";"1";"35";"1";"1";"1";"1";"[31,32,33]";"1";"0";"1"
"64";"36";"10";"1";"4";"1";"1";"1";"1";"[1,2,5,8,26,38]";"1";"0";"1"
"65";"10";"10";"1";"17";"1";"1";"1";"1";"[16,18,19,20,32]";"1";"0";"1"
"66";"4";"11";"1";"37";"1";"1";"1";"2";"[36,39,40]";"2";"0";"1"
"67";"40";"11";"1";"34";"1";"1";"1";"2";"[31,32]";"2";"0";"1"
"68";"10";"11";"1";"17";"1";"1";"1";"1";"[16,18,19,20,32]";"1";"0";"1"
"69";"26";"12";"1";"29";"1";"1";"1";"1";"[26,27,28]";"1";"0";"1"
"70";"19";"12";"1";"12";"1";"1";"1";"1";"[11,13,14,15]";"1";"0";"1"
"71";"25";"12";"1";"22";"1";"1";"1";"1";"[1,21,23,24]";"1";"0";"1"
"72";"4";"12";"1";"37";"1";"1";"1";"2";"[36,39,40]";"2";"0";"1"
"73";"29";"12";"1";"3";"1";"1";"1";"1";"[1,2]";"1";"0";"1"
"74";"40";"12";"1";"34";"1";"1";"1";"2";"[31,32]";"2";"0";"1"
"75";"26";"13";"1";"29";"1";"1";"1";"1";"[26,27,28]";"1";"0";"1"
"76";"19";"13";"1";"12";"1";"1";"1";"1";"[11,13,14,15]";"1";"0";"1"
"77";"25";"13";"1";"22";"1";"1";"1";"1";"[1,21,23,24]";"1";"0";"1"
"78";"21";"13";"1";"25";"1";"1";"1";"1";"[21,23,24]";"1";"0";"1"
"79";"6";"13";"1";"32";"1";"1";"1";"1";"[17,31,33,34,35]";"1";"0";"1"
"80";"7";"13";"1";"5";"1";"1";"1";"2";"[1,2,4,18]";"2";"0";"1"
"81";"29";"13";"1";"3";"1";"1";"1";"1";"[1,2]";"1";"0";"1"
"82";"9";"14";"1";"28";"1";"1";"1";"1";"[26,27,29]";"1";"0";"1"
"83";"2";"14";"1";"27";"1";"1";"1";"1";"[26,28,29,30]";"1";"0";"1"
"84";"27";"14";"1";"33";"1";"1";"1";"1";"[7,31,32,35]";"2";"0";"1"
"85";"21";"14";"1";"25";"1";"1";"1";"1";"[21,23,24]";"1";"0";"1"
"86";"6";"14";"1";"32";"1";"1";"1";"1";"[17,31,33,34,35]";"1";"0";"1"
"87";"18";"14";"1";"18";"1";"1";"1";"2";"[5,16,17,19,20]";"2";"0";"1"
"88";"7";"14";"1";"5";"1";"1";"1";"2";"[1,2,4,18]";"2";"0";"1"
"89";"20";"14";"1";"31";"1";"1";"1";"1";"[32,33,34,35]";"1";"0";"1"
"90";"39";"14";"1";"30";"1";"1";"1";"1";"[15,26,27]";"2";"0";"1"
"91";"9";"15";"1";"28";"1";"1";"1";"1";"[26,27,29]";"1";"0";"1"
"92";"32";"15";"1";"9";"1";"1";"1";"2";"[6,7,8,10,19,36]";"2";"0";"1"
"93";"22";"15";"1";"15";"1";"1";"1";"2";"[11,12,13,14,23,30]";"2";"0";"1"
"94";"2";"15";"1";"27";"1";"1";"1";"1";"[26,28,29,30]";"1";"0";"1"
"95";"24";"15";"1";"8";"1";"1";"1";"1";"[4,6,7,9]";"2";"0";"1"
"96";"27";"15";"1";"33";"1";"1";"1";"1";"[7,31,32,35]";"2";"0";"1"
"97";"18";"15";"1";"18";"1";"1";"1";"2";"[5,16,17,19,20]";"2";"0";"1"
"98";"20";"15";"1";"31";"1";"1";"1";"1";"[32,33,34,35]";"1";"0";"1"
"99";"39";"15";"1";"30";"1";"1";"1";"1";"[15,26,27]";"2";"0";"1"
"100";"8";"16";"1";"23";"1";"1";"1";"2";"[15,21,22,24,25]";"2";"0";"1"
"101";"32";"16";"1";"9";"1";"1";"1";"2";"[6,7,8,10,19,36]";"2";"0";"1"
"102";"22";"16";"1";"15";"1";"1";"1";"2";"[11,12,13,14,23,30]";"2";"0";"1"
"103";"24";"16";"1";"8";"1";"1";"1";"1";"[4,6,7,9]";"2";"0";"1"
"104";"13";"16";"1";"26";"1";"1";"1";"1";"[4,27,28,29,30]";"2";"0";"1"
"105";"8";"17";"1";"23";"1";"1";"1";"2";"[15,21,22,24,25]";"2";"0";"1"
"106";"3";"17";"1";"16";"1";"1";"1";"2";"[17,18,19,20]";"2";"0";"1"
"107";"13";"17";"1";"26";"1";"1";"1";"1";"[4,27,28,29,30]";"2";"0";"1"
"108";"3";"18";"1";"16";"1";"1";"1";"2";"[17,18,19,20]";"2";"0";"1"
"109";"1";"19";"1";"24";"1";"1";"1";"1";"[21,22,23,25]";"1";"0";"1"
"110";"31";"19";"1";"2";"1";"1";"1";"1";"[1,3,4,5,19]";"1";"0";"1"
"111";"1";"20";"1";"24";"1";"1";"1";"1";"[21,22,23,25]";"1";"0";"1"
"112";"31";"20";"1";"2";"1";"1";"1";"1";"[1,3,4,5,19]";"1";"0";"1"
"113";"16";"20";"1";"10";"1";"1";"1";"1";"[9]";"1";"0";"1"
"114";"16";"21";"1";"10";"1";"1";"1";"1";"[9]";"1";"0";"1"
"115";"33";"23";"1";"40";"1";"1";"1";"1";"[36,37,38,39]";"2";"0";"1"
"116";"33";"24";"1";"40";"1";"1";"1";"1";"[36,37,38,39]";"2";"0";"1"
"117";"34";"28";"1";"6";"1";"1";"1";"1";"[7,8,9]";"1";"0";"1"
"118";"34";"29";"1";"6";"1";"1";"1";"1";"[7,8,9]";"1";"0";"1"
"119";"37";"30";"1";"19";"1";"1";"1";"1";"[2,9,16,17,18,20]";"0";"0";"1"
"120";"0";"30";"1";"19";"1";"1";"1";"1";"[2,9,16,17,18,20]";"2";"0";"0"
"121";"23";"3";"1";"21";"1";"1";"2";"2";"[22,23,24,25]";"1";"0";"1"
"122";"17";"4";"1";"13";"1";"1";"2";"1";"[11,12,14,15]";"1";"0";"1"
"123";"23";"4";"1";"21";"1";"1";"2";"2";"[22,23,24,25]";"1";"0";"1"
"124";"17";"5";"1";"13";"1";"1";"2";"1";"[11,12,14,15]";"1";"0";"1"
"125";"15";"6";"1";"38";"1";"1";"2";"1";"[4,36,39,40]";"1";"0";"1"
"126";"15";"7";"1";"38";"1";"1";"2";"1";"[4,36,39,40]";"1";"0";"1"
"127";"6";"7";"1";"32";"1";"1";"2";"1";"[17,31,33,34,35]";"1";"0";"1"
"128";"7";"8";"1";"5";"1";"1";"2";"2";"[1,2,4,18]";"2";"0";"1"
"129";"6";"8";"1";"32";"1";"1";"2";"1";"[17,31,33,34,35]";"1";"0";"1"
"130";"40";"8";"1";"34";"1";"1";"2";"2";"[31,32]";"2";"0";"1"
"131";"11";"8";"1";"20";"1";"1";"2";"1";"[16,17,18,19]";"1";"0";"1"
"132";"38";"8";"1";"7";"1";"1";"2";"1";"[6,8,9,33]";"1";"0";"1"
"133";"7";"9";"1";"5";"1";"1";"2";"2";"[1,2,4,18]";"2";"0";"1"
"134";"28";"9";"1";"11";"1";"1";"2";"1";"[12,13,14,15]";"1";"0";"1"
"135";"39";"9";"1";"30";"1";"1";"2";"1";"[15,26,27]";"2";"0";"1"
"136";"35";"9";"1";"14";"1";"1";"2";"1";"[11,12,13,15]";"1";"0";"1"
"137";"40";"9";"1";"34";"1";"1";"2";"2";"[31,32]";"2";"0";"1"
"138";"11";"9";"1";"20";"1";"1";"2";"1";"[16,17,18,19]";"1";"0";"1"
"139";"38";"9";"1";"7";"1";"1";"2";"1";"[6,8,9,33]";"1";"0";"1"
"140";"29";"10";"1";"3";"1";"1";"2";"1";"[1,2]";"1";"0";"1"
"141";"28";"10";"1";"11";"1";"1";"2";"1";"[12,13,14,15]";"1";"0";"1"
"142";"5";"10";"1";"1";"1";"1";"2";"2";"[2,3,4,5,22]";"1";"0";"1"
"143";"39";"10";"1";"30";"1";"1";"2";"1";"[15,26,27]";"2";"0";"1"
"144";"35";"10";"1";"14";"1";"1";"2";"1";"[11,12,13,15]";"1";"0";"1"
"145";"21";"10";"1";"25";"1";"1";"2";"1";"[21,23,24]";"1";"0";"1"
"146";"2";"10";"1";"27";"1";"1";"2";"1";"[26,28,29,30]";"1";"0";"1"
"147";"26";"10";"1";"29";"1";"1";"2";"1";"[26,27,28]";"1";"0";"1"
"148";"12";"10";"1";"36";"1";"1";"2";"1";"[9,37,38,40]";"2";"0";"1"
"149";"29";"11";"1";"3";"1";"1";"2";"1";"[1,2]";"1";"0";"1"
"150";"5";"11";"1";"1";"1";"1";"2";"2";"[2,3,4,5,22]";"1";"0";"1"
"151";"21";"11";"1";"25";"1";"1";"2";"1";"[21,23,24]";"1";"0";"1"
"152";"2";"11";"1";"27";"1";"1";"2";"1";"[26,28,29,30]";"1";"0";"1"
"153";"26";"11";"1";"29";"1";"1";"2";"1";"[26,27,28]";"1";"0";"1"
"154";"12";"11";"1";"36";"1";"1";"2";"1";"[9,37,38,40]";"2";"0";"1"
"155";"19";"12";"1";"12";"1";"1";"2";"1";"[11,13,14,15]";"1";"0";"1"
"156";"19";"13";"1";"12";"1";"1";"2";"1";"[11,13,14,15]";"1";"0";"1"
"157";"30";"13";"1";"39";"1";"1";"2";"1";"[37,38,40]";"1";"0";"1"
"158";"27";"13";"1";"33";"1";"1";"2";"1";"[7,31,32,35]";"2";"0";"1"
"159";"30";"14";"1";"39";"1";"1";"2";"1";"[37,38,40]";"1";"0";"1"
"160";"36";"14";"1";"4";"1";"1";"2";"1";"[1,2,5,8,26,38]";"2";"0";"1"
"161";"14";"14";"1";"35";"1";"1";"2";"1";"[31,32,33]";"2";"0";"1"
"162";"31";"14";"1";"2";"1";"1";"2";"1";"[1,3,4,5,19]";"1";"0";"1"
"163";"27";"14";"1";"33";"1";"1";"2";"1";"[7,31,32,35]";"2";"0";"1"
"164";"36";"15";"1";"4";"1";"1";"2";"1";"[1,2,5,8,26,38]";"2";"0";"1"
"165";"18";"15";"1";"18";"1";"1";"2";"2";"[5,16,17,19,20]";"2";"0";"1"
"166";"14";"15";"1";"35";"1";"1";"2";"1";"[31,32,33]";"2";"0";"1"
"167";"31";"15";"1";"2";"1";"1";"2";"1";"[1,3,4,5,19]";"1";"0";"1"
"168";"9";"15";"1";"28";"1";"1";"2";"1";"[26,27,29]";"2";"0";"1"
"169";"18";"16";"1";"18";"1";"1";"2";"2";"[5,16,17,19,20]";"2";"0";"1"
"170";"4";"16";"1";"37";"1";"1";"2";"2";"[36,39,40]";"1";"0";"1"
"171";"16";"16";"1";"10";"1";"1";"2";"1";"[9]";"1";"0";"1"
"172";"25";"16";"1";"22";"1";"1";"2";"1";"[1,21,23,24]";"2";"0";"1"
"173";"8";"16";"1";"23";"1";"1";"2";"2";"[15,21,22,24,25]";"2";"0";"1"
"174";"9";"16";"1";"28";"1";"1";"2";"1";"[26,27,29]";"2";"0";"1"
"175";"37";"17";"1";"19";"1";"1";"2";"1";"[2,9,16,17,18,20]";"1";"0";"1"
"176";"4";"17";"1";"37";"1";"1";"2";"2";"[36,39,40]";"1";"0";"1"
"177";"16";"17";"1";"10";"1";"1";"2";"1";"[9]";"1";"0";"1"
"178";"25";"17";"1";"22";"1";"1";"2";"1";"[1,21,23,24]";"2";"0";"1"
"179";"8";"17";"1";"23";"1";"1";"2";"2";"[15,21,22,24,25]";"2";"0";"1"
"180";"13";"17";"1";"26";"1";"1";"2";"1";"[4,27,28,29,30]";"1";"0";"1"
"181";"34";"17";"1";"6";"1";"1";"2";"1";"[7,8,9]";"1";"0";"1"
"182";"37";"18";"1";"19";"1";"1";"2";"1";"[2,9,16,17,18,20]";"1";"0";"1"
"183";"13";"18";"1";"26";"1";"1";"2";"1";"[4,27,28,29,30]";"1";"0";"1"
"184";"34";"18";"1";"6";"1";"1";"2";"1";"[7,8,9]";"1";"0";"1"
"185";"22";"20";"1";"15";"1";"1";"2";"2";"[11,12,13,14,23,30]";"2";"0";"1"
"186";"20";"20";"1";"31";"1";"1";"2";"1";"[32,33,34,35]";"1";"0";"1"
"187";"1";"21";"1";"24";"1";"1";"2";"1";"[21,22,23,25]";"1";"0";"1"
"188";"3";"21";"1";"16";"1";"1";"2";"2";"[17,18,19,20]";"2";"0";"1"
"189";"33";"21";"1";"40";"1";"1";"2";"1";"[36,37,38,39]";"2";"0";"1"
"190";"32";"21";"1";"9";"1";"1";"2";"2";"[6,7,8,10,19,36]";"2";"0";"1"
"191";"22";"21";"1";"15";"1";"1";"2";"2";"[11,12,13,14,23,30]";"2";"0";"1"
"192";"20";"21";"1";"31";"1";"1";"2";"1";"[32,33,34,35]";"1";"0";"1"
"193";"24";"22";"1";"8";"1";"1";"2";"1";"[4,6,7,9]";"2";"0";"1"
"194";"1";"22";"1";"24";"1";"1";"2";"1";"[21,22,23,25]";"1";"0";"1"
"195";"3";"22";"1";"16";"1";"1";"2";"2";"[17,18,19,20]";"2";"0";"1"
"196";"33";"22";"1";"40";"1";"1";"2";"1";"[36,37,38,39]";"2";"0";"1"
"197";"32";"22";"1";"9";"1";"1";"2";"2";"[6,7,8,10,19,36]";"2";"0";"1"
"198";"10";"22";"1";"17";"1";"1";"2";"1";"[16,18,19,20,32]";"1";"0";"1"
"199";"24";"23";"1";"8";"1";"1";"2";"1";"[4,6,7,9]";"2";"0";"1"
"200";"10";"23";"1";"17";"1";"1";"2";"1";"[16,18,19,20,32]";"1";"0";"1"
"201";"17";"2";"1";"13";"1";"1";"3";"1";"[11,12,14,15]";"1";"0";"1"
"202";"23";"3";"1";"21";"1";"1";"3";"2";"[22,23,24,25]";"1";"0";"1"
"203";"17";"3";"1";"13";"1";"1";"3";"1";"[11,12,14,15]";"1";"0";"1"
"204";"23";"4";"1";"21";"1";"1";"3";"2";"[22,23,24,25]";"1";"0";"1"
"205";"7";"4";"1";"5";"1";"1";"3";"2";"[1,2,4,18]";"2";"0";"1"
"206";"1";"5";"1";"24";"1";"1";"3";"1";"[21,22,23,25]";"0";"1";"1"
"207";"7";"5";"1";"5";"1";"1";"3";"2";"[1,2,4,18]";"2";"0";"1"
"208";"9";"6";"1";"28";"1";"1";"3";"1";"[26,27,29]";"1";"0";"1"
"209";"6";"6";"1";"32";"1";"1";"3";"1";"[17,31,33,34,35]";"1";"0";"1"
"210";"24";"6";"1";"8";"1";"1";"3";"1";"[4,6,7,9]";"2";"0";"1"
"211";"27";"6";"1";"33";"1";"1";"3";"1";"[7,31,32,35]";"1";"0";"1"
"212";"1";"7";"1";"24";"1";"1";"3";"1";"[21,22,23,25]";"0";"2";"1"
"213";"14";"7";"1";"35";"1";"1";"3";"1";"[31,32,33]";"1";"0";"1"
"214";"9";"7";"1";"28";"1";"1";"3";"1";"[26,27,29]";"1";"0";"1"
"215";"19";"7";"1";"12";"1";"1";"3";"1";"[11,13,14,15]";"1";"0";"1"
"216";"31";"7";"1";"2";"1";"1";"3";"1";"[1,3,4,5,19]";"1";"0";"1"
"217";"11";"7";"1";"20";"1";"1";"3";"1";"[16,17,18,19]";"1";"0";"1"
"218";"6";"7";"1";"32";"1";"1";"3";"1";"[17,31,33,34,35]";"1";"0";"1"
"219";"24";"7";"1";"8";"1";"1";"3";"1";"[4,6,7,9]";"2";"0";"1"
"220";"27";"7";"1";"33";"1";"1";"3";"1";"[7,31,32,35]";"1";"0";"1"
"221";"5";"8";"1";"1";"1";"1";"3";"2";"[2,3,4,5,22]";"0";"1";"1"
"222";"14";"8";"1";"35";"1";"1";"3";"1";"[31,32,33]";"1";"0";"1"
"223";"19";"8";"1";"12";"1";"1";"3";"1";"[11,13,14,15]";"1";"0";"1"
"224";"8";"8";"1";"23";"1";"1";"3";"2";"[15,21,22,24,25]";"2";"0";"1"
"225";"31";"8";"1";"2";"1";"1";"3";"1";"[1,3,4,5,19]";"1";"0";"1"
"226";"38";"8";"1";"7";"1";"1";"3";"1";"[6,8,9,33]";"1";"0";"1"
"227";"11";"8";"1";"20";"1";"1";"3";"1";"[16,17,18,19]";"1";"0";"1"
"228";"22";"8";"1";"15";"1";"1";"3";"2";"[11,12,13,14,23,30]";"1";"0";"1"
"229";"28";"8";"1";"11";"1";"1";"3";"1";"[12,13,14,15]";"1";"0";"1"
"230";"15";"9";"1";"38";"1";"1";"3";"1";"[4,36,39,40]";"1";"0";"1"
"231";"4";"9";"1";"37";"1";"1";"3";"2";"[36,39,40]";"2";"0";"1"
"232";"8";"9";"1";"23";"1";"1";"3";"2";"[15,21,22,24,25]";"2";"0";"1"
"233";"5";"9";"1";"1";"1";"1";"3";"2";"[2,3,4,5,22]";"0";"2";"1"
"234";"38";"9";"1";"7";"1";"1";"3";"1";"[6,8,9,33]";"1";"0";"1"
"235";"22";"9";"1";"15";"1";"1";"3";"2";"[11,12,13,14,23,30]";"1";"0";"1"
"236";"28";"9";"1";"11";"1";"1";"3";"1";"[12,13,14,15]";"1";"0";"1"
"237";"35";"10";"1";"14";"1";"1";"3";"1";"[11,12,13,15]";"1";"0";"1"
"238";"15";"10";"1";"38";"1";"1";"3";"1";"[4,36,39,40]";"1";"0";"1"
"239";"4";"10";"1";"37";"1";"1";"3";"2";"[36,39,40]";"2";"0";"1"
"240";"2";"10";"1";"27";"1";"1";"3";"1";"[26,28,29,30]";"0";"1";"1"
"241";"5";"10";"1";"1";"1";"1";"3";"2";"[2,3,4,5,22]";"0";"1";"1"
"242";"35";"11";"1";"14";"1";"1";"3";"1";"[11,12,13,15]";"1";"0";"1"
"243";"39";"11";"1";"30";"1";"1";"3";"1";"[15,26,27]";"2";"0";"1"
"244";"20";"11";"1";"31";"1";"1";"3";"1";"[32,33,34,35]";"2";"0";"1"
"245";"36";"11";"1";"4";"1";"1";"3";"1";"[1,2,5,8,26,38]";"1";"0";"1"
"246";"29";"11";"1";"3";"1";"1";"3";"1";"[1,2]";"1";"0";"1"
"247";"30";"11";"1";"39";"1";"1";"3";"1";"[37,38,40]";"1";"0";"1"
"248";"10";"12";"1";"17";"1";"1";"3";"1";"[16,18,19,20,32]";"1";"0";"1"
"249";"39";"12";"1";"30";"1";"1";"3";"1";"[15,26,27]";"2";"0";"1"
"250";"20";"12";"1";"31";"1";"1";"3";"1";"[32,33,34,35]";"2";"0";"1"
"251";"32";"12";"1";"9";"1";"1";"3";"2";"[6,7,8,10,19,36]";"1";"0";"1"
"252";"5";"12";"1";"1";"1";"1";"3";"2";"[2,3,4,5,22]";"0";"2";"1"
"253";"36";"12";"1";"4";"1";"1";"3";"1";"[1,2,5,8,26,38]";"1";"0";"1"
"254";"29";"12";"1";"3";"1";"1";"3";"1";"[1,2]";"1";"0";"1"
"255";"21";"12";"1";"25";"1";"1";"3";"1";"[21,23,24]";"1";"0";"1"
"256";"30";"12";"1";"39";"1";"1";"3";"1";"[37,38,40]";"1";"0";"1"
"257";"16";"13";"1";"10";"1";"1";"3";"1";"[9]";"1";"0";"1"
"258";"10";"13";"1";"17";"1";"1";"3";"1";"[16,18,19,20,32]";"1";"0";"1"
"259";"32";"13";"1";"9";"1";"1";"3";"2";"[6,7,8,10,19,36]";"1";"0";"1"
"260";"26";"13";"1";"29";"1";"1";"3";"1";"[26,27,28]";"1";"0";"1"
"261";"25";"13";"1";"22";"1";"1";"3";"1";"[1,21,23,24]";"1";"0";"1"
"262";"3";"13";"1";"16";"1";"1";"3";"2";"[17,18,19,20]";"2";"0";"1"
"263";"21";"13";"1";"25";"1";"1";"3";"1";"[21,23,24]";"1";"0";"1"
"264";"40";"13";"1";"34";"1";"1";"3";"2";"[31,32]";"2";"0";"1"
"265";"2";"13";"1";"27";"1";"1";"3";"1";"[26,28,29,30]";"0";"2";"1"
"266";"16";"14";"1";"10";"1";"1";"3";"1";"[9]";"1";"0";"1"
"267";"5";"14";"1";"1";"1";"1";"3";"2";"[2,3,4,5,22]";"0";"1";"1"
"268";"26";"14";"1";"29";"1";"1";"3";"1";"[26,27,28]";"1";"0";"1"
"269";"25";"14";"1";"22";"1";"1";"3";"1";"[1,21,23,24]";"1";"0";"1"
"270";"3";"14";"1";"16";"1";"1";"3";"2";"[17,18,19,20]";"2";"0";"1"
"271";"36";"14";"1";"4";"1";"1";"3";"1";"[1,2,5,8,26,38]";"1";"1";"1"
"272";"40";"14";"1";"34";"1";"1";"3";"2";"[31,32]";"2";"0";"1"
"273";"2";"15";"1";"27";"1";"1";"3";"1";"[26,28,29,30]";"0";"1";"1"
"274";"36";"16";"1";"4";"1";"1";"3";"1";"[1,2,5,8,26,38]";"1";"2";"1"
"275";"12";"16";"1";"36";"1";"1";"3";"1";"[9,37,38,40]";"2";"0";"1"
"276";"13";"16";"1";"26";"1";"1";"3";"1";"[4,27,28,29,30]";"1";"0";"1"
"277";"12";"17";"1";"36";"1";"1";"3";"1";"[9,37,38,40]";"2";"0";"1"
"278";"5";"17";"1";"1";"1";"1";"3";"2";"[2,3,4,5,22]";"0";"2";"1"
"279";"33";"17";"1";"40";"1";"1";"3";"1";"[36,37,38,39]";"1";"0";"1"
"280";"13";"17";"1";"26";"1";"1";"3";"1";"[4,27,28,29,30]";"1";"0";"1"
"281";"37";"17";"1";"19";"1";"1";"3";"1";"[2,9,16,17,18,20]";"1";"0";"1"
"282";"18";"18";"1";"18";"1";"1";"3";"2";"[5,16,17,19,20]";"1";"0";"1"
"283";"33";"18";"1";"40";"1";"1";"3";"1";"[36,37,38,39]";"1";"0";"1"
"284";"37";"18";"1";"19";"1";"1";"3";"1";"[2,9,16,17,18,20]";"1";"0";"1"
"285";"18";"19";"1";"18";"1";"1";"3";"2";"[5,16,17,19,20]";"1";"0";"1"
"286";"1";"19";"1";"24";"1";"1";"3";"1";"[21,22,23,25]";"1";"2";"1"
"287";"1";"20";"1";"24";"1";"1";"3";"1";"[21,22,23,25]";"1";"2";"1"
"288";"2";"21";"1";"27";"1";"1";"3";"1";"[26,28,29,30]";"0";"2";"1"
"289";"2";"24";"1";"27";"1";"1";"3";"1";"[26,28,29,30]";"1";"2";"1"
"290";"2";"25";"1";"27";"1";"1";"3";"1";"[26,28,29,30]";"1";"2";"1"
"291";"5";"25";"1";"1";"1";"1";"3";"2";"[2,3,4,5,22]";"2";"2";"1"
"292";"5";"26";"1";"1";"1";"1";"3";"2";"[2,3,4,5,22]";"2";"2";"1"
"293";"24";"27";"1";"8";"1";"1";"3";"1";"[4,6,7,9]";"2";"1";"1"
"294";"24";"29";"1";"8";"1";"1";"3";"1";"[4,6,7,9]";"2";"2";"1"
"295";"34";"31";"1";"6";"1";"1";"3";"1";"[7,8,9]";"0";"0";"1"
"296";"0";"30";"1";"6";"1";"1";"3";"1";"[7,8,9]";"1";"0";"0"
"297";"24";"0";"1";"8";"1";"1";"4";"1";"[4,6,7,9]";"0";"3";"1"
"298";"36";"0";"1";"4";"1";"1";"4";"1";"[1,2,5,8,26,38]";"0";"1";"1"
"299";"17";"1";"1";"13";"1";"1";"4";"1";"[11,12,14,15]";"1";"0";"1"
"300";"23";"1";"1";"21";"1";"1";"4";"2";"[22,23,24,25]";"1";"0";"1"
"301";"2";"2";"1";"27";"1";"1";"4";"1";"[26,28,29,30]";"1";"0";"1"
"302";"14";"2";"1";"35";"1";"1";"4";"1";"[31,32,33]";"2";"0";"1"
"303";"8";"2";"1";"23";"1";"1";"4";"2";"[15,21,22,24,25]";"1";"0";"1"
"304";"17";"2";"1";"13";"1";"1";"4";"1";"[11,12,14,15]";"1";"0";"1"
"305";"7";"2";"1";"5";"1";"1";"4";"2";"[1,2,4,18]";"2";"0";"1"
"306";"23";"2";"1";"21";"1";"1";"4";"2";"[22,23,24,25]";"1";"0";"1"
"307";"36";"2";"1";"4";"1";"1";"4";"1";"[1,2,5,8,26,38]";"0";"2";"1"
"308";"6";"3";"1";"32";"1";"1";"4";"1";"[17,31,33,34,35]";"1";"0";"1"
"309";"2";"3";"1";"27";"1";"1";"4";"1";"[26,28,29,30]";"1";"0";"1"
"310";"14";"3";"1";"35";"1";"1";"4";"1";"[31,32,33]";"2";"0";"1"
"311";"31";"3";"1";"2";"1";"1";"4";"1";"[1,3,4,5,19]";"1";"0";"1"
"312";"8";"3";"1";"23";"1";"1";"4";"2";"[15,21,22,24,25]";"1";"0";"1"
"313";"19";"3";"1";"12";"1";"1";"4";"1";"[11,13,14,15]";"1";"0";"1"
"314";"7";"3";"1";"5";"1";"1";"4";"2";"[1,2,4,18]";"2";"0";"1"
"315";"15";"3";"1";"38";"1";"1";"4";"1";"[4,36,39,40]";"1";"0";"1"
"316";"36";"4";"1";"4";"1";"1";"4";"1";"[1,2,5,8,26,38]";"0";"3";"1"
"317";"6";"4";"1";"32";"1";"1";"4";"1";"[17,31,33,34,35]";"1";"0";"1"
"318";"9";"4";"1";"28";"1";"1";"4";"1";"[26,27,29]";"1";"0";"1"
"319";"31";"4";"1";"2";"1";"1";"4";"1";"[1,3,4,5,19]";"1";"0";"1"
"320";"19";"4";"1";"12";"1";"1";"4";"1";"[11,13,14,15]";"1";"0";"1"
"321";"37";"4";"1";"19";"1";"1";"4";"1";"[2,9,16,17,18,20]";"1";"0";"1"
"322";"5";"4";"1";"1";"1";"1";"4";"2";"[2,3,4,5,22]";"0";"2";"1"
"323";"15";"4";"1";"38";"1";"1";"4";"1";"[4,36,39,40]";"1";"0";"1"
"324";"11";"5";"1";"20";"1";"1";"4";"1";"[16,17,18,19]";"1";"0";"1"
"325";"9";"5";"1";"28";"1";"1";"4";"1";"[26,27,29]";"1";"0";"1"
"326";"4";"5";"1";"37";"1";"1";"4";"2";"[36,39,40]";"2";"0";"1"
"327";"24";"5";"1";"8";"1";"1";"4";"1";"[4,6,7,9]";"1";"3";"1"
"328";"26";"5";"1";"29";"1";"1";"4";"1";"[26,27,28]";"2";"0";"1"
"329";"37";"5";"1";"19";"1";"1";"4";"1";"[2,9,16,17,18,20]";"1";"0";"1"
"330";"16";"6";"1";"10";"1";"1";"4";"1";"[9]";"1";"0";"1"
"331";"5";"6";"1";"1";"1";"1";"4";"2";"[2,3,4,5,22]";"0";"3";"1"
"332";"11";"6";"1";"20";"1";"1";"4";"1";"[16,17,18,19]";"1";"0";"1"
"333";"21";"6";"1";"25";"1";"1";"4";"1";"[21,23,24]";"1";"0";"1"
"334";"20";"6";"1";"31";"1";"1";"4";"1";"[32,33,34,35]";"2";"0";"1"
"335";"12";"6";"1";"36";"1";"1";"4";"1";"[9,37,38,40]";"0";"2";"1"
"336";"28";"6";"1";"11";"1";"1";"4";"1";"[12,13,14,15]";"1";"0";"1"
"337";"4";"6";"1";"37";"1";"1";"4";"2";"[36,39,40]";"2";"0";"1"
"338";"24";"6";"1";"8";"1";"1";"4";"1";"[4,6,7,9]";"1";"3";"1"
"339";"38";"6";"1";"7";"1";"1";"4";"1";"[6,8,9,33]";"1";"0";"1"
"340";"26";"6";"1";"29";"1";"1";"4";"1";"[26,27,28]";"2";"0";"1"
"341";"16";"7";"1";"10";"1";"1";"4";"1";"[9]";"1";"0";"1"
"342";"21";"7";"1";"25";"1";"1";"4";"1";"[21,23,24]";"1";"0";"1"
"343";"20";"7";"1";"31";"1";"1";"4";"1";"[32,33,34,35]";"2";"0";"1"
"344";"12";"7";"1";"36";"1";"1";"4";"1";"[9,37,38,40]";"0";"3";"1"
"345";"28";"7";"1";"11";"1";"1";"4";"1";"[12,13,14,15]";"1";"0";"1"
"346";"38";"7";"1";"7";"1";"1";"4";"1";"[6,8,9,33]";"1";"0";"1"
"347";"39";"8";"1";"30";"1";"1";"4";"1";"[15,26,27]";"2";"0";"1"
"348";"35";"8";"1";"14";"1";"1";"4";"1";"[11,12,13,15]";"1";"0";"1"
"349";"40";"8";"1";"34";"1";"1";"4";"2";"[31,32]";"2";"0";"1"
"350";"12";"8";"1";"36";"1";"1";"4";"1";"[9,37,38,40]";"0";"4";"1"
"351";"39";"9";"1";"30";"1";"1";"4";"1";"[15,26,27]";"2";"0";"1"
"352";"35";"9";"1";"14";"1";"1";"4";"1";"[11,12,13,15]";"1";"0";"1"
"353";"40";"9";"1";"34";"1";"1";"4";"2";"[31,32]";"2";"0";"1"
"354";"18";"10";"1";"18";"1";"1";"4";"2";"[5,16,17,19,20]";"2";"0";"1"
"355";"36";"11";"1";"4";"1";"1";"4";"1";"[1,2,5,8,26,38]";"0";"6";"1"
"356";"18";"11";"1";"18";"1";"1";"4";"2";"[5,16,17,19,20]";"2";"0";"1"
"357";"1";"12";"1";"24";"1";"1";"4";"1";"[21,22,23,25]";"1";"0";"1"
"358";"10";"12";"1";"17";"1";"1";"4";"1";"[16,18,19,20,32]";"1";"0";"1"
"359";"13";"13";"1";"26";"1";"1";"4";"1";"[4,27,28,29,30]";"1";"0";"1"
"360";"25";"13";"1";"22";"1";"1";"4";"1";"[1,21,23,24]";"1";"0";"1"
"361";"1";"13";"1";"24";"1";"1";"4";"1";"[21,22,23,25]";"1";"0";"1"
"362";"10";"13";"1";"17";"1";"1";"4";"1";"[16,18,19,20,32]";"1";"0";"1"
"363";"27";"13";"1";"33";"1";"1";"4";"1";"[7,31,32,35]";"2";"0";"1"
"364";"13";"14";"1";"26";"1";"1";"4";"1";"[4,27,28,29,30]";"1";"0";"1"
"365";"25";"14";"1";"22";"1";"1";"4";"1";"[1,21,23,24]";"1";"0";"1"
"366";"22";"14";"1";"15";"1";"1";"4";"2";"[11,12,13,14,23,30]";"1";"0";"1"
"367";"36";"14";"1";"4";"1";"1";"4";"1";"[1,2,5,8,26,38]";"1";"6";"1"
"368";"3";"14";"1";"16";"1";"1";"4";"2";"[17,18,19,20]";"2";"0";"1"
"369";"29";"14";"1";"3";"1";"1";"4";"1";"[1,2]";"1";"0";"1"
"370";"27";"14";"1";"33";"1";"1";"4";"1";"[7,31,32,35]";"2";"0";"1"
"371";"12";"14";"1";"36";"1";"1";"4";"1";"[9,37,38,40]";"1";"4";"1"
"372";"30";"15";"1";"39";"1";"1";"4";"1";"[37,38,40]";"1";"0";"1"
"373";"22";"15";"1";"15";"1";"1";"4";"2";"[11,12,13,14,23,30]";"1";"0";"1"
"374";"36";"15";"1";"4";"1";"1";"4";"1";"[1,2,5,8,26,38]";"1";"6";"1"
"375";"3";"15";"1";"16";"1";"1";"4";"2";"[17,18,19,20]";"2";"0";"1"
"376";"29";"15";"1";"3";"1";"1";"4";"1";"[1,2]";"1";"0";"1"
"377";"12";"15";"1";"36";"1";"1";"4";"1";"[9,37,38,40]";"1";"4";"1"
"378";"30";"16";"1";"39";"1";"1";"4";"1";"[37,38,40]";"1";"0";"1"
"379";"5";"19";"1";"1";"1";"1";"4";"2";"[2,3,4,5,22]";"0";"1";"1"
"380";"5";"19";"1";"1";"1";"1";"4";"2";"[2,3,4,5,22]";"0";"2";"1"
"381";"5";"20";"1";"1";"1";"1";"4";"2";"[2,3,4,5,22]";"0";"3";"1"
"382";"32";"21";"1";"9";"1";"1";"4";"2";"[6,7,8,10,19,36]";"1";"0";"1"
"383";"5";"22";"1";"1";"1";"1";"4";"2";"[2,3,4,5,22]";"0";"4";"1"
"384";"32";"22";"1";"9";"1";"1";"4";"2";"[6,7,8,10,19,36]";"1";"0";"1"
"385";"33";"23";"1";"40";"1";"1";"4";"1";"[36,37,38,39]";"2";"0";"1"
"386";"34";"23";"1";"6";"1";"1";"4";"1";"[7,8,9]";"1";"0";"1"
"387";"5";"23";"1";"1";"1";"1";"4";"2";"[2,3,4,5,22]";"0";"4";"1"
"388";"33";"24";"1";"40";"1";"1";"4";"1";"[36,37,38,39]";"2";"0";"1"
"389";"34";"24";"1";"6";"1";"1";"4";"1";"[7,8,9]";"1";"0";"1"
"390";"27";"25";"1";"33";"1";"1";"4";"1";"[7,31,32,35]";"2";"2";"1"
"391";"36";"25";"1";"4";"1";"1";"4";"1";"[1,2,5,8,26,38]";"1";"2";"1"
"392";"15";"26";"1";"38";"1";"1";"4";"1";"[4,36,39,40]";"1";"2";"1"
"393";"36";"27";"1";"4";"1";"1";"4";"1";"[1,2,5,8,26,38]";"1";"1";"1"
"394";"15";"28";"1";"38";"1";"1";"4";"1";"[4,36,39,40]";"1";"1";"1"
"395";"27";"28";"1";"33";"1";"1";"4";"1";"[7,31,32,35]";"2";"1";"1"
"396";"36";"28";"1";"4";"1";"1";"4";"1";"[1,2,5,8,26,38]";"1";"8";"1"
"397";"5";"29";"1";"1";"1";"1";"4";"2";"[2,3,4,5,22]";"2";"4";"1"
"398";"15";"30";"1";"38";"1";"1";"4";"1";"[4,36,39,40]";"1";"2";"1"
"399";"5";"30";"1";"1";"1";"1";"4";"2";"[2,3,4,5,22]";"2";"4";"1"
"400";"27";"1";"1";"33";"1";"1";"5";"1";"[7,31,32,35]";"0";"2";"1"
"401";"23";"1";"1";"21";"1";"1";"5";"2";"[22,23,24,25]";"2";"0";"1"
"402";"7";"2";"1";"5";"1";"1";"5";"2";"[1,2,4,18]";"2";"0";"1"
"403";"8";"2";"1";"23";"1";"1";"5";"2";"[15,21,22,24,25]";"1";"0";"1"
"404";"17";"2";"1";"13";"1";"1";"5";"1";"[11,12,14,15]";"1";"0";"1"
"405";"23";"2";"1";"21";"1";"1";"5";"2";"[22,23,24,25]";"2";"0";"1"
"406";"35";"2";"1";"14";"1";"1";"5";"1";"[11,12,13,15]";"1";"0";"1"
"407";"36";"3";"1";"4";"1";"1";"5";"1";"[1,2,5,8,26,38]";"0";"3";"1"
"408";"7";"3";"1";"5";"1";"1";"5";"2";"[1,2,4,18]";"2";"0";"1"
"409";"5";"3";"1";"1";"1";"1";"5";"2";"[2,3,4,5,22]";"0";"3";"1"
"410";"8";"3";"1";"23";"1";"1";"5";"2";"[15,21,22,24,25]";"1";"0";"1"
"411";"24";"3";"1";"8";"1";"1";"5";"1";"[4,6,7,9]";"1";"0";"1"
"412";"17";"3";"1";"13";"1";"1";"5";"1";"[11,12,14,15]";"1";"0";"1"
"413";"35";"3";"1";"14";"1";"1";"5";"1";"[11,12,13,15]";"1";"0";"1"
"414";"38";"4";"1";"7";"1";"1";"5";"1";"[6,8,9,33]";"1";"0";"1"
"415";"36";"4";"1";"4";"1";"1";"5";"1";"[1,2,5,8,26,38]";"0";"5";"1"
"416";"5";"4";"1";"1";"1";"1";"5";"2";"[2,3,4,5,22]";"0";"4";"1"
"417";"24";"4";"1";"8";"1";"1";"5";"1";"[4,6,7,9]";"1";"0";"1"
"418";"15";"4";"1";"38";"1";"1";"5";"1";"[4,36,39,40]";"0";"5";"1"
"419";"21";"4";"1";"25";"1";"1";"5";"1";"[21,23,24]";"1";"0";"1"
"420";"38";"5";"1";"7";"1";"1";"5";"1";"[6,8,9,33]";"1";"0";"1"
"421";"12";"5";"1";"36";"1";"1";"5";"1";"[9,37,38,40]";"1";"0";"1"
"422";"14";"5";"1";"35";"1";"1";"5";"1";"[31,32,33]";"2";"0";"1"
"423";"27";"5";"1";"33";"1";"1";"5";"1";"[7,31,32,35]";"0";"3";"1"
"424";"39";"5";"1";"30";"1";"1";"5";"1";"[15,26,27]";"2";"0";"1"
"425";"21";"5";"1";"25";"1";"1";"5";"1";"[21,23,24]";"1";"0";"1"
"426";"12";"6";"1";"36";"1";"1";"5";"1";"[9,37,38,40]";"1";"0";"1"
"427";"14";"6";"1";"35";"1";"1";"5";"1";"[31,32,33]";"2";"0";"1"
"428";"2";"6";"1";"27";"1";"1";"5";"1";"[26,28,29,30]";"1";"0";"1"
"429";"16";"6";"1";"10";"1";"1";"5";"1";"[9]";"1";"0";"1"
"430";"39";"6";"1";"30";"1";"1";"5";"1";"[15,26,27]";"2";"0";"1"
"431";"6";"6";"1";"32";"1";"1";"5";"1";"[17,31,33,34,35]";"1";"0";"1"
"432";"40";"6";"1";"34";"1";"1";"5";"2";"[31,32]";"1";"0";"1"
"433";"4";"6";"1";"37";"1";"1";"5";"2";"[36,39,40]";"2";"0";"1"
"434";"20";"6";"1";"31";"1";"1";"5";"1";"[32,33,34,35]";"2";"0";"1"
"435";"1";"6";"1";"24";"1";"1";"5";"1";"[21,22,23,25]";"1";"0";"1"
"436";"27";"6";"1";"33";"1";"1";"5";"1";"[7,31,32,35]";"0";"4";"1"
"437";"9";"7";"1";"28";"1";"1";"5";"1";"[26,27,29]";"1";"0";"1"
"438";"2";"7";"1";"27";"1";"1";"5";"1";"[26,28,29,30]";"1";"0";"1"
"439";"16";"7";"1";"10";"1";"1";"5";"1";"[9]";"1";"0";"1"
"440";"6";"7";"1";"32";"1";"1";"5";"1";"[17,31,33,34,35]";"1";"0";"1"
"441";"40";"7";"1";"34";"1";"1";"5";"2";"[31,32]";"1";"0";"1"
"442";"28";"7";"1";"11";"1";"1";"5";"1";"[12,13,14,15]";"1";"0";"1"
"443";"15";"7";"1";"38";"1";"1";"5";"1";"[4,36,39,40]";"1";"5";"1"
"444";"4";"7";"1";"37";"1";"1";"5";"2";"[36,39,40]";"2";"0";"1"
"445";"1";"7";"1";"24";"1";"1";"5";"1";"[21,22,23,25]";"1";"0";"1"
"446";"20";"7";"1";"31";"1";"1";"5";"1";"[32,33,34,35]";"2";"0";"1"
"447";"9";"8";"1";"28";"1";"1";"5";"1";"[26,27,29]";"1";"0";"1"
"448";"27";"8";"1";"33";"1";"1";"5";"1";"[7,31,32,35]";"0";"5";"1"
"449";"32";"8";"1";"9";"1";"1";"5";"2";"[6,7,8,10,19,36]";"1";"0";"1"
"450";"36";"8";"1";"4";"1";"1";"5";"1";"[1,2,5,8,26,38]";"1";"5";"1"
"451";"28";"8";"1";"11";"1";"1";"5";"1";"[12,13,14,15]";"1";"0";"1"
"452";"15";"8";"1";"38";"1";"1";"5";"1";"[4,36,39,40]";"1";"5";"1"
"453";"11";"9";"1";"20";"1";"1";"5";"1";"[16,17,18,19]";"2";"0";"1"
"454";"32";"9";"1";"9";"1";"1";"5";"2";"[6,7,8,10,19,36]";"1";"0";"1"
"455";"36";"9";"1";"4";"1";"1";"5";"1";"[1,2,5,8,26,38]";"1";"5";"1"
"456";"11";"10";"1";"20";"1";"1";"5";"1";"[16,17,18,19]";"2";"0";"1"
"457";"13";"10";"1";"26";"1";"1";"5";"1";"[4,27,28,29,30]";"1";"0";"1"
"458";"31";"10";"1";"2";"1";"1";"5";"1";"[1,3,4,5,19]";"1";"0";"1"
"459";"15";"10";"1";"38";"1";"1";"5";"1";"[4,36,39,40]";"1";"3";"1"
"460";"22";"11";"1";"15";"1";"1";"5";"2";"[11,12,13,14,23,30]";"1";"0";"1"
"461";"26";"11";"1";"29";"1";"1";"5";"1";"[26,27,28]";"2";"0";"1"
"462";"13";"11";"1";"26";"1";"1";"5";"1";"[4,27,28,29,30]";"1";"0";"1"
"463";"31";"11";"1";"2";"1";"1";"5";"1";"[1,3,4,5,19]";"1";"0";"1"
"464";"22";"12";"1";"15";"1";"1";"5";"2";"[11,12,13,14,23,30]";"1";"0";"1"
"465";"18";"12";"1";"18";"1";"1";"5";"2";"[5,16,17,19,20]";"2";"0";"1"
"466";"33";"12";"1";"40";"1";"1";"5";"1";"[36,37,38,39]";"1";"0";"1"
"467";"26";"12";"1";"29";"1";"1";"5";"1";"[26,27,28]";"2";"0";"1"
"468";"15";"13";"1";"38";"1";"1";"5";"1";"[4,36,39,40]";"1";"4";"1"
"469";"18";"13";"1";"18";"1";"1";"5";"2";"[5,16,17,19,20]";"2";"0";"1"
"470";"5";"13";"1";"1";"1";"1";"5";"2";"[2,3,4,5,22]";"2";"4";"1"
"471";"33";"13";"1";"40";"1";"1";"5";"1";"[36,37,38,39]";"1";"0";"1"
"472";"25";"13";"1";"22";"1";"1";"5";"1";"[1,21,23,24]";"1";"0";"1"
"473";"27";"13";"1";"33";"1";"1";"5";"1";"[7,31,32,35]";"1";"5";"1"
"474";"10";"14";"1";"17";"1";"1";"5";"1";"[16,18,19,20,32]";"2";"0";"1"
"475";"15";"14";"1";"38";"1";"1";"5";"1";"[4,36,39,40]";"1";"5";"1"
"476";"5";"14";"1";"1";"1";"1";"5";"2";"[2,3,4,5,22]";"2";"4";"1"
"477";"30";"14";"1";"39";"1";"1";"5";"1";"[37,38,40]";"2";"0";"1"
"478";"25";"14";"1";"22";"1";"1";"5";"1";"[1,21,23,24]";"1";"0";"1"
"479";"27";"14";"1";"33";"1";"1";"5";"1";"[7,31,32,35]";"1";"5";"1"
"480";"10";"15";"1";"17";"1";"1";"5";"1";"[16,18,19,20,32]";"2";"0";"1"
"481";"29";"15";"1";"3";"1";"1";"5";"1";"[1,2]";"2";"0";"1"
"482";"30";"15";"1";"39";"1";"1";"5";"1";"[37,38,40]";"2";"0";"1"
"483";"19";"15";"1";"12";"1";"1";"5";"1";"[11,13,14,15]";"1";"0";"1"
"484";"29";"16";"1";"3";"1";"1";"5";"1";"[1,2]";"2";"0";"1"
"485";"19";"16";"1";"12";"1";"1";"5";"1";"[11,13,14,15]";"1";"0";"1"
"486";"12";"17";"1";"36";"1";"1";"5";"1";"[9,37,38,40]";"1";"3";"1"
"487";"12";"18";"1";"36";"1";"1";"5";"1";"[9,37,38,40]";"1";"4";"1"
"488";"12";"20";"1";"36";"1";"1";"5";"1";"[9,37,38,40]";"1";"3";"1"
"489";"12";"20";"1";"36";"1";"1";"5";"1";"[9,37,38,40]";"1";"4";"1"
"490";"34";"22";"1";"6";"1";"1";"5";"1";"[7,8,9]";"1";"0";"1"
"491";"3";"22";"1";"16";"1";"1";"5";"2";"[17,18,19,20]";"2";"0";"1"
"492";"34";"23";"1";"6";"1";"1";"5";"1";"[7,8,9]";"1";"0";"1"
"493";"3";"23";"1";"16";"1";"1";"5";"2";"[17,18,19,20]";"2";"0";"1"
"494";"37";"25";"1";"19";"1";"1";"5";"1";"[2,9,16,17,18,20]";"1";"0";"1"
"495";"37";"26";"1";"19";"1";"1";"5";"1";"[2,9,16,17,18,20]";"1";"0";"1"
"496";"23";"2";"1";"21";"1";"1";"6";"2";"[22,23,24,25]";"1";"0";"1"
"497";"17";"2";"1";"13";"1";"1";"6";"1";"[11,12,14,15]";"1";"0";"1"
"498";"7";"2";"1";"5";"1";"1";"6";"2";"[1,2,4,18]";"2";"0";"1"
"499";"4";"2";"1";"37";"1";"1";"6";"2";"[36,39,40]";"1";"0";"1"
"500";"38";"3";"1";"7";"1";"1";"6";"1";"[6,8,9,33]";"1";"0";"1"
"501";"23";"3";"1";"21";"1";"1";"6";"2";"[22,23,24,25]";"1";"0";"1"
"502";"17";"3";"1";"13";"1";"1";"6";"1";"[11,12,14,15]";"1";"0";"1"
"503";"35";"3";"1";"14";"1";"1";"6";"1";"[11,12,13,15]";"1";"0";"1"
"504";"20";"3";"1";"31";"1";"1";"6";"1";"[32,33,34,35]";"1";"0";"1"
"505";"19";"3";"1";"12";"1";"1";"6";"1";"[11,13,14,15]";"1";"0";"1"
"506";"7";"3";"1";"5";"1";"1";"6";"2";"[1,2,4,18]";"2";"0";"1"
"507";"5";"3";"1";"1";"1";"1";"6";"2";"[2,3,4,5,22]";"0";"4";"1"
"508";"9";"3";"1";"28";"1";"1";"6";"1";"[26,27,29]";"1";"0";"1"
"509";"8";"3";"1";"23";"1";"1";"6";"2";"[15,21,22,24,25]";"1";"0";"1"
"510";"4";"3";"1";"37";"1";"1";"6";"2";"[36,39,40]";"1";"0";"1"
"511";"38";"4";"1";"7";"1";"1";"6";"1";"[6,8,9,33]";"1";"0";"1"
"512";"35";"4";"1";"14";"1";"1";"6";"1";"[11,12,13,15]";"1";"0";"1"
"513";"20";"4";"1";"31";"1";"1";"6";"1";"[32,33,34,35]";"1";"0";"1"
"514";"19";"4";"1";"12";"1";"1";"6";"1";"[11,13,14,15]";"1";"0";"1"
"515";"15";"4";"1";"38";"1";"1";"6";"1";"[4,36,39,40]";"1";"0";"1"
"516";"9";"4";"1";"28";"1";"1";"6";"1";"[26,27,29]";"1";"0";"1"
"517";"16";"4";"1";"10";"1";"1";"6";"1";"[9]";"1";"0";"1"
"518";"8";"4";"1";"23";"1";"1";"6";"2";"[15,21,22,24,25]";"1";"0";"1"
"519";"15";"5";"1";"38";"1";"1";"6";"1";"[4,36,39,40]";"1";"0";"1"
"520";"16";"5";"1";"10";"1";"1";"6";"1";"[9]";"1";"0";"1"
"521";"40";"6";"1";"34";"1";"1";"6";"2";"[31,32]";"2";"0";"1"
"522";"25";"6";"1";"22";"1";"1";"6";"1";"[1,21,23,24]";"2";"0";"1"
"523";"21";"7";"1";"25";"1";"1";"6";"1";"[21,23,24]";"1";"0";"1"
"524";"28";"7";"1";"11";"1";"1";"6";"1";"[12,13,14,15]";"1";"0";"1"
"525";"24";"7";"1";"8";"1";"1";"6";"1";"[4,6,7,9]";"1";"0";"1"
"526";"5";"7";"1";"1";"1";"1";"6";"2";"[2,3,4,5,22]";"0";"5";"1"
"527";"40";"7";"1";"34";"1";"1";"6";"2";"[31,32]";"2";"0";"1"
"528";"27";"7";"1";"33";"1";"1";"6";"1";"[7,31,32,35]";"1";"0";"1"
"529";"13";"7";"1";"26";"1";"1";"6";"1";"[4,27,28,29,30]";"1";"0";"1"
"530";"25";"7";"1";"22";"1";"1";"6";"1";"[1,21,23,24]";"2";"0";"1"
"531";"14";"7";"1";"35";"1";"1";"6";"1";"[31,32,33]";"2";"0";"1"
"532";"37";"8";"1";"19";"1";"1";"6";"1";"[2,9,16,17,18,20]";"2";"0";"1"
"533";"31";"8";"1";"2";"1";"1";"6";"1";"[1,3,4,5,19]";"2";"0";"1"
"534";"21";"8";"1";"25";"1";"1";"6";"1";"[21,23,24]";"1";"0";"1"
"535";"28";"8";"1";"11";"1";"1";"6";"1";"[12,13,14,15]";"1";"0";"1"
"536";"24";"8";"1";"8";"1";"1";"6";"1";"[4,6,7,9]";"1";"0";"1"
"537";"13";"8";"1";"26";"1";"1";"6";"1";"[4,27,28,29,30]";"1";"0";"1"
"538";"27";"8";"1";"33";"1";"1";"6";"1";"[7,31,32,35]";"1";"0";"1"
"539";"11";"8";"1";"20";"1";"1";"6";"1";"[16,17,18,19]";"2";"0";"1"
"540";"15";"8";"1";"38";"1";"1";"6";"1";"[4,36,39,40]";"1";"4";"1"
"541";"14";"8";"1";"35";"1";"1";"6";"1";"[31,32,33]";"2";"0";"1"
"542";"12";"8";"1";"36";"1";"1";"6";"1";"[9,37,38,40]";"1";"0";"1"
"543";"37";"9";"1";"19";"1";"1";"6";"1";"[2,9,16,17,18,20]";"2";"0";"1"
"544";"31";"9";"1";"2";"1";"1";"6";"1";"[1,3,4,5,19]";"2";"0";"1"
"545";"11";"9";"1";"20";"1";"1";"6";"1";"[16,17,18,19]";"2";"0";"1"
"546";"12";"9";"1";"36";"1";"1";"6";"1";"[9,37,38,40]";"1";"0";"1"
"547";"5";"9";"1";"1";"1";"1";"6";"2";"[2,3,4,5,22]";"2";"5";"1"
"548";"15";"9";"1";"38";"1";"1";"6";"1";"[4,36,39,40]";"1";"3";"1"
"549";"26";"10";"1";"29";"1";"1";"6";"1";"[26,27,28]";"1";"0";"1"
"550";"5";"10";"1";"1";"1";"1";"6";"2";"[2,3,4,5,22]";"2";"5";"1"
"551";"26";"11";"1";"29";"1";"1";"6";"1";"[26,27,28]";"1";"0";"1"
"552";"15";"11";"1";"38";"1";"1";"6";"1";"[4,36,39,40]";"1";"1";"1"
"553";"36";"11";"1";"4";"1";"1";"6";"1";"[1,2,5,8,26,38]";"0";"3";"1"
"554";"32";"11";"1";"9";"1";"1";"6";"2";"[6,7,8,10,19,36]";"1";"0";"1"
"555";"6";"11";"1";"32";"1";"1";"6";"1";"[17,31,33,34,35]";"1";"0";"1"
"556";"10";"12";"1";"17";"1";"1";"6";"1";"[16,18,19,20,32]";"2";"0";"1"
"557";"29";"12";"1";"3";"1";"1";"6";"1";"[1,2]";"1";"0";"1"
"558";"36";"12";"1";"4";"1";"1";"6";"1";"[1,2,5,8,26,38]";"0";"5";"1"
"559";"18";"12";"1";"18";"1";"1";"6";"2";"[5,16,17,19,20]";"2";"0";"1"
"560";"30";"12";"1";"39";"1";"1";"6";"1";"[37,38,40]";"1";"0";"1"
"561";"15";"12";"1";"38";"1";"1";"6";"1";"[4,36,39,40]";"1";"7";"1"
"562";"32";"12";"1";"9";"1";"1";"6";"2";"[6,7,8,10,19,36]";"1";"0";"1"
"563";"6";"12";"1";"32";"1";"1";"6";"1";"[17,31,33,34,35]";"1";"0";"1"
"564";"10";"13";"1";"17";"1";"1";"6";"1";"[16,18,19,20,32]";"2";"0";"1"
"565";"29";"13";"1";"3";"1";"1";"6";"1";"[1,2]";"1";"0";"1"
"566";"36";"13";"1";"4";"1";"1";"6";"1";"[1,2,5,8,26,38]";"1";"5";"1"
"567";"18";"13";"1";"18";"1";"1";"6";"2";"[5,16,17,19,20]";"2";"0";"1"
"568";"30";"13";"1";"39";"1";"1";"6";"1";"[37,38,40]";"1";"0";"1"
"569";"36";"14";"1";"4";"1";"1";"6";"1";"[1,2,5,8,26,38]";"1";"5";"1"
"570";"39";"15";"1";"30";"1";"1";"6";"1";"[15,26,27]";"2";"0";"1"
"571";"2";"16";"1";"27";"1";"1";"6";"1";"[26,28,29,30]";"1";"0";"1"
"572";"39";"16";"1";"30";"1";"1";"6";"1";"[15,26,27]";"2";"0";"1"
"573";"33";"16";"1";"40";"1";"1";"6";"1";"[36,37,38,39]";"1";"0";"1"
"574";"2";"17";"1";"27";"1";"1";"6";"1";"[26,28,29,30]";"1";"0";"1"
"575";"33";"17";"1";"40";"1";"1";"6";"1";"[36,37,38,39]";"1";"0";"1"
"576";"22";"19";"1";"15";"1";"1";"6";"2";"[11,12,13,14,23,30]";"1";"0";"1"
"577";"3";"20";"1";"16";"1";"1";"6";"2";"[17,18,19,20]";"2";"0";"1"
"578";"22";"20";"1";"15";"1";"1";"6";"2";"[11,12,13,14,23,30]";"1";"0";"1"
"579";"3";"21";"1";"16";"1";"1";"6";"2";"[17,18,19,20]";"2";"0";"1"
"580";"34";"21";"1";"6";"1";"1";"6";"1";"[7,8,9]";"1";"0";"1"
"581";"34";"22";"1";"6";"1";"1";"6";"1";"[7,8,9]";"1";"0";"1"
"582";"1";"22";"1";"24";"1";"1";"6";"1";"[21,22,23,25]";"1";"0";"1"
"583";"1";"23";"1";"24";"1";"1";"6";"1";"[21,22,23,25]";"1";"0";"1"
"584";"17";"1";"1";"13";"1";"1";"7";"1";"[11,12,14,15]";"1";"0";"1"
"585";"23";"1";"1";"21";"1";"1";"7";"2";"[22,23,24,25]";"1";"0";"1"
"586";"17";"2";"1";"13";"1";"1";"7";"1";"[11,12,14,15]";"1";"0";"1"
"587";"20";"2";"1";"31";"1";"1";"7";"1";"[32,33,34,35]";"1";"0";"1"
"588";"23";"2";"1";"21";"1";"1";"7";"2";"[22,23,24,25]";"1";"0";"1"
"589";"36";"2";"1";"4";"1";"1";"7";"1";"[1,2,5,8,26,38]";"0";"5";"1"
"590";"24";"3";"1";"8";"1";"1";"7";"1";"[4,6,7,9]";"2";"0";"1"
"591";"21";"3";"1";"25";"1";"1";"7";"1";"[21,23,24]";"1";"0";"1"
"592";"16";"3";"1";"10";"1";"1";"7";"1";"[9]";"1";"0";"1"
"593";"9";"3";"1";"28";"1";"1";"7";"1";"[26,27,29]";"1";"0";"1"
"594";"20";"3";"1";"31";"1";"1";"7";"1";"[32,33,34,35]";"1";"0";"1"
"595";"36";"4";"1";"4";"1";"1";"7";"1";"[1,2,5,8,26,38]";"0";"4";"1"
"596";"15";"4";"1";"38";"1";"1";"7";"1";"[4,36,39,40]";"1";"0";"1"
"597";"24";"4";"1";"8";"1";"1";"7";"1";"[4,6,7,9]";"2";"0";"1"
"598";"4";"4";"1";"37";"1";"1";"7";"2";"[36,39,40]";"1";"0";"1"
"599";"21";"4";"1";"25";"1";"1";"7";"1";"[21,23,24]";"1";"0";"1"
"600";"13";"4";"1";"26";"1";"1";"7";"1";"[4,27,28,29,30]";"1";"0";"1"
"601";"6";"4";"1";"32";"1";"1";"7";"1";"[17,31,33,34,35]";"1";"0";"1"
"602";"38";"4";"1";"7";"1";"1";"7";"1";"[6,8,9,33]";"1";"0";"1"
"603";"16";"4";"1";"10";"1";"1";"7";"1";"[9]";"1";"0";"1"
"604";"35";"4";"1";"14";"1";"1";"7";"1";"[11,12,13,15]";"1";"0";"1"
"605";"9";"4";"1";"28";"1";"1";"7";"1";"[26,27,29]";"1";"0";"1"
"606";"12";"4";"1";"36";"1";"1";"7";"1";"[9,37,38,40]";"2";"0";"1"
"607";"7";"4";"1";"5";"1";"1";"7";"2";"[1,2,4,18]";"2";"0";"1"
"608";"19";"4";"1";"12";"1";"1";"7";"1";"[11,13,14,15]";"1";"0";"1"
"609";"28";"4";"1";"11";"1";"1";"7";"1";"[12,13,14,15]";"1";"0";"1"
"610";"15";"5";"1";"38";"1";"1";"7";"1";"[4,36,39,40]";"1";"0";"1"
"611";"4";"5";"1";"37";"1";"1";"7";"2";"[36,39,40]";"1";"0";"1"
"612";"13";"5";"1";"26";"1";"1";"7";"1";"[4,27,28,29,30]";"1";"0";"1"
"613";"30";"5";"1";"39";"1";"1";"7";"1";"[37,38,40]";"1";"0";"1"
"614";"6";"5";"1";"32";"1";"1";"7";"1";"[17,31,33,34,35]";"1";"0";"1"
"615";"38";"5";"1";"7";"1";"1";"7";"1";"[6,8,9,33]";"1";"0";"1"
"616";"35";"5";"1";"14";"1";"1";"7";"1";"[11,12,13,15]";"1";"0";"1"
"617";"8";"5";"1";"23";"1";"1";"7";"2";"[15,21,22,24,25]";"1";"0";"1"
"618";"12";"5";"1";"36";"1";"1";"7";"1";"[9,37,38,40]";"2";"0";"1"
"619";"7";"5";"1";"5";"1";"1";"7";"2";"[1,2,4,18]";"2";"0";"1"
"620";"36";"5";"1";"4";"1";"1";"7";"1";"[1,2,5,8,26,38]";"0";"2";"1"
"621";"19";"5";"1";"12";"1";"1";"7";"1";"[11,13,14,15]";"1";"0";"1"
"622";"28";"5";"1";"11";"1";"1";"7";"1";"[12,13,14,15]";"1";"0";"1"
"623";"30";"6";"1";"39";"1";"1";"7";"1";"[37,38,40]";"1";"0";"1"
"624";"8";"6";"1";"23";"1";"1";"7";"2";"[15,21,22,24,25]";"1";"0";"1"
"625";"39";"6";"1";"30";"1";"1";"7";"1";"[15,26,27]";"1";"0";"1"
"626";"2";"6";"1";"27";"1";"1";"7";"1";"[26,28,29,30]";"1";"0";"1"
"627";"36";"7";"1";"4";"1";"1";"7";"1";"[1,2,5,8,26,38]";"0";"6";"1"
"628";"14";"7";"1";"35";"1";"1";"7";"1";"[31,32,33]";"2";"0";"1"
"629";"18";"7";"1";"18";"1";"1";"7";"2";"[5,16,17,19,20]";"1";"0";"1"
"630";"40";"7";"1";"34";"1";"1";"7";"2";"[31,32]";"2";"0";"1"
"631";"39";"7";"1";"30";"1";"1";"7";"1";"[15,26,27]";"1";"0";"1"
"632";"2";"7";"1";"27";"1";"1";"7";"1";"[26,28,29,30]";"1";"0";"1"
"633";"25";"7";"1";"22";"1";"1";"7";"1";"[1,21,23,24]";"1";"0";"1"
"634";"37";"8";"1";"19";"1";"1";"7";"1";"[2,9,16,17,18,20]";"2";"0";"1"
"635";"14";"8";"1";"35";"1";"1";"7";"1";"[31,32,33]";"2";"0";"1"
"636";"18";"8";"1";"18";"1";"1";"7";"2";"[5,16,17,19,20]";"1";"0";"1"
"637";"40";"8";"1";"34";"1";"1";"7";"2";"[31,32]";"2";"0";"1"
"638";"25";"8";"1";"22";"1";"1";"7";"1";"[1,21,23,24]";"1";"0";"1"
"639";"37";"9";"1";"19";"1";"1";"7";"1";"[2,9,16,17,18,20]";"2";"0";"1"
"640";"36";"10";"1";"4";"1";"1";"7";"1";"[1,2,5,8,26,38]";"1";"6";"1"
"641";"26";"10";"1";"29";"1";"1";"7";"1";"[26,27,28]";"1";"0";"1"
"642";"5";"10";"1";"1";"1";"1";"7";"2";"[2,3,4,5,22]";"0";"5";"1"
"643";"36";"11";"1";"4";"1";"1";"7";"1";"[1,2,5,8,26,38]";"1";"6";"1"
"644";"26";"11";"1";"29";"1";"1";"7";"1";"[26,27,28]";"1";"0";"1"
"645";"1";"11";"1";"24";"1";"1";"7";"1";"[21,22,23,25]";"1";"0";"1"
"646";"15";"12";"1";"38";"1";"1";"7";"1";"[4,36,39,40]";"1";"5";"1"
"647";"5";"12";"1";"1";"1";"1";"7";"2";"[2,3,4,5,22]";"0";"6";"1"
"648";"1";"12";"1";"24";"1";"1";"7";"1";"[21,22,23,25]";"1";"0";"1"
"649";"27";"12";"1";"33";"1";"1";"7";"1";"[7,31,32,35]";"1";"0";"1"
"650";"29";"12";"1";"3";"1";"1";"7";"1";"[1,2]";"1";"0";"1"
"651";"15";"13";"1";"38";"1";"1";"7";"1";"[4,36,39,40]";"1";"4";"1"
"652";"27";"13";"1";"33";"1";"1";"7";"1";"[7,31,32,35]";"1";"0";"1"
"653";"29";"13";"1";"3";"1";"1";"7";"1";"[1,2]";"1";"0";"1"
"654";"5";"14";"1";"1";"1";"1";"7";"2";"[2,3,4,5,22]";"2";"6";"1"
"655";"15";"14";"1";"38";"1";"1";"7";"1";"[4,36,39,40]";"1";"3";"1"
"656";"10";"15";"1";"17";"1";"1";"7";"1";"[16,18,19,20,32]";"1";"0";"1"
"657";"5";"15";"1";"1";"1";"1";"7";"2";"[2,3,4,5,22]";"2";"6";"1"
"658";"15";"15";"1";"38";"1";"1";"7";"1";"[4,36,39,40]";"1";"2";"1"
"659";"10";"16";"1";"17";"1";"1";"7";"1";"[16,18,19,20,32]";"1";"0";"1"
"660";"15";"16";"1";"38";"1";"1";"7";"1";"[4,36,39,40]";"1";"1";"1"
"661";"3";"16";"1";"16";"1";"1";"7";"2";"[17,18,19,20]";"2";"0";"1"
"662";"32";"17";"1";"9";"1";"1";"7";"2";"[6,7,8,10,19,36]";"1";"0";"1"
"663";"3";"17";"1";"16";"1";"1";"7";"2";"[17,18,19,20]";"2";"0";"1"
"664";"15";"17";"1";"38";"1";"1";"7";"1";"[4,36,39,40]";"1";"9";"1"
"665";"32";"18";"1";"9";"1";"1";"7";"2";"[6,7,8,10,19,36]";"1";"0";"1"
"666";"31";"19";"1";"2";"1";"1";"7";"1";"[1,3,4,5,19]";"1";"0";"1"
"667";"31";"20";"1";"2";"1";"1";"7";"1";"[1,3,4,5,19]";"1";"0";"1"
"668";"22";"20";"1";"15";"1";"1";"7";"2";"[11,12,13,14,23,30]";"1";"0";"1"
"669";"22";"21";"1";"15";"1";"1";"7";"2";"[11,12,13,14,23,30]";"1";"0";"1"
"670";"11";"21";"1";"20";"1";"1";"7";"1";"[16,17,18,19]";"2";"0";"1"
"671";"11";"22";"1";"20";"1";"1";"7";"1";"[16,17,18,19]";"2";"0";"1"
"672";"34";"24";"1";"6";"1";"1";"7";"1";"[7,8,9]";"1";"0";"1"
"673";"33";"24";"1";"40";"1";"1";"7";"1";"[36,37,38,39]";"1";"0";"1"
"674";"34";"25";"1";"6";"1";"1";"7";"1";"[7,8,9]";"1";"0";"1"
"675";"33";"25";"1";"40";"1";"1";"7";"1";"[36,37,38,39]";"1";"0";"1"
"676";"12";"0";"1";"36";"1";"1";"8";"1";"[9,37,38,40]";"0";"6";"1"
"677";"17";"1";"1";"13";"1";"1";"8";"1";"[11,12,14,15]";"1";"0";"1"
"678";"15";"1";"1";"38";"1";"1";"8";"1";"[4,36,39,40]";"1";"0";"1"
"679";"2";"2";"1";"27";"1";"1";"8";"1";"[26,28,29,30]";"1";"0";"1"
"680";"23";"2";"1";"21";"1";"1";"8";"2";"[22,23,24,25]";"1";"0";"1"
"681";"17";"2";"1";"13";"1";"1";"8";"1";"[11,12,14,15]";"1";"0";"1"
"682";"12";"2";"1";"36";"1";"1";"8";"1";"[9,37,38,40]";"0";"7";"1"
"683";"5";"2";"1";"1";"1";"1";"8";"2";"[2,3,4,5,22]";"0";"6";"1"
"684";"7";"2";"1";"5";"1";"1";"8";"2";"[1,2,4,18]";"2";"0";"1"
"685";"8";"2";"1";"23";"1";"1";"8";"2";"[15,21,22,24,25]";"1";"0";"1"
"686";"20";"2";"1";"31";"1";"1";"8";"1";"[32,33,34,35]";"1";"0";"1"
"687";"15";"2";"1";"38";"1";"1";"8";"1";"[4,36,39,40]";"1";"0";"1"
"688";"14";"2";"1";"35";"1";"1";"8";"1";"[31,32,33]";"1";"0";"1"
"689";"21";"2";"1";"25";"1";"1";"8";"1";"[21,23,24]";"1";"0";"1"
"690";"27";"2";"1";"33";"1";"1";"8";"1";"[7,31,32,35]";"2";"0";"1"
"691";"31";"3";"1";"2";"1";"1";"8";"1";"[1,3,4,5,19]";"1";"0";"1"
"692";"2";"3";"1";"27";"1";"1";"8";"1";"[26,28,29,30]";"1";"0";"1"
"693";"23";"3";"1";"21";"1";"1";"8";"2";"[22,23,24,25]";"1";"0";"1"
"694";"35";"3";"1";"14";"1";"1";"8";"1";"[11,12,13,15]";"1";"0";"1"
"695";"6";"3";"1";"32";"1";"1";"8";"1";"[17,31,33,34,35]";"1";"0";"1"
"696";"36";"3";"1";"4";"1";"1";"8";"1";"[1,2,5,8,26,38]";"0";"11";"1"
"697";"28";"3";"1";"11";"1";"1";"8";"1";"[12,13,14,15]";"1";"0";"1"
"698";"16";"3";"1";"10";"1";"1";"8";"1";"[9]";"1";"0";"1"
"699";"24";"3";"1";"8";"1";"1";"8";"1";"[4,6,7,9]";"1";"0";"1"
"700";"7";"3";"1";"5";"1";"1";"8";"2";"[1,2,4,18]";"2";"0";"1"
"701";"13";"3";"1";"26";"1";"1";"8";"1";"[4,27,28,29,30]";"1";"0";"1"
"702";"8";"3";"1";"23";"1";"1";"8";"2";"[15,21,22,24,25]";"1";"0";"1"
"703";"5";"3";"1";"1";"1";"1";"8";"2";"[2,3,4,5,22]";"0";"7";"1"
"704";"20";"3";"1";"31";"1";"1";"8";"1";"[32,33,34,35]";"1";"0";"1"
"705";"14";"3";"1";"35";"1";"1";"8";"1";"[31,32,33]";"1";"0";"1"
"706";"21";"3";"1";"25";"1";"1";"8";"1";"[21,23,24]";"1";"0";"1"
"707";"39";"3";"1";"30";"1";"1";"8";"1";"[15,26,27]";"1";"0";"1"
"708";"27";"3";"1";"33";"1";"1";"8";"1";"[7,31,32,35]";"2";"0";"1"
"709";"31";"4";"1";"2";"1";"1";"8";"1";"[1,3,4,5,19]";"1";"0";"1"
"710";"12";"4";"1";"36";"1";"1";"8";"1";"[9,37,38,40]";"0";"8";"1"
"711";"35";"4";"1";"14";"1";"1";"8";"1";"[11,12,13,15]";"1";"0";"1"
"712";"6";"4";"1";"32";"1";"1";"8";"1";"[17,31,33,34,35]";"1";"0";"1"
"713";"1";"4";"1";"24";"1";"1";"8";"1";"[21,22,23,25]";"0";"1";"1"
"714";"28";"4";"1";"11";"1";"1";"8";"1";"[12,13,14,15]";"1";"0";"1"
"715";"16";"4";"1";"10";"1";"1";"8";"1";"[9]";"1";"0";"1"
"716";"24";"4";"1";"8";"1";"1";"8";"1";"[4,6,7,9]";"1";"0";"1"
"717";"13";"4";"1";"26";"1";"1";"8";"1";"[4,27,28,29,30]";"1";"0";"1"
"718";"40";"4";"1";"34";"1";"1";"8";"2";"[31,32]";"2";"0";"1"
"719";"4";"4";"1";"37";"1";"1";"8";"2";"[36,39,40]";"2";"0";"1"
"720";"39";"4";"1";"30";"1";"1";"8";"1";"[15,26,27]";"1";"0";"1"
"721";"11";"5";"1";"20";"1";"1";"8";"1";"[16,17,18,19]";"1";"0";"1"
"722";"40";"5";"1";"34";"1";"1";"8";"2";"[31,32]";"2";"0";"1"
"723";"4";"5";"1";"37";"1";"1";"8";"2";"[36,39,40]";"2";"0";"1"
"724";"18";"6";"1";"18";"1";"1";"8";"2";"[5,16,17,19,20]";"2";"0";"1"
"725";"11";"6";"1";"20";"1";"1";"8";"1";"[16,17,18,19]";"1";"0";"1"
"726";"32";"6";"1";"9";"1";"1";"8";"2";"[6,7,8,10,19,36]";"2";"0";"1"
"727";"9";"6";"1";"28";"1";"1";"8";"1";"[26,27,29]";"1";"0";"1"
"728";"29";"6";"1";"3";"1";"1";"8";"1";"[1,2]";"1";"0";"1"
"729";"26";"7";"1";"29";"1";"1";"8";"1";"[26,27,28]";"2";"0";"1"
"730";"18";"7";"1";"18";"1";"1";"8";"2";"[5,16,17,19,20]";"2";"0";"1"
"731";"19";"7";"1";"12";"1";"1";"8";"1";"[11,13,14,15]";"1";"0";"1"
"732";"32";"7";"1";"9";"1";"1";"8";"2";"[6,7,8,10,19,36]";"2";"0";"1"
"733";"9";"7";"1";"28";"1";"1";"8";"1";"[26,27,29]";"1";"0";"1"
"734";"29";"7";"1";"3";"1";"1";"8";"1";"[1,2]";"1";"0";"1"
"735";"26";"8";"1";"29";"1";"1";"8";"1";"[26,27,28]";"2";"0";"1"
"736";"19";"8";"1";"12";"1";"1";"8";"1";"[11,13,14,15]";"1";"0";"1"
"737";"5";"8";"1";"1";"1";"1";"8";"2";"[2,3,4,5,22]";"0";"1";"1"
"738";"25";"9";"1";"22";"1";"1";"8";"1";"[1,21,23,24]";"1";"0";"1"
"739";"5";"9";"1";"1";"1";"1";"8";"2";"[2,3,4,5,22]";"0";"2";"1"
"740";"30";"9";"1";"39";"1";"1";"8";"1";"[37,38,40]";"1";"0";"1"
"741";"1";"9";"1";"24";"1";"1";"8";"1";"[21,22,23,25]";"0";"4";"1"
"742";"25";"10";"1";"22";"1";"1";"8";"1";"[1,21,23,24]";"1";"0";"1"
"743";"5";"10";"1";"1";"1";"1";"8";"2";"[2,3,4,5,22]";"0";"3";"1"
"744";"30";"10";"1";"39";"1";"1";"8";"1";"[37,38,40]";"1";"0";"1"
"745";"5";"11";"1";"1";"1";"1";"8";"2";"[2,3,4,5,22]";"0";"4";"1"
"746";"36";"11";"1";"4";"1";"1";"8";"1";"[1,2,5,8,26,38]";"1";"11";"1"
"747";"1";"12";"1";"24";"1";"1";"8";"1";"[21,22,23,25]";"0";"3";"1"
"748";"5";"12";"1";"1";"1";"1";"8";"2";"[2,3,4,5,22]";"0";"5";"1"
"749";"36";"12";"1";"4";"1";"1";"8";"1";"[1,2,5,8,26,38]";"1";"11";"1"
"750";"33";"13";"1";"40";"1";"1";"8";"1";"[36,37,38,39]";"1";"0";"1"
"751";"1";"13";"1";"24";"1";"1";"8";"1";"[21,22,23,25]";"0";"4";"1"
"752";"33";"14";"1";"40";"1";"1";"8";"1";"[36,37,38,39]";"1";"0";"1"
"753";"5";"14";"1";"1";"1";"1";"8";"2";"[2,3,4,5,22]";"0";"6";"1"
"754";"1";"15";"1";"24";"1";"1";"8";"1";"[21,22,23,25]";"0";"5";"1"
"755";"5";"15";"1";"1";"1";"1";"8";"2";"[2,3,4,5,22]";"0";"7";"1"
"756";"3";"15";"1";"16";"1";"1";"8";"2";"[17,18,19,20]";"2";"0";"1"
"757";"38";"15";"1";"7";"1";"1";"8";"1";"[6,8,9,33]";"1";"0";"1"
"758";"5";"16";"1";"1";"1";"1";"8";"2";"[2,3,4,5,22]";"0";"8";"1"
"759";"3";"16";"1";"16";"1";"1";"8";"2";"[17,18,19,20]";"2";"0";"1"
"760";"1";"16";"1";"24";"1";"1";"8";"1";"[21,22,23,25]";"0";"6";"1"
"761";"38";"16";"1";"7";"1";"1";"8";"1";"[6,8,9,33]";"1";"0";"1"
"762";"5";"17";"1";"1";"1";"1";"8";"2";"[2,3,4,5,22]";"0";"8";"1"
"763";"12";"18";"1";"36";"1";"1";"8";"1";"[9,37,38,40]";"0";"6";"1"
"764";"37";"18";"1";"19";"1";"1";"8";"1";"[2,9,16,17,18,20]";"1";"0";"1"
"765";"1";"19";"1";"24";"1";"1";"8";"1";"[21,22,23,25]";"0";"7";"1"
"766";"10";"19";"1";"17";"1";"1";"8";"1";"[16,18,19,20,32]";"1";"0";"1"
"767";"37";"19";"1";"19";"1";"1";"8";"1";"[2,9,16,17,18,20]";"1";"0";"1"
"768";"5";"19";"1";"1";"1";"1";"8";"2";"[2,3,4,5,22]";"1";"8";"1"
"769";"12";"19";"1";"36";"1";"1";"8";"1";"[9,37,38,40]";"0";"7";"1"
"770";"10";"20";"1";"17";"1";"1";"8";"1";"[16,18,19,20,32]";"1";"0";"1"
"771";"1";"20";"1";"24";"1";"1";"8";"1";"[21,22,23,25]";"0";"8";"1"
"772";"5";"20";"1";"1";"1";"1";"8";"2";"[2,3,4,5,22]";"1";"8";"1"
"773";"12";"22";"1";"36";"1";"1";"8";"1";"[9,37,38,40]";"1";"7";"1"
"774";"12";"23";"1";"36";"1";"1";"8";"1";"[9,37,38,40]";"1";"7";"1"
"775";"1";"23";"1";"24";"1";"1";"8";"1";"[21,22,23,25]";"1";"8";"1"
"776";"1";"24";"1";"24";"1";"1";"8";"1";"[21,22,23,25]";"1";"8";"1"
"777";"22";"26";"1";"15";"1";"1";"8";"2";"[11,12,13,14,23,30]";"1";"0";"1"
"778";"15";"26";"1";"38";"1";"1";"8";"1";"[4,36,39,40]";"1";"1";"1"
"779";"34";"27";"1";"6";"1";"1";"8";"1";"[7,8,9]";"1";"0";"1"
"780";"22";"27";"1";"15";"1";"1";"8";"2";"[11,12,13,14,23,30]";"1";"0";"1"
"781";"34";"28";"1";"6";"1";"1";"8";"1";"[7,8,9]";"1";"0";"1"
"782";"23";"1";"1";"21";"1";"1";"9";"2";"[22,23,24,25]";"1";"0";"1"
"783";"17";"1";"1";"13";"1";"1";"9";"1";"[11,12,14,15]";"1";"0";"1"
"784";"31";"2";"1";"2";"1";"1";"9";"1";"[1,3,4,5,19]";"1";"0";"1"
"785";"23";"2";"1";"21";"1";"1";"9";"2";"[22,23,24,25]";"1";"0";"1"
"786";"15";"2";"1";"38";"1";"1";"9";"1";"[4,36,39,40]";"1";"0";"1"
"787";"7";"2";"1";"5";"1";"1";"9";"2";"[1,2,4,18]";"2";"0";"1"
"788";"2";"2";"1";"27";"1";"1";"9";"1";"[26,28,29,30]";"1";"0";"1"
"789";"17";"2";"1";"13";"1";"1";"9";"1";"[11,12,14,15]";"1";"0";"1"
"790";"4";"2";"1";"37";"1";"1";"9";"2";"[36,39,40]";"1";"0";"1"
"791";"5";"2";"1";"1";"1";"1";"9";"2";"[2,3,4,5,22]";"0";"7";"1"
"792";"6";"2";"1";"32";"1";"1";"9";"1";"[17,31,33,34,35]";"1";"0";"1"
"793";"19";"3";"1";"12";"1";"1";"9";"1";"[11,13,14,15]";"1";"0";"1"
"794";"39";"3";"1";"30";"1";"1";"9";"1";"[15,26,27]";"1";"0";"1"
"795";"31";"3";"1";"2";"1";"1";"9";"1";"[1,3,4,5,19]";"1";"0";"1"
"796";"8";"3";"1";"23";"1";"1";"9";"2";"[15,21,22,24,25]";"1";"0";"1"
"797";"15";"3";"1";"38";"1";"1";"9";"1";"[4,36,39,40]";"1";"0";"1"
"798";"7";"3";"1";"5";"1";"1";"9";"2";"[1,2,4,18]";"2";"0";"1"
"799";"2";"3";"1";"27";"1";"1";"9";"1";"[26,28,29,30]";"1";"0";"1"
"800";"5";"3";"1";"1";"1";"1";"9";"2";"[2,3,4,5,22]";"0";"8";"1"
"801";"4";"3";"1";"37";"1";"1";"9";"2";"[36,39,40]";"1";"0";"1"
"802";"15";"3";"1";"38";"1";"1";"9";"1";"[4,36,39,40]";"1";"1";"1"
"803";"22";"3";"1";"15";"1";"1";"9";"2";"[11,12,13,14,23,30]";"1";"0";"1"
"804";"21";"3";"1";"25";"1";"1";"9";"1";"[21,23,24]";"1";"0";"1"
"805";"6";"3";"1";"32";"1";"1";"9";"1";"[17,31,33,34,35]";"1";"0";"1"
"806";"35";"4";"1";"14";"1";"1";"9";"1";"[11,12,13,15]";"1";"0";"1"
"807";"19";"4";"1";"12";"1";"1";"9";"1";"[11,13,14,15]";"1";"0";"1"
"808";"39";"4";"1";"30";"1";"1";"9";"1";"[15,26,27]";"1";"0";"1"
"809";"26";"4";"1";"29";"1";"1";"9";"1";"[26,27,28]";"1";"0";"1"
"810";"8";"4";"1";"23";"1";"1";"9";"2";"[15,21,22,24,25]";"1";"0";"1"
"811";"28";"4";"1";"11";"1";"1";"9";"1";"[12,13,14,15]";"0";"5";"1"
"812";"24";"4";"1";"8";"1";"1";"9";"1";"[4,6,7,9]";"2";"0";"1"
"813";"27";"4";"1";"33";"1";"1";"9";"1";"[7,31,32,35]";"2";"0";"1"
"814";"22";"4";"1";"15";"1";"1";"9";"2";"[11,12,13,14,23,30]";"1";"0";"1"
"815";"40";"4";"1";"34";"1";"1";"9";"2";"[31,32]";"2";"0";"1"
"816";"21";"4";"1";"25";"1";"1";"9";"1";"[21,23,24]";"1";"0";"1"
"817";"35";"5";"1";"14";"1";"1";"9";"1";"[11,12,13,15]";"1";"0";"1"
"818";"26";"5";"1";"29";"1";"1";"9";"1";"[26,27,28]";"1";"0";"1"
"819";"18";"5";"1";"18";"1";"1";"9";"2";"[5,16,17,19,20]";"1";"0";"1"
"820";"1";"5";"1";"24";"1";"1";"9";"1";"[21,22,23,25]";"0";"7";"1"
"821";"24";"5";"1";"8";"1";"1";"9";"1";"[4,6,7,9]";"2";"0";"1"
"822";"32";"5";"1";"9";"1";"1";"9";"2";"[6,7,8,10,19,36]";"1";"0";"1"
"823";"9";"5";"1";"28";"1";"1";"9";"1";"[26,27,29]";"1";"0";"1"
"824";"27";"5";"1";"33";"1";"1";"9";"1";"[7,31,32,35]";"2";"0";"1"
"825";"40";"5";"1";"34";"1";"1";"9";"2";"[31,32]";"2";"0";"1"
"826";"25";"5";"1";"22";"1";"1";"9";"1";"[1,21,23,24]";"1";"0";"1"
"827";"18";"6";"1";"18";"1";"1";"9";"2";"[5,16,17,19,20]";"1";"0";"1"
"828";"14";"6";"1";"35";"1";"1";"9";"1";"[31,32,33]";"2";"0";"1"
"829";"1";"6";"1";"24";"1";"1";"9";"1";"[21,22,23,25]";"0";"6";"1"
"830";"28";"6";"1";"11";"1";"1";"9";"1";"[12,13,14,15]";"0";"8";"1"
"831";"15";"6";"1";"38";"1";"1";"9";"1";"[4,36,39,40]";"1";"10";"1"
"832";"30";"6";"1";"39";"1";"1";"9";"1";"[37,38,40]";"1";"0";"1"
"833";"32";"6";"1";"9";"1";"1";"9";"2";"[6,7,8,10,19,36]";"1";"0";"1"
"834";"11";"6";"1";"20";"1";"1";"9";"1";"[16,17,18,19]";"2";"0";"1"
"835";"9";"6";"1";"28";"1";"1";"9";"1";"[26,27,29]";"1";"0";"1"
"836";"25";"6";"1";"22";"1";"1";"9";"1";"[1,21,23,24]";"1";"0";"1"
"837";"38";"7";"1";"7";"1";"1";"9";"1";"[6,8,9,33]";"1";"0";"1"
"838";"12";"7";"1";"36";"1";"1";"9";"1";"[9,37,38,40]";"1";"0";"1"
"839";"14";"7";"1";"35";"1";"1";"9";"1";"[31,32,33]";"2";"0";"1"
"840";"30";"7";"1";"39";"1";"1";"9";"1";"[37,38,40]";"1";"0";"1"
"841";"11";"7";"1";"20";"1";"1";"9";"1";"[16,17,18,19]";"2";"0";"1"
"842";"5";"7";"1";"1";"1";"1";"9";"2";"[2,3,4,5,22]";"1";"8";"1"
"843";"28";"7";"1";"11";"1";"1";"9";"1";"[12,13,14,15]";"1";"8";"1"
"844";"36";"7";"1";"4";"1";"1";"9";"1";"[1,2,5,8,26,38]";"1";"0";"1"
"845";"20";"7";"1";"31";"1";"1";"9";"1";"[32,33,34,35]";"1";"0";"1"
"846";"10";"7";"1";"17";"1";"1";"9";"1";"[16,18,19,20,32]";"1";"0";"1"
"847";"38";"8";"1";"7";"1";"1";"9";"1";"[6,8,9,33]";"1";"0";"1"
"848";"1";"8";"1";"24";"1";"1";"9";"1";"[21,22,23,25]";"0";"5";"1"
"849";"13";"8";"1";"26";"1";"1";"9";"1";"[4,27,28,29,30]";"1";"0";"1"
"850";"12";"8";"1";"36";"1";"1";"9";"1";"[9,37,38,40]";"1";"0";"1"
"851";"5";"8";"1";"1";"1";"1";"9";"2";"[2,3,4,5,22]";"1";"8";"1"
"852";"28";"8";"1";"11";"1";"1";"9";"1";"[12,13,14,15]";"1";"8";"1"
"853";"36";"8";"1";"4";"1";"1";"9";"1";"[1,2,5,8,26,38]";"1";"0";"1"
"854";"20";"8";"1";"31";"1";"1";"9";"1";"[32,33,34,35]";"1";"0";"1"
"855";"10";"8";"1";"17";"1";"1";"9";"1";"[16,18,19,20,32]";"1";"0";"1"
"856";"1";"9";"1";"24";"1";"1";"9";"1";"[21,22,23,25]";"0";"4";"1"
"857";"13";"9";"1";"26";"1";"1";"9";"1";"[4,27,28,29,30]";"1";"0";"1"
"858";"1";"10";"1";"24";"1";"1";"9";"1";"[21,22,23,25]";"0";"2";"1"
"859";"1";"12";"1";"24";"1";"1";"9";"1";"[21,22,23,25]";"0";"3";"1"
"860";"29";"13";"1";"3";"1";"1";"9";"1";"[1,2]";"1";"0";"1"
"861";"29";"14";"1";"3";"1";"1";"9";"1";"[1,2]";"1";"0";"1"
"862";"1";"14";"1";"24";"1";"1";"9";"1";"[21,22,23,25]";"0";"4";"1"
"863";"16";"15";"1";"10";"1";"1";"9";"1";"[9]";"1";"0";"1"
"864";"3";"15";"1";"16";"1";"1";"9";"2";"[17,18,19,20]";"2";"0";"1"
"865";"1";"16";"1";"24";"1";"1";"9";"1";"[21,22,23,25]";"0";"5";"1"
"866";"16";"16";"1";"10";"1";"1";"9";"1";"[9]";"1";"0";"1"
"867";"3";"16";"1";"16";"1";"1";"9";"2";"[17,18,19,20]";"2";"0";"1"
"868";"37";"16";"1";"19";"1";"1";"9";"1";"[2,9,16,17,18,20]";"1";"0";"1"
"869";"37";"17";"1";"19";"1";"1";"9";"1";"[2,9,16,17,18,20]";"1";"0";"1"
"870";"1";"19";"1";"24";"1";"1";"9";"1";"[21,22,23,25]";"0";"6";"1"
"871";"1";"23";"1";"24";"1";"1";"9";"1";"[21,22,23,25]";"0";"9";"1"
"872";"34";"23";"1";"6";"1";"1";"9";"1";"[7,8,9]";"2";"0";"1"
"873";"33";"24";"1";"40";"1";"1";"9";"1";"[36,37,38,39]";"2";"0";"1"
"874";"34";"24";"1";"6";"1";"1";"9";"1";"[7,8,9]";"2";"0";"1"
"875";"1";"25";"1";"24";"1";"1";"9";"1";"[21,22,23,25]";"1";"9";"1"
"876";"33";"25";"1";"40";"1";"1";"9";"1";"[36,37,38,39]";"2";"0";"1"
"877";"1";"26";"1";"24";"1";"1";"9";"1";"[21,22,23,25]";"1";"9";"1"
"878";"17";"1";"1";"13";"1";"1";"10";"1";"[11,12,14,15]";"1";"0";"1"
"879";"15";"1";"1";"38";"1";"1";"10";"1";"[4,36,39,40]";"1";"0";"1"
"880";"23";"1";"1";"21";"1";"1";"10";"2";"[22,23,24,25]";"1";"0";"1"
"881";"8";"2";"1";"23";"1";"1";"10";"2";"[15,21,22,24,25]";"1";"0";"1"
"882";"17";"2";"1";"13";"1";"1";"10";"1";"[11,12,14,15]";"1";"0";"1"
"883";"7";"2";"1";"5";"1";"1";"10";"2";"[1,2,4,18]";"2";"0";"1"
"884";"2";"2";"1";"27";"1";"1";"10";"1";"[26,28,29,30]";"1";"0";"1"
"885";"24";"2";"1";"8";"1";"1";"10";"1";"[4,6,7,9]";"2";"0";"1"
"886";"15";"2";"1";"38";"1";"1";"10";"1";"[4,36,39,40]";"1";"0";"1"
"887";"23";"2";"1";"21";"1";"1";"10";"2";"[22,23,24,25]";"1";"0";"1"
"888";"31";"2";"1";"2";"1";"1";"10";"1";"[1,3,4,5,19]";"1";"0";"1"
"889";"16";"2";"1";"10";"1";"1";"10";"1";"[9]";"1";"0";"1"
"890";"40";"2";"1";"34";"1";"1";"10";"2";"[31,32]";"2";"0";"1"
"891";"5";"2";"1";"1";"1";"1";"10";"2";"[2,3,4,5,22]";"0";"8";"1"
"892";"21";"2";"1";"25";"1";"1";"10";"1";"[21,23,24]";"1";"0";"1"
"893";"35";"3";"1";"14";"1";"1";"10";"1";"[11,12,13,15]";"1";"0";"1"
"894";"8";"3";"1";"23";"1";"1";"10";"2";"[15,21,22,24,25]";"1";"0";"1"
"895";"7";"3";"1";"5";"1";"1";"10";"2";"[1,2,4,18]";"2";"0";"1"
"896";"6";"3";"1";"32";"1";"1";"10";"1";"[17,31,33,34,35]";"1";"0";"1"
"897";"2";"3";"1";"27";"1";"1";"10";"1";"[26,28,29,30]";"1";"0";"1"
"898";"24";"3";"1";"8";"1";"1";"10";"1";"[4,6,7,9]";"2";"0";"1"
"899";"31";"3";"1";"2";"1";"1";"10";"1";"[1,3,4,5,19]";"1";"0";"1"
"900";"5";"3";"1";"1";"1";"1";"10";"2";"[2,3,4,5,22]";"0";"10";"1"
"901";"38";"3";"1";"7";"1";"1";"10";"1";"[6,8,9,33]";"2";"0";"1"
"902";"16";"3";"1";"10";"1";"1";"10";"1";"[9]";"1";"0";"1"
"903";"39";"3";"1";"30";"1";"1";"10";"1";"[15,26,27]";"1";"0";"1"
"904";"40";"3";"1";"34";"1";"1";"10";"2";"[31,32]";"2";"0";"1"
"905";"21";"3";"1";"25";"1";"1";"10";"1";"[21,23,24]";"1";"0";"1"
"906";"37";"4";"1";"19";"1";"1";"10";"1";"[2,9,16,17,18,20]";"1";"0";"1"
"907";"19";"4";"1";"12";"1";"1";"10";"1";"[11,13,14,15]";"1";"0";"1"
"908";"35";"4";"1";"14";"1";"1";"10";"1";"[11,12,13,15]";"1";"0";"1"
"909";"6";"4";"1";"32";"1";"1";"10";"1";"[17,31,33,34,35]";"1";"0";"1"
"910";"12";"4";"1";"36";"1";"1";"10";"1";"[9,37,38,40]";"1";"0";"1"
"911";"4";"4";"1";"37";"1";"1";"10";"2";"[36,39,40]";"1";"0";"1"
"912";"38";"4";"1";"7";"1";"1";"10";"1";"[6,8,9,33]";"2";"0";"1"
"913";"39";"4";"1";"30";"1";"1";"10";"1";"[15,26,27]";"1";"0";"1"
"914";"10";"4";"1";"17";"1";"1";"10";"1";"[16,18,19,20,32]";"1";"0";"1"
"915";"28";"5";"1";"11";"1";"1";"10";"1";"[12,13,14,15]";"1";"0";"1"
"916";"37";"5";"1";"19";"1";"1";"10";"1";"[2,9,16,17,18,20]";"1";"0";"1"
"917";"19";"5";"1";"12";"1";"1";"10";"1";"[11,13,14,15]";"1";"0";"1"
"918";"12";"5";"1";"36";"1";"1";"10";"1";"[9,37,38,40]";"1";"0";"1"
"919";"4";"5";"1";"37";"1";"1";"10";"2";"[36,39,40]";"1";"0";"1"
"920";"5";"5";"1";"1";"1";"1";"10";"2";"[2,3,4,5,22]";"1";"10";"1"
"921";"10";"5";"1";"17";"1";"1";"10";"1";"[16,18,19,20,32]";"1";"0";"1"
"922";"28";"6";"1";"11";"1";"1";"10";"1";"[12,13,14,15]";"1";"0";"1"
"923";"14";"6";"1";"35";"1";"1";"10";"1";"[31,32,33]";"1";"0";"1"
"924";"20";"6";"1";"31";"1";"1";"10";"1";"[32,33,34,35]";"1";"0";"1"
"925";"5";"6";"1";"1";"1";"1";"10";"2";"[2,3,4,5,22]";"1";"10";"1"
"926";"15";"6";"1";"38";"1";"1";"10";"1";"[4,36,39,40]";"1";"8";"1"
"927";"11";"6";"1";"20";"1";"1";"10";"1";"[16,17,18,19]";"2";"0";"1"
"928";"14";"7";"1";"35";"1";"1";"10";"1";"[31,32,33]";"1";"0";"1"
"929";"29";"7";"1";"3";"1";"1";"10";"1";"[1,2]";"1";"0";"1"
"930";"20";"7";"1";"31";"1";"1";"10";"1";"[32,33,34,35]";"1";"0";"1"
"931";"9";"7";"1";"28";"1";"1";"10";"1";"[26,27,29]";"1";"0";"1"
"932";"27";"7";"1";"33";"1";"1";"10";"1";"[7,31,32,35]";"2";"0";"1"
"933";"11";"7";"1";"20";"1";"1";"10";"1";"[16,17,18,19]";"2";"0";"1"
"934";"18";"7";"1";"18";"1";"1";"10";"2";"[5,16,17,19,20]";"2";"0";"1"
"935";"15";"8";"1";"38";"1";"1";"10";"1";"[4,36,39,40]";"1";"7";"1"
"936";"26";"8";"1";"29";"1";"1";"10";"1";"[26,27,28]";"1";"0";"1"
"937";"29";"8";"1";"3";"1";"1";"10";"1";"[1,2]";"1";"0";"1"
"938";"9";"8";"1";"28";"1";"1";"10";"1";"[26,27,29]";"1";"0";"1"
"939";"27";"8";"1";"33";"1";"1";"10";"1";"[7,31,32,35]";"2";"0";"1"
"940";"25";"8";"1";"22";"1";"1";"10";"1";"[1,21,23,24]";"1";"0";"1"
"941";"13";"8";"1";"26";"1";"1";"10";"1";"[4,27,28,29,30]";"1";"0";"1"
"942";"18";"8";"1";"18";"1";"1";"10";"2";"[5,16,17,19,20]";"2";"0";"1"
"943";"1";"9";"1";"24";"1";"1";"10";"1";"[21,22,23,25]";"1";"0";"1"
"944";"26";"9";"1";"29";"1";"1";"10";"1";"[26,27,28]";"1";"0";"1"
"945";"15";"9";"1";"38";"1";"1";"10";"1";"[4,36,39,40]";"1";"4";"1"
"946";"25";"9";"1";"22";"1";"1";"10";"1";"[1,21,23,24]";"1";"0";"1"
"947";"13";"9";"1";"26";"1";"1";"10";"1";"[4,27,28,29,30]";"1";"0";"1"
"948";"1";"10";"1";"24";"1";"1";"10";"1";"[21,22,23,25]";"1";"0";"1"
"949";"22";"10";"1";"15";"1";"1";"10";"2";"[11,12,13,14,23,30]";"1";"0";"1"
"950";"15";"10";"1";"38";"1";"1";"10";"1";"[4,36,39,40]";"1";"5";"1"
"951";"30";"10";"1";"39";"1";"1";"10";"1";"[37,38,40]";"1";"0";"1"
"952";"33";"11";"1";"40";"1";"1";"10";"1";"[36,37,38,39]";"1";"0";"1"
"953";"22";"11";"1";"15";"1";"1";"10";"2";"[11,12,13,14,23,30]";"1";"0";"1"
"954";"15";"11";"1";"38";"1";"1";"10";"1";"[4,36,39,40]";"1";"6";"1"
"955";"30";"11";"1";"39";"1";"1";"10";"1";"[37,38,40]";"1";"0";"1"
"956";"33";"12";"1";"40";"1";"1";"10";"1";"[36,37,38,39]";"1";"0";"1"
"957";"32";"12";"1";"9";"1";"1";"10";"2";"[6,7,8,10,19,36]";"1";"0";"1"
"958";"15";"12";"1";"38";"1";"1";"10";"1";"[4,36,39,40]";"1";"7";"1"
"959";"32";"13";"1";"9";"1";"1";"10";"2";"[6,7,8,10,19,36]";"1";"0";"1"
"960";"15";"13";"1";"38";"1";"1";"10";"1";"[4,36,39,40]";"1";"8";"1"
"961";"9";"13";"1";"28";"1";"1";"10";"1";"[26,27,29]";"1";"7";"1"
"962";"15";"14";"1";"38";"1";"1";"10";"1";"[4,36,39,40]";"1";"10";"1"
"963";"9";"15";"1";"28";"1";"1";"10";"1";"[26,27,29]";"1";"8";"1"
"964";"15";"15";"1";"38";"1";"1";"10";"1";"[4,36,39,40]";"1";"10";"1"
"965";"9";"16";"1";"28";"1";"1";"10";"1";"[26,27,29]";"1";"9";"1"
"966";"15";"16";"1";"38";"1";"1";"10";"1";"[4,36,39,40]";"1";"7";"1"
"967";"15";"17";"1";"38";"1";"1";"10";"1";"[4,36,39,40]";"1";"1";"1"
"968";"3";"17";"1";"16";"1";"1";"10";"2";"[17,18,19,20]";"2";"0";"1"
"969";"3";"18";"1";"16";"1";"1";"10";"2";"[17,18,19,20]";"2";"0";"1"
"970";"15";"18";"1";"38";"1";"1";"10";"1";"[4,36,39,40]";"1";"2";"1"
"971";"36";"19";"1";"4";"1";"1";"10";"1";"[1,2,5,8,26,38]";"1";"0";"1"
"972";"15";"19";"1";"38";"1";"1";"10";"1";"[4,36,39,40]";"1";"3";"1"
"973";"15";"20";"1";"38";"1";"1";"10";"1";"[4,36,39,40]";"1";"6";"1"
"974";"36";"20";"1";"4";"1";"1";"10";"1";"[1,2,5,8,26,38]";"1";"0";"1"
"975";"15";"21";"1";"38";"1";"1";"10";"1";"[4,36,39,40]";"1";"11";"1"
"976";"34";"25";"1";"6";"1";"1";"10";"1";"[7,8,9]";"2";"0";"1"
"977";"15";"25";"1";"38";"1";"1";"10";"1";"[4,36,39,40]";"1";"1";"1"
"978";"34";"26";"1";"6";"1";"1";"10";"1";"[7,8,9]";"2";"0";"1"
"979";"2";"1";"1";"27";"1";"1";"11";"1";"[26,28,29,30]";"1";"0";"1"
"980";"17";"1";"1";"13";"1";"1";"11";"1";"[11,12,14,15]";"1";"0";"1"
"981";"23";"1";"1";"21";"1";"1";"11";"2";"[22,23,24,25]";"1";"0";"1"
"982";"24";"1";"1";"8";"1";"1";"11";"1";"[4,6,7,9]";"2";"0";"1"
"983";"15";"2";"1";"38";"1";"1";"11";"1";"[4,36,39,40]";"1";"0";"1"
"984";"31";"2";"1";"2";"1";"1";"11";"1";"[1,3,4,5,19]";"1";"0";"1"
"985";"8";"2";"1";"23";"1";"1";"11";"2";"[15,21,22,24,25]";"1";"0";"1"
"986";"21";"2";"1";"25";"1";"1";"11";"1";"[21,23,24]";"1";"0";"1"
"987";"38";"2";"1";"7";"1";"1";"11";"1";"[6,8,9,33]";"1";"0";"1"
"988";"2";"2";"1";"27";"1";"1";"11";"1";"[26,28,29,30]";"1";"0";"1"
"989";"28";"2";"1";"11";"1";"1";"11";"1";"[12,13,14,15]";"1";"0";"1"
"990";"17";"2";"1";"13";"1";"1";"11";"1";"[11,12,14,15]";"1";"0";"1"
"991";"6";"2";"1";"32";"1";"1";"11";"1";"[17,31,33,34,35]";"1";"0";"1"
"992";"39";"2";"1";"30";"1";"1";"11";"1";"[15,26,27]";"1";"0";"1"
"993";"23";"2";"1";"21";"1";"1";"11";"2";"[22,23,24,25]";"1";"0";"1"
"994";"7";"2";"1";"5";"1";"1";"11";"2";"[1,2,4,18]";"2";"0";"1"
"995";"19";"2";"1";"12";"1";"1";"11";"1";"[11,13,14,15]";"1";"0";"1"
"996";"24";"2";"1";"8";"1";"1";"11";"1";"[4,6,7,9]";"2";"0";"1"
"997";"15";"3";"1";"38";"1";"1";"11";"1";"[4,36,39,40]";"1";"0";"1"
"998";"31";"3";"1";"2";"1";"1";"11";"1";"[1,3,4,5,19]";"1";"0";"1"
"999";"14";"3";"1";"35";"1";"1";"11";"1";"[31,32,33]";"1";"0";"1"
"1000";"8";"3";"1";"23";"1";"1";"11";"2";"[15,21,22,24,25]";"1";"0";"1"
"1001";"5";"3";"1";"1";"1";"1";"11";"2";"[2,3,4,5,22]";"0";"9";"1"
"1002";"11";"3";"1";"20";"1";"1";"11";"1";"[16,17,18,19]";"2";"0";"1"
"1003";"21";"3";"1";"25";"1";"1";"11";"1";"[21,23,24]";"1";"0";"1"
"1004";"38";"3";"1";"7";"1";"1";"11";"1";"[6,8,9,33]";"1";"0";"1"
"1005";"28";"3";"1";"11";"1";"1";"11";"1";"[12,13,14,15]";"1";"0";"1"
"1006";"9";"3";"1";"28";"1";"1";"11";"1";"[26,27,29]";"2";"0";"1"
"1007";"35";"3";"1";"14";"1";"1";"11";"1";"[11,12,13,15]";"1";"0";"1"
"1008";"6";"3";"1";"32";"1";"1";"11";"1";"[17,31,33,34,35]";"1";"0";"1"
"1009";"39";"3";"1";"30";"1";"1";"11";"1";"[15,26,27]";"1";"0";"1"
"1010";"7";"3";"1";"5";"1";"1";"11";"2";"[1,2,4,18]";"2";"0";"1"
"1011";"10";"3";"1";"17";"1";"1";"11";"1";"[16,18,19,20,32]";"2";"0";"1"
"1012";"19";"3";"1";"12";"1";"1";"11";"1";"[11,13,14,15]";"1";"0";"1"
"1013";"32";"4";"1";"9";"1";"1";"11";"2";"[6,7,8,10,19,36]";"2";"0";"1"
"1014";"36";"4";"1";"4";"1";"1";"11";"1";"[1,2,5,8,26,38]";"0";"6";"1"
"1015";"14";"4";"1";"35";"1";"1";"11";"1";"[31,32,33]";"1";"0";"1"
"1016";"4";"4";"1";"37";"1";"1";"11";"2";"[36,39,40]";"1";"0";"1"
"1017";"15";"4";"1";"38";"1";"1";"11";"1";"[4,36,39,40]";"1";"9";"1"
"1018";"11";"4";"1";"20";"1";"1";"11";"1";"[16,17,18,19]";"2";"0";"1"
"1019";"16";"4";"1";"10";"1";"1";"11";"1";"[9]";"1";"0";"1"
"1020";"9";"4";"1";"28";"1";"1";"11";"1";"[26,27,29]";"2";"0";"1"
"1021";"40";"4";"1";"34";"1";"1";"11";"2";"[31,32]";"2";"0";"1"
"1022";"35";"4";"1";"14";"1";"1";"11";"1";"[11,12,13,15]";"1";"0";"1"
"1023";"1";"4";"1";"24";"1";"1";"11";"1";"[21,22,23,25]";"1";"0";"1"
"1024";"25";"4";"1";"22";"1";"1";"11";"1";"[1,21,23,24]";"1";"0";"1"
"1025";"10";"4";"1";"17";"1";"1";"11";"1";"[16,18,19,20,32]";"2";"0";"1"
"1026";"32";"5";"1";"9";"1";"1";"11";"2";"[6,7,8,10,19,36]";"2";"0";"1"
"1027";"4";"5";"1";"37";"1";"1";"11";"2";"[36,39,40]";"1";"0";"1"
"1028";"16";"5";"1";"10";"1";"1";"11";"1";"[9]";"1";"0";"1"
"1029";"15";"5";"1";"38";"1";"1";"11";"1";"[4,36,39,40]";"1";"8";"1"
"1030";"36";"5";"1";"4";"1";"1";"11";"1";"[1,2,5,8,26,38]";"0";"11";"1"
"1031";"40";"5";"1";"34";"1";"1";"11";"2";"[31,32]";"2";"0";"1"
"1032";"26";"5";"1";"29";"1";"1";"11";"1";"[26,27,28]";"1";"0";"1"
"1033";"1";"5";"1";"24";"1";"1";"11";"1";"[21,22,23,25]";"1";"0";"1"
"1034";"20";"5";"1";"31";"1";"1";"11";"1";"[32,33,34,35]";"1";"0";"1"
"1035";"25";"5";"1";"22";"1";"1";"11";"1";"[1,21,23,24]";"1";"0";"1"
"1036";"18";"6";"1";"18";"1";"1";"11";"2";"[5,16,17,19,20]";"2";"0";"1"
"1037";"30";"6";"1";"39";"1";"1";"11";"1";"[37,38,40]";"1";"0";"1"
"1038";"15";"6";"1";"38";"1";"1";"11";"1";"[4,36,39,40]";"1";"7";"1"
"1039";"26";"6";"1";"29";"1";"1";"11";"1";"[26,27,28]";"1";"0";"1"
"1040";"20";"6";"1";"31";"1";"1";"11";"1";"[32,33,34,35]";"1";"0";"1"
"1041";"5";"6";"1";"1";"1";"1";"11";"2";"[2,3,4,5,22]";"0";"7";"1"
"1042";"18";"7";"1";"18";"1";"1";"11";"2";"[5,16,17,19,20]";"2";"0";"1"
"1043";"29";"7";"1";"3";"1";"1";"11";"1";"[1,2]";"1";"0";"1"
"1044";"30";"7";"1";"39";"1";"1";"11";"1";"[37,38,40]";"1";"0";"1"
"1045";"5";"7";"1";"1";"1";"1";"11";"2";"[2,3,4,5,22]";"0";"8";"1"
"1046";"22";"7";"1";"15";"1";"1";"11";"2";"[11,12,13,14,23,30]";"1";"0";"1"
"1047";"15";"8";"1";"38";"1";"1";"11";"1";"[4,36,39,40]";"1";"6";"1"
"1048";"5";"8";"1";"1";"1";"1";"11";"2";"[2,3,4,5,22]";"0";"9";"1"
"1049";"29";"8";"1";"3";"1";"1";"11";"1";"[1,2]";"1";"0";"1"
"1050";"22";"8";"1";"15";"1";"1";"11";"2";"[11,12,13,14,23,30]";"1";"0";"1"
"1051";"5";"8";"1";"1";"1";"1";"11";"2";"[2,3,4,5,22]";"0";"10";"1"
"1052";"27";"9";"1";"33";"1";"1";"11";"1";"[7,31,32,35]";"1";"0";"1"
"1053";"37";"9";"1";"19";"1";"1";"11";"1";"[2,9,16,17,18,20]";"1";"0";"1"
"1054";"15";"9";"1";"38";"1";"1";"11";"1";"[4,36,39,40]";"1";"5";"1"
"1055";"5";"9";"1";"1";"1";"1";"11";"2";"[2,3,4,5,22]";"0";"11";"1"
"1056";"27";"10";"1";"33";"1";"1";"11";"1";"[7,31,32,35]";"1";"0";"1"
"1057";"37";"10";"1";"19";"1";"1";"11";"1";"[2,9,16,17,18,20]";"1";"0";"1"
"1058";"5";"12";"1";"1";"1";"1";"11";"2";"[2,3,4,5,22]";"1";"11";"1"
"1059";"36";"13";"1";"4";"1";"1";"11";"1";"[1,2,5,8,26,38]";"1";"11";"1"
"1060";"5";"13";"1";"1";"1";"1";"11";"2";"[2,3,4,5,22]";"1";"11";"1"
"1061";"15";"13";"1";"38";"1";"1";"11";"1";"[4,36,39,40]";"1";"12";"1"
"1062";"3";"14";"1";"16";"1";"1";"11";"2";"[17,18,19,20]";"2";"0";"1"
"1063";"36";"14";"1";"4";"1";"1";"11";"1";"[1,2,5,8,26,38]";"1";"11";"1"
"1064";"3";"15";"1";"16";"1";"1";"11";"2";"[17,18,19,20]";"2";"0";"1"
"1065";"12";"16";"1";"36";"1";"1";"11";"1";"[9,37,38,40]";"1";"0";"1"
"1066";"13";"16";"1";"26";"1";"1";"11";"1";"[4,27,28,29,30]";"1";"0";"1"
"1067";"12";"17";"1";"36";"1";"1";"11";"1";"[9,37,38,40]";"1";"0";"1"
"1068";"13";"17";"1";"26";"1";"1";"11";"1";"[4,27,28,29,30]";"1";"0";"1"
"1069";"33";"23";"1";"40";"1";"1";"11";"1";"[36,37,38,39]";"2";"0";"1"
"1070";"33";"24";"1";"40";"1";"1";"11";"1";"[36,37,38,39]";"2";"0";"1"
"1071";"34";"26";"1";"6";"1";"1";"11";"1";"[7,8,9]";"1";"0";"1"
"1072";"34";"27";"1";"6";"1";"1";"11";"1";"[7,8,9]";"1";"0";"1"
"1073";"24";"0";"1";"8";"1";"1";"12";"1";"[4,6,7,9]";"2";"0";"1"
"1074";"9";"1";"1";"28";"1";"1";"12";"1";"[26,27,29]";"1";"0";"1"
"1075";"7";"2";"1";"5";"1";"1";"12";"2";"[1,2,4,18]";"2";"0";"1"
"1076";"24";"2";"1";"8";"1";"1";"12";"1";"[4,6,7,9]";"2";"0";"1"
"1077";"9";"2";"1";"28";"1";"1";"12";"1";"[26,27,29]";"1";"0";"1"
"1078";"5";"2";"1";"1";"1";"1";"12";"2";"[2,3,4,5,22]";"1";"0";"1"
"1079";"35";"2";"1";"14";"1";"1";"12";"1";"[11,12,13,15]";"1";"0";"1"
"1080";"19";"2";"1";"12";"1";"1";"12";"1";"[11,13,14,15]";"1";"0";"1"
"1081";"15";"2";"1";"38";"1";"1";"12";"1";"[4,36,39,40]";"1";"0";"1"
"1082";"38";"2";"1";"7";"1";"1";"12";"1";"[6,8,9,33]";"1";"0";"1"
"1083";"8";"2";"1";"23";"1";"1";"12";"2";"[15,21,22,24,25]";"1";"0";"1"
"1084";"21";"3";"1";"25";"1";"1";"12";"1";"[21,23,24]";"1";"0";"1"
"1085";"7";"3";"1";"5";"1";"1";"12";"2";"[1,2,4,18]";"2";"0";"1"
"1086";"4";"3";"1";"37";"1";"1";"12";"2";"[36,39,40]";"2";"0";"1"
"1087";"16";"3";"1";"10";"1";"1";"12";"1";"[9]";"1";"0";"1"
"1088";"5";"3";"1";"1";"1";"1";"12";"2";"[2,3,4,5,22]";"1";"0";"1"
"1089";"35";"3";"1";"14";"1";"1";"12";"1";"[11,12,13,15]";"1";"0";"1"
"1090";"17";"3";"1";"13";"1";"1";"12";"1";"[11,12,14,15]";"1";"0";"1"
"1091";"15";"3";"1";"38";"1";"1";"12";"1";"[4,36,39,40]";"1";"0";"1"
"1092";"19";"3";"1";"12";"1";"1";"12";"1";"[11,13,14,15]";"1";"0";"1"
"1093";"38";"3";"1";"7";"1";"1";"12";"1";"[6,8,9,33]";"1";"0";"1"
"1094";"22";"3";"1";"15";"1";"1";"12";"2";"[11,12,13,14,23,30]";"1";"0";"1"
"1095";"6";"3";"1";"32";"1";"1";"12";"1";"[17,31,33,34,35]";"1";"0";"1"
"1096";"18";"3";"1";"18";"1";"1";"12";"2";"[5,16,17,19,20]";"1";"0";"1"
"1097";"8";"3";"1";"23";"1";"1";"12";"2";"[15,21,22,24,25]";"1";"0";"1"
"1098";"11";"3";"1";"20";"1";"1";"12";"1";"[16,17,18,19]";"2";"0";"1"
"1099";"20";"3";"1";"31";"1";"1";"12";"1";"[32,33,34,35]";"1";"0";"1"
"1100";"32";"3";"1";"9";"1";"1";"12";"2";"[6,7,8,10,19,36]";"1";"0";"1"
"1101";"21";"4";"1";"25";"1";"1";"12";"1";"[21,23,24]";"1";"0";"1"
"1102";"4";"4";"1";"37";"1";"1";"12";"2";"[36,39,40]";"2";"0";"1"
"1103";"27";"4";"1";"33";"1";"1";"12";"1";"[7,31,32,35]";"2";"0";"1"
"1104";"16";"4";"1";"10";"1";"1";"12";"1";"[9]";"1";"0";"1"
"1105";"14";"4";"1";"35";"1";"1";"12";"1";"[31,32,33]";"1";"0";"1"
"1106";"17";"4";"1";"13";"1";"1";"12";"1";"[11,12,14,15]";"1";"0";"1"
"1107";"22";"4";"1";"15";"1";"1";"12";"2";"[11,12,13,14,23,30]";"1";"0";"1"
"1108";"6";"4";"1";"32";"1";"1";"12";"1";"[17,31,33,34,35]";"1";"0";"1"
"1109";"25";"4";"1";"22";"1";"1";"12";"1";"[1,21,23,24]";"1";"0";"1"
"1110";"18";"4";"1";"18";"1";"1";"12";"2";"[5,16,17,19,20]";"1";"0";"1"
"1111";"1";"4";"1";"24";"1";"1";"12";"1";"[21,22,23,25]";"0";"10";"1"
"1112";"11";"4";"1";"20";"1";"1";"12";"1";"[16,17,18,19]";"2";"0";"1"
"1113";"2";"4";"1";"27";"1";"1";"12";"1";"[26,28,29,30]";"1";"0";"1"
"1114";"20";"4";"1";"31";"1";"1";"12";"1";"[32,33,34,35]";"1";"0";"1"
"1115";"32";"4";"1";"9";"1";"1";"12";"2";"[6,7,8,10,19,36]";"1";"0";"1"
"1116";"23";"5";"1";"21";"1";"1";"12";"2";"[22,23,24,25]";"2";"0";"1"
"1117";"27";"5";"1";"33";"1";"1";"12";"1";"[7,31,32,35]";"2";"0";"1"
"1118";"14";"5";"1";"35";"1";"1";"12";"1";"[31,32,33]";"1";"0";"1"
"1119";"26";"5";"1";"29";"1";"1";"12";"1";"[26,27,28]";"2";"0";"1"
"1120";"25";"5";"1";"22";"1";"1";"12";"1";"[1,21,23,24]";"1";"0";"1"
"1121";"12";"5";"1";"36";"1";"1";"12";"1";"[9,37,38,40]";"2";"0";"1"
"1122";"2";"5";"1";"27";"1";"1";"12";"1";"[26,28,29,30]";"1";"0";"1"
"1123";"1";"6";"1";"24";"1";"1";"12";"1";"[21,22,23,25]";"0";"12";"1"
"1124";"28";"6";"1";"11";"1";"1";"12";"1";"[12,13,14,15]";"1";"0";"1"
"1125";"23";"6";"1";"21";"1";"1";"12";"2";"[22,23,24,25]";"2";"0";"1"
"1126";"26";"6";"1";"29";"1";"1";"12";"1";"[26,27,28]";"2";"0";"1"
"1127";"37";"6";"1";"19";"1";"1";"12";"1";"[2,9,16,17,18,20]";"2";"0";"1"
"1128";"36";"6";"1";"4";"1";"1";"12";"1";"[1,2,5,8,26,38]";"1";"0";"1"
"1129";"39";"6";"1";"30";"1";"1";"12";"1";"[15,26,27]";"1";"0";"1"
"1130";"12";"6";"1";"36";"1";"1";"12";"1";"[9,37,38,40]";"2";"0";"1"
"1131";"31";"6";"1";"2";"1";"1";"12";"1";"[1,3,4,5,19]";"1";"0";"1"
"1132";"28";"7";"1";"11";"1";"1";"12";"1";"[12,13,14,15]";"1";"0";"1"
"1133";"37";"7";"1";"19";"1";"1";"12";"1";"[2,9,16,17,18,20]";"2";"0";"1"
"1134";"36";"7";"1";"4";"1";"1";"12";"1";"[1,2,5,8,26,38]";"1";"0";"1"
"1135";"39";"7";"1";"30";"1";"1";"12";"1";"[15,26,27]";"1";"0";"1"
"1136";"1";"7";"1";"24";"1";"1";"12";"1";"[21,22,23,25]";"1";"12";"1"
"1137";"29";"7";"1";"3";"1";"1";"12";"1";"[1,2]";"1";"0";"1"
"1138";"31";"7";"1";"2";"1";"1";"12";"1";"[1,3,4,5,19]";"1";"0";"1"
"1139";"1";"8";"1";"24";"1";"1";"12";"1";"[21,22,23,25]";"1";"12";"1"
"1140";"29";"8";"1";"3";"1";"1";"12";"1";"[1,2]";"1";"0";"1"
"1141";"30";"9";"1";"39";"1";"1";"12";"1";"[37,38,40]";"1";"0";"1"
"1142";"30";"10";"1";"39";"1";"1";"12";"1";"[37,38,40]";"1";"0";"1"
"1143";"3";"10";"1";"16";"1";"1";"12";"2";"[17,18,19,20]";"2";"0";"1"
"1144";"3";"11";"1";"16";"1";"1";"12";"2";"[17,18,19,20]";"2";"0";"1"
"1145";"36";"13";"1";"4";"1";"1";"12";"1";"[1,2,5,8,26,38]";"1";"8";"1"
"1146";"13";"14";"1";"26";"1";"1";"12";"1";"[4,27,28,29,30]";"1";"0";"1"
"1147";"36";"14";"1";"4";"1";"1";"12";"1";"[1,2,5,8,26,38]";"1";"7";"1"
"1148";"10";"14";"1";"17";"1";"1";"12";"1";"[16,18,19,20,32]";"1";"0";"1"
"1149";"40";"14";"1";"34";"1";"1";"12";"2";"[31,32]";"2";"0";"1"
"1150";"13";"15";"1";"26";"1";"1";"12";"1";"[4,27,28,29,30]";"1";"0";"1"
"1151";"36";"15";"1";"4";"1";"1";"12";"1";"[1,2,5,8,26,38]";"1";"6";"1"
"1152";"10";"15";"1";"17";"1";"1";"12";"1";"[16,18,19,20,32]";"1";"0";"1"
"1153";"40";"16";"1";"34";"1";"1";"12";"2";"[31,32]";"2";"0";"1"
"1154";"36";"16";"1";"4";"1";"1";"12";"1";"[1,2,5,8,26,38]";"1";"1";"1"
"1155";"36";"19";"1";"4";"1";"1";"12";"1";"[1,2,5,8,26,38]";"1";"2";"1"
"1156";"33";"21";"1";"40";"1";"1";"12";"1";"[36,37,38,39]";"1";"0";"1"
"1157";"36";"22";"1";"4";"1";"1";"12";"1";"[1,2,5,8,26,38]";"1";"11";"1"
"1158";"33";"22";"1";"40";"1";"1";"12";"1";"[36,37,38,39]";"1";"0";"1"
"1159";"36";"26";"1";"4";"1";"1";"12";"1";"[1,2,5,8,26,38]";"1";"12";"1"
"1160";"34";"29";"1";"6";"1";"1";"12";"1";"[7,8,9]";"1";"0";"1"
"1161";"34";"30";"1";"6";"1";"1";"12";"1";"[7,8,9]";"1";"0";"1"
"1162";"8";"0";"1";"1";"1";"2";"12";"2";"[2,3,4,5,22]";"1";"0";"1"
"1163";"36";"0";"1";"15";"1";"2";"12";"2";"[11,12,13,14,23,30]";"1";"0";"1"
"1164";"2";"0";"1";"12";"1";"2";"12";"2";"[11,13,14,15]";"1";"0";"1"
"1165";"19";"0";"1";"7";"1";"2";"12";"2";"[6,8,9,33]";"1";"0";"1"
"1166";"20";"0";"1";"25";"1";"2";"12";"2";"[21,23,24]";"1";"0";"1"
"1167";"27";"0";"1";"14";"1";"2";"12";"2";"[11,12,13,15]";"1";"0";"1"
"1168";"11";"0";"1";"29";"1";"2";"12";"2";"[26,27,28]";"2";"0";"1"
"1169";"17";"0";"1";"38";"1";"2";"12";"1";"[4,36,39,40]";"1";"0";"1"
"1170";"1";"0";"1";"26";"1";"2";"12";"1";"[4,27,28,29,30]";"1";"0";"1"
"1171";"40";"0";"1";"32";"1";"2";"12";"2";"[17,31,33,34,35]";"1";"0";"1"
"1172";"3";"0";"1";"31";"1";"2";"12";"1";"[32,33,34,35]";"1";"0";"1"
"1173";"31";"0";"1";"35";"1";"2";"12";"1";"[31,32,33]";"1";"0";"1"
"1174";"23";"0";"1";"34";"1";"2";"12";"2";"[31,32]";"2";"0";"1"
"1175";"6";"0";"1";"13";"1";"2";"12";"2";"[11,12,14,15]";"1";"0";"1"
"1176";"35";"0";"1";"37";"1";"2";"12";"2";"[36,39,40]";"2";"0";"1"
"1177";"10";"0";"1";"40";"1";"2";"12";"2";"[36,37,38,39]";"1";"0";"1"
"1178";"14";"0";"1";"6";"1";"2";"12";"2";"[7,8,9]";"1";"0";"1"
"1179";"22";"0";"1";"10";"1";"2";"12";"1";"[9]";"1";"0";"1"
"1180";"13";"0";"1";"2";"1";"2";"12";"2";"[1,3,4,5,19]";"1";"0";"1"
"1181";"24";"0";"1";"36";"1";"2";"12";"1";"[9,37,38,40]";"2";"0";"1"
"1182";"16";"0";"1";"5";"1";"2";"12";"2";"[1,2,4,18]";"2";"0";"1"
"1183";"30";"0";"1";"11";"1";"2";"12";"2";"[12,13,14,15]";"1";"0";"1"
"1184";"39";"0";"1";"17";"1";"2";"12";"1";"[16,18,19,20,32]";"1";"0";"1"
"1185";"5";"0";"1";"30";"1";"2";"12";"2";"[15,26,27]";"1";"0";"1"
"1186";"9";"0";"1";"27";"1";"2";"12";"2";"[26,28,29,30]";"1";"0";"1"
"1187";"33";"0";"1";"8";"1";"2";"12";"2";"[4,6,7,9]";"2";"0";"1"
"1188";"26";"0";"1";"28";"1";"2";"12";"1";"[26,27,29]";"1";"0";"1"
"1189";"29";"0";"1";"22";"1";"2";"12";"1";"[1,21,23,24]";"1";"0";"1"
"1190";"18";"0";"1";"9";"1";"2";"12";"2";"[6,7,8,10,19,36]";"1";"0";"1"
"1191";"38";"0";"1";"19";"1";"2";"12";"2";"[2,9,16,17,18,20]";"2";"0";"1"
"1192";"32";"0";"1";"18";"1";"2";"12";"2";"[5,16,17,19,20]";"1";"0";"1"
"1193";"37";"0";"1";"21";"1";"2";"12";"2";"[22,23,24,25]";"2";"0";"1"
"1194";"12";"0";"1";"33";"1";"2";"12";"2";"[7,31,32,35]";"2";"0";"1"
"1195";"21";"0";"1";"4";"1";"2";"12";"2";"[1,2,5,8,26,38]";"1";"12";"1"
"1196";"25";"0";"1";"16";"1";"2";"12";"2";"[17,18,19,20]";"2";"0";"1"
"1197";"28";"0";"1";"3";"1";"2";"12";"2";"[1,2]";"1";"0";"1"
"1198";"15";"0";"1";"39";"1";"2";"12";"2";"[37,38,40]";"1";"0";"1"
"1199";"7";"0";"1";"23";"1";"2";"12";"1";"[15,21,22,24,25]";"1";"0";"1"
"1200";"34";"0";"1";"24";"1";"2";"12";"2";"[21,22,23,25]";"1";"12";"1"
"1201";"4";"0";"1";"20";"1";"2";"12";"2";"[16,17,18,19]";"2";"0";"1"
"1202";"14";"2";"1";"6";"1";"2";"1";"2";"[7,8,9]";"2";"0";"1"
"1203";"38";"2";"1";"19";"1";"2";"1";"2";"[2,9,16,17,18,20]";"2";"0";"1"
"1204";"12";"2";"1";"33";"1";"2";"1";"2";"[7,31,32,35]";"2";"0";"1"
"1205";"36";"2";"1";"15";"1";"2";"1";"2";"[11,12,13,14,23,30]";"2";"0";"1"
"1206";"17";"2";"1";"38";"1";"2";"1";"1";"[4,36,39,40]";"1";"0";"1"
"1207";"9";"2";"1";"27";"1";"2";"1";"2";"[26,28,29,30]";"2";"0";"1"
"1208";"23";"2";"1";"34";"1";"2";"1";"2";"[31,32]";"1";"0";"1"
"1209";"14";"3";"1";"6";"1";"2";"1";"2";"[7,8,9]";"2";"0";"1"
"1210";"24";"3";"1";"36";"1";"2";"1";"1";"[9,37,38,40]";"2";"0";"1"
"1211";"38";"3";"1";"19";"1";"2";"1";"2";"[2,9,16,17,18,20]";"2";"0";"1"
"1212";"12";"3";"1";"33";"1";"2";"1";"2";"[7,31,32,35]";"2";"0";"1"
"1213";"36";"3";"1";"15";"1";"2";"1";"2";"[11,12,13,14,23,30]";"2";"0";"1"
"1214";"17";"3";"1";"38";"1";"2";"1";"1";"[4,36,39,40]";"1";"0";"1"
"1215";"9";"3";"1";"27";"1";"2";"1";"2";"[26,28,29,30]";"2";"0";"1"
"1216";"23";"3";"1";"34";"1";"2";"1";"2";"[31,32]";"1";"0";"1"
"1217";"5";"4";"1";"30";"1";"2";"1";"2";"[15,26,27]";"2";"0";"1"
"1218";"35";"4";"1";"37";"1";"2";"1";"2";"[36,39,40]";"2";"0";"1"
"1219";"37";"4";"1";"21";"1";"2";"1";"2";"[22,23,24,25]";"2";"0";"1"
"1220";"15";"4";"1";"39";"1";"2";"1";"2";"[37,38,40]";"2";"0";"1"
"1221";"24";"4";"1";"36";"1";"2";"1";"1";"[9,37,38,40]";"2";"0";"1"
"1222";"11";"4";"1";"29";"1";"2";"1";"2";"[26,27,28]";"2";"0";"1"
"1223";"30";"4";"1";"11";"1";"2";"1";"2";"[12,13,14,15]";"2";"0";"1"
"1224";"2";"4";"1";"12";"1";"2";"1";"2";"[11,13,14,15]";"2";"0";"1"
"1225";"34";"4";"1";"24";"1";"2";"1";"2";"[21,22,23,25]";"1";"0";"1"
"1226";"19";"4";"1";"7";"1";"2";"1";"2";"[6,8,9,33]";"2";"0";"1"
"1227";"5";"5";"1";"30";"1";"2";"1";"2";"[15,26,27]";"2";"0";"1"
"1228";"39";"5";"1";"17";"1";"2";"1";"1";"[16,18,19,20,32]";"2";"0";"1"
"1229";"35";"5";"1";"37";"1";"2";"1";"2";"[36,39,40]";"2";"0";"1"
"1230";"37";"5";"1";"21";"1";"2";"1";"2";"[22,23,24,25]";"2";"0";"1"
"1231";"4";"5";"1";"20";"1";"2";"1";"2";"[16,17,18,19]";"2";"0";"1"
"1232";"15";"5";"1";"39";"1";"2";"1";"2";"[37,38,40]";"2";"0";"1"
"1233";"25";"5";"1";"16";"1";"2";"1";"2";"[17,18,19,20]";"2";"0";"1"
"1234";"11";"5";"1";"29";"1";"2";"1";"2";"[26,27,28]";"2";"0";"1"
"1235";"30";"5";"1";"11";"1";"2";"1";"2";"[12,13,14,15]";"2";"0";"1"
"1236";"2";"5";"1";"12";"1";"2";"1";"2";"[11,13,14,15]";"2";"0";"1"
"1237";"34";"5";"1";"24";"1";"2";"1";"2";"[21,22,23,25]";"1";"0";"1"
"1238";"22";"5";"1";"10";"1";"2";"1";"1";"[9]";"1";"0";"1"
"1239";"19";"5";"1";"7";"1";"2";"1";"2";"[6,8,9,33]";"2";"0";"1"
"1240";"16";"5";"1";"5";"1";"2";"1";"2";"[1,2,4,18]";"2";"0";"1"
"1241";"3";"6";"1";"31";"1";"2";"1";"1";"[32,33,34,35]";"1";"0";"1"
"1242";"13";"6";"1";"2";"1";"2";"1";"2";"[1,3,4,5,19]";"2";"0";"1"
"1243";"39";"6";"1";"17";"1";"2";"1";"1";"[16,18,19,20,32]";"2";"0";"1"
"1244";"20";"6";"1";"25";"1";"2";"1";"2";"[21,23,24]";"2";"0";"1"
"1245";"27";"6";"1";"14";"1";"2";"1";"2";"[11,12,13,15]";"2";"0";"1"
"1246";"28";"6";"1";"3";"1";"2";"1";"2";"[1,2]";"2";"0";"1"
"1247";"4";"6";"1";"20";"1";"2";"1";"2";"[16,17,18,19]";"2";"0";"1"
"1248";"25";"6";"1";"16";"1";"2";"1";"2";"[17,18,19,20]";"2";"0";"1"
"1249";"8";"6";"1";"1";"1";"2";"1";"2";"[2,3,4,5,22]";"2";"0";"1"
"1250";"26";"6";"1";"28";"1";"2";"1";"1";"[26,27,29]";"2";"0";"1"
"1251";"32";"6";"1";"18";"1";"2";"1";"2";"[5,16,17,19,20]";"2";"0";"1"
"1252";"22";"6";"1";"10";"1";"2";"1";"1";"[9]";"1";"0";"1"
"1253";"16";"6";"1";"5";"1";"2";"1";"2";"[1,2,4,18]";"2";"0";"1"
"1254";"13";"7";"1";"2";"1";"2";"1";"2";"[1,3,4,5,19]";"2";"0";"1"
"1255";"3";"7";"1";"31";"1";"2";"1";"1";"[32,33,34,35]";"1";"0";"1"
"1256";"31";"7";"1";"35";"1";"2";"1";"1";"[31,32,33]";"1";"0";"1"
"1257";"20";"7";"1";"25";"1";"2";"1";"2";"[21,23,24]";"2";"0";"1"
"1258";"27";"7";"1";"14";"1";"2";"1";"2";"[11,12,13,15]";"2";"0";"1"
"1259";"28";"7";"1";"3";"1";"2";"1";"2";"[1,2]";"2";"0";"1"
"1260";"6";"7";"1";"13";"1";"2";"1";"2";"[11,12,14,15]";"2";"0";"1"
"1261";"8";"7";"1";"1";"1";"2";"1";"2";"[2,3,4,5,22]";"2";"0";"1"
"1262";"26";"7";"1";"28";"1";"2";"1";"1";"[26,27,29]";"2";"0";"1"
"1263";"32";"7";"1";"18";"1";"2";"1";"2";"[5,16,17,19,20]";"2";"0";"1"
"1264";"29";"8";"1";"22";"1";"2";"1";"1";"[1,21,23,24]";"1";"0";"1"
"1265";"31";"8";"1";"35";"1";"2";"1";"1";"[31,32,33]";"1";"0";"1"
"1266";"6";"8";"1";"13";"1";"2";"1";"2";"[11,12,14,15]";"2";"0";"1"
"1267";"29";"9";"1";"22";"1";"2";"1";"1";"[1,21,23,24]";"1";"0";"1"
"1268";"21";"9";"1";"4";"1";"2";"1";"2";"[1,2,5,8,26,38]";"2";"0";"1"
"1269";"33";"10";"1";"8";"1";"2";"1";"2";"[4,6,7,9]";"1";"0";"1"
"1270";"40";"10";"1";"32";"1";"2";"1";"2";"[17,31,33,34,35]";"2";"0";"1"
"1271";"21";"10";"1";"4";"1";"2";"1";"2";"[1,2,5,8,26,38]";"2";"0";"1"
"1272";"33";"11";"1";"8";"1";"2";"1";"2";"[4,6,7,9]";"1";"0";"1"
"1273";"40";"11";"1";"32";"1";"2";"1";"2";"[17,31,33,34,35]";"2";"0";"1"
"1274";"18";"12";"1";"9";"1";"2";"1";"2";"[6,7,8,10,19,36]";"2";"0";"1"
"1275";"10";"13";"1";"40";"1";"2";"1";"2";"[36,37,38,39]";"2";"0";"1"
"1276";"1";"13";"1";"26";"1";"2";"1";"1";"[4,27,28,29,30]";"1";"0";"1"
"1277";"18";"13";"1";"9";"1";"2";"1";"2";"[6,7,8,10,19,36]";"2";"0";"1"
"1278";"10";"14";"1";"40";"1";"2";"1";"2";"[36,37,38,39]";"2";"0";"1"
"1279";"1";"14";"1";"26";"1";"2";"1";"1";"[4,27,28,29,30]";"1";"0";"1"
"1280";"7";"17";"1";"23";"1";"2";"1";"1";"[15,21,22,24,25]";"2";"0";"1"
"1281";"7";"18";"1";"23";"1";"2";"1";"1";"[15,21,22,24,25]";"2";"0";"1"
"1282";"17";"1";"1";"38";"1";"2";"2";"1";"[4,36,39,40]";"1";"0";"1"
"1283";"23";"1";"1";"34";"1";"2";"2";"2";"[31,32]";"1";"0";"1"
"1284";"14";"2";"1";"6";"1";"2";"2";"2";"[7,8,9]";"2";"0";"1"
"1285";"16";"2";"1";"5";"1";"2";"2";"2";"[1,2,4,18]";"2";"0";"1"
"1286";"17";"2";"1";"38";"1";"2";"2";"1";"[4,36,39,40]";"1";"0";"1"
"1287";"8";"2";"1";"1";"1";"2";"2";"2";"[2,3,4,5,22]";"2";"0";"1"
"1288";"4";"2";"1";"20";"1";"2";"2";"2";"[16,17,18,19]";"2";"0";"1"
"1289";"23";"2";"1";"34";"1";"2";"2";"2";"[31,32]";"1";"0";"1"
"1290";"27";"2";"1";"14";"1";"2";"2";"2";"[11,12,13,15]";"2";"0";"1"
"1291";"14";"3";"1";"6";"1";"2";"2";"2";"[7,8,9]";"2";"0";"1"
"1292";"6";"3";"1";"13";"1";"2";"2";"2";"[11,12,14,15]";"2";"0";"1"
"1293";"16";"3";"1";"5";"1";"2";"2";"2";"[1,2,4,18]";"2";"0";"1"
"1294";"2";"3";"1";"12";"1";"2";"2";"2";"[11,13,14,15]";"2";"0";"1"
"1295";"8";"3";"1";"1";"1";"2";"2";"2";"[2,3,4,5,22]";"2";"0";"1"
"1296";"4";"3";"1";"20";"1";"2";"2";"2";"[16,17,18,19]";"2";"0";"1"
"1297";"24";"3";"1";"36";"1";"2";"2";"1";"[9,37,38,40]";"2";"0";"1"
"1298";"27";"3";"1";"14";"1";"2";"2";"2";"[11,12,13,15]";"2";"0";"1"
"1299";"6";"4";"1";"13";"1";"2";"2";"2";"[11,12,14,15]";"2";"0";"1"
"1300";"2";"4";"1";"12";"1";"2";"2";"2";"[11,13,14,15]";"2";"0";"1"
"1301";"24";"4";"1";"36";"1";"2";"2";"1";"[9,37,38,40]";"2";"0";"1"
"1302";"12";"4";"1";"33";"1";"2";"2";"2";"[7,31,32,35]";"1";"0";"1"
"1303";"37";"5";"1";"21";"1";"2";"2";"2";"[22,23,24,25]";"2";"0";"1"
"1304";"20";"5";"1";"25";"1";"2";"2";"2";"[21,23,24]";"2";"0";"1"
"1305";"25";"5";"1";"16";"1";"2";"2";"2";"[17,18,19,20]";"2";"0";"1"
"1306";"32";"5";"1";"18";"1";"2";"2";"2";"[5,16,17,19,20]";"2";"0";"1"
"1307";"15";"5";"1";"39";"1";"2";"2";"2";"[37,38,40]";"2";"0";"1"
"1308";"38";"5";"1";"19";"1";"2";"2";"2";"[2,9,16,17,18,20]";"2";"0";"1"
"1309";"39";"5";"1";"17";"1";"2";"2";"1";"[16,18,19,20,32]";"2";"0";"1"
"1310";"9";"5";"1";"27";"1";"2";"2";"2";"[26,28,29,30]";"2";"0";"1"
"1311";"12";"5";"1";"33";"1";"2";"2";"2";"[7,31,32,35]";"1";"0";"1"
"1312";"37";"6";"1";"21";"1";"2";"2";"2";"[22,23,24,25]";"2";"0";"1"
"1313";"11";"6";"1";"29";"1";"2";"2";"2";"[26,27,28]";"2";"0";"1"
"1314";"20";"6";"1";"25";"1";"2";"2";"2";"[21,23,24]";"2";"0";"1"
"1315";"25";"6";"1";"16";"1";"2";"2";"2";"[17,18,19,20]";"2";"0";"1"
"1316";"32";"6";"1";"18";"1";"2";"2";"2";"[5,16,17,19,20]";"2";"0";"1"
"1317";"15";"6";"1";"39";"1";"2";"2";"2";"[37,38,40]";"2";"0";"1"
"1318";"38";"6";"1";"19";"1";"2";"2";"2";"[2,9,16,17,18,20]";"2";"0";"1"
"1319";"18";"6";"1";"9";"1";"2";"2";"2";"[6,7,8,10,19,36]";"1";"0";"1"
"1320";"39";"6";"1";"17";"1";"2";"2";"1";"[16,18,19,20,32]";"2";"0";"1"
"1321";"13";"6";"1";"2";"1";"2";"2";"2";"[1,3,4,5,19]";"2";"0";"1"
"1322";"26";"6";"1";"28";"1";"2";"2";"1";"[26,27,29]";"1";"0";"1"
"1323";"9";"6";"1";"27";"1";"2";"2";"2";"[26,28,29,30]";"2";"0";"1"
"1324";"11";"7";"1";"29";"1";"2";"2";"2";"[26,27,28]";"2";"0";"1"
"1325";"29";"7";"1";"22";"1";"2";"2";"1";"[1,21,23,24]";"2";"0";"1"
"1326";"5";"7";"1";"30";"1";"2";"2";"2";"[15,26,27]";"2";"0";"1"
"1327";"18";"7";"1";"9";"1";"2";"2";"2";"[6,7,8,10,19,36]";"1";"0";"1"
"1328";"13";"7";"1";"2";"1";"2";"2";"2";"[1,3,4,5,19]";"2";"0";"1"
"1329";"30";"7";"1";"11";"1";"2";"2";"2";"[12,13,14,15]";"2";"0";"1"
"1330";"26";"7";"1";"28";"1";"2";"2";"1";"[26,27,29]";"1";"0";"1"
"1331";"36";"8";"1";"15";"1";"2";"2";"2";"[11,12,13,14,23,30]";"2";"0";"1"
"1332";"29";"8";"1";"22";"1";"2";"2";"1";"[1,21,23,24]";"2";"0";"1"
"1333";"5";"8";"1";"30";"1";"2";"2";"2";"[15,26,27]";"2";"0";"1"
"1334";"30";"8";"1";"11";"1";"2";"2";"2";"[12,13,14,15]";"2";"0";"1"
"1335";"36";"9";"1";"15";"1";"2";"2";"2";"[11,12,13,14,23,30]";"2";"0";"1"
"1336";"19";"10";"1";"7";"1";"2";"2";"2";"[6,8,9,33]";"2";"0";"1"
"1337";"40";"11";"1";"32";"1";"2";"2";"2";"[17,31,33,34,35]";"2";"0";"1"
"1338";"10";"11";"1";"40";"1";"2";"2";"2";"[36,37,38,39]";"2";"0";"1"
"1339";"7";"11";"1";"23";"1";"2";"2";"1";"[15,21,22,24,25]";"2";"0";"1"
"1340";"19";"11";"1";"7";"1";"2";"2";"2";"[6,8,9,33]";"2";"0";"1"
"1341";"40";"12";"1";"32";"1";"2";"2";"2";"[17,31,33,34,35]";"2";"0";"1"
"1342";"10";"12";"1";"40";"1";"2";"2";"2";"[36,37,38,39]";"2";"0";"1"
"1343";"7";"12";"1";"23";"1";"2";"2";"1";"[15,21,22,24,25]";"2";"0";"1"
"1344";"1";"12";"1";"26";"1";"2";"2";"1";"[4,27,28,29,30]";"2";"0";"1"
"1345";"31";"13";"1";"35";"1";"2";"2";"1";"[31,32,33]";"1";"0";"1"
"1346";"1";"13";"1";"26";"1";"2";"2";"1";"[4,27,28,29,30]";"2";"0";"1"
"1347";"35";"13";"1";"37";"1";"2";"2";"2";"[36,39,40]";"2";"0";"1"
"1348";"21";"13";"1";"4";"1";"2";"2";"2";"[1,2,5,8,26,38]";"2";"0";"1"
"1349";"31";"14";"1";"35";"1";"2";"2";"1";"[31,32,33]";"1";"0";"1"
"1350";"34";"14";"1";"24";"1";"2";"2";"2";"[21,22,23,25]";"0";"6";"1"
"1351";"33";"14";"1";"8";"1";"2";"2";"2";"[4,6,7,9]";"1";"0";"1"
"1352";"35";"14";"1";"37";"1";"2";"2";"2";"[36,39,40]";"2";"0";"1"
"1353";"21";"14";"1";"4";"1";"2";"2";"2";"[1,2,5,8,26,38]";"2";"0";"1"
"1354";"33";"15";"1";"8";"1";"2";"2";"2";"[4,6,7,9]";"1";"0";"1"
"1355";"28";"15";"1";"3";"1";"2";"2";"2";"[1,2]";"2";"0";"1"
"1356";"22";"16";"1";"10";"1";"2";"2";"1";"[9]";"1";"0";"1"
"1357";"28";"16";"1";"3";"1";"2";"2";"2";"[1,2]";"2";"0";"1"
"1358";"22";"17";"1";"10";"1";"2";"2";"1";"[9]";"1";"0";"1"
"1359";"3";"25";"1";"31";"1";"2";"2";"1";"[32,33,34,35]";"1";"0";"1"
"1360";"34";"26";"1";"24";"1";"2";"2";"2";"[21,22,23,25]";"1";"6";"1"
"1361";"3";"26";"1";"31";"1";"2";"2";"1";"[32,33,34,35]";"1";"0";"1"
"1362";"34";"27";"1";"24";"1";"2";"2";"2";"[21,22,23,25]";"1";"6";"1"
"1363";"23";"0";"1";"34";"1";"2";"3";"2";"[31,32]";"1";"0";"1"
"1364";"17";"1";"1";"38";"1";"2";"3";"1";"[4,36,39,40]";"1";"0";"1"
"1365";"16";"1";"1";"5";"1";"2";"3";"2";"[1,2,4,18]";"2";"0";"1"
"1366";"2";"1";"1";"12";"1";"2";"3";"2";"[11,13,14,15]";"2";"0";"1"
"1367";"14";"1";"1";"6";"1";"2";"3";"2";"[7,8,9]";"2";"0";"1"
"1368";"23";"1";"1";"34";"1";"2";"3";"2";"[31,32]";"1";"0";"1"
"1369";"5";"2";"1";"30";"1";"2";"3";"2";"[15,26,27]";"2";"0";"1"
"1370";"17";"2";"1";"38";"1";"2";"3";"1";"[4,36,39,40]";"1";"0";"1"
"1371";"20";"2";"1";"25";"1";"2";"3";"2";"[21,23,24]";"2";"0";"1"
"1372";"6";"2";"1";"13";"1";"2";"3";"2";"[11,12,14,15]";"2";"0";"1"
"1373";"38";"2";"1";"19";"1";"2";"3";"2";"[2,9,16,17,18,20]";"2";"0";"1"
"1374";"16";"2";"1";"5";"1";"2";"3";"2";"[1,2,4,18]";"2";"0";"1"
"1375";"2";"2";"1";"12";"1";"2";"3";"2";"[11,13,14,15]";"2";"0";"1"
"1376";"14";"2";"1";"6";"1";"2";"3";"2";"[7,8,9]";"2";"0";"1"
"1377";"36";"2";"1";"15";"1";"2";"3";"2";"[11,12,13,14,23,30]";"2";"0";"1"
"1378";"32";"2";"1";"18";"1";"2";"3";"2";"[5,16,17,19,20]";"2";"0";"1"
"1379";"21";"3";"1";"4";"1";"2";"3";"2";"[1,2,5,8,26,38]";"2";"0";"1"
"1380";"5";"3";"1";"30";"1";"2";"3";"2";"[15,26,27]";"2";"0";"1"
"1381";"27";"3";"1";"14";"1";"2";"3";"2";"[11,12,13,15]";"1";"0";"1"
"1382";"20";"3";"1";"25";"1";"2";"3";"2";"[21,23,24]";"2";"0";"1"
"1383";"6";"3";"1";"13";"1";"2";"3";"2";"[11,12,14,15]";"2";"0";"1"
"1384";"38";"3";"1";"19";"1";"2";"3";"2";"[2,9,16,17,18,20]";"2";"0";"1"
"1385";"9";"3";"1";"27";"1";"2";"3";"2";"[26,28,29,30]";"2";"0";"1"
"1386";"39";"3";"1";"17";"1";"2";"3";"1";"[16,18,19,20,32]";"2";"0";"1"
"1387";"8";"3";"1";"1";"1";"2";"3";"2";"[2,3,4,5,22]";"2";"0";"1"
"1388";"36";"3";"1";"15";"1";"2";"3";"2";"[11,12,13,14,23,30]";"2";"0";"1"
"1389";"4";"3";"1";"20";"1";"2";"3";"2";"[16,17,18,19]";"2";"0";"1"
"1390";"19";"3";"1";"7";"1";"2";"3";"2";"[6,8,9,33]";"1";"0";"1"
"1391";"26";"3";"1";"28";"1";"2";"3";"1";"[26,27,29]";"1";"0";"1"
"1392";"32";"3";"1";"18";"1";"2";"3";"2";"[5,16,17,19,20]";"2";"0";"1"
"1393";"11";"3";"1";"29";"1";"2";"3";"2";"[26,27,28]";"2";"0";"1"
"1394";"21";"4";"1";"4";"1";"2";"3";"2";"[1,2,5,8,26,38]";"2";"0";"1"
"1395";"27";"4";"1";"14";"1";"2";"3";"2";"[11,12,13,15]";"1";"0";"1"
"1396";"29";"4";"1";"22";"1";"2";"3";"1";"[1,21,23,24]";"2";"0";"1"
"1397";"31";"4";"1";"35";"1";"2";"3";"1";"[31,32,33]";"1";"0";"1"
"1398";"28";"4";"1";"3";"1";"2";"3";"2";"[1,2]";"2";"0";"1"
"1399";"9";"4";"1";"27";"1";"2";"3";"2";"[26,28,29,30]";"2";"0";"1"
"1400";"39";"4";"1";"17";"1";"2";"3";"1";"[16,18,19,20,32]";"2";"0";"1"
"1401";"8";"4";"1";"1";"1";"2";"3";"2";"[2,3,4,5,22]";"2";"0";"1"
"1402";"4";"4";"1";"20";"1";"2";"3";"2";"[16,17,18,19]";"2";"0";"1"
"1403";"19";"4";"1";"7";"1";"2";"3";"2";"[6,8,9,33]";"1";"0";"1"
"1404";"26";"4";"1";"28";"1";"2";"3";"1";"[26,27,29]";"1";"0";"1"
"1405";"11";"5";"1";"29";"1";"2";"3";"2";"[26,27,28]";"2";"0";"1"
"1406";"25";"5";"1";"16";"1";"2";"3";"2";"[17,18,19,20]";"2";"0";"1"
"1407";"29";"5";"1";"22";"1";"2";"3";"1";"[1,21,23,24]";"2";"0";"1"
"1408";"31";"5";"1";"35";"1";"2";"3";"1";"[31,32,33]";"1";"0";"1"
"1409";"28";"5";"1";"3";"1";"2";"3";"2";"[1,2]";"2";"0";"1"
"1410";"30";"5";"1";"11";"1";"2";"3";"2";"[12,13,14,15]";"2";"0";"1"
"1411";"40";"5";"1";"32";"1";"2";"3";"2";"[17,31,33,34,35]";"0";"1";"1"
"1412";"25";"6";"1";"16";"1";"2";"3";"2";"[17,18,19,20]";"2";"0";"1"
"1413";"13";"6";"1";"2";"1";"2";"3";"2";"[1,3,4,5,19]";"2";"0";"1"
"1414";"30";"6";"1";"11";"1";"2";"3";"2";"[12,13,14,15]";"2";"0";"1"
"1415";"10";"7";"1";"40";"1";"2";"3";"2";"[36,37,38,39]";"1";"0";"1"
"1416";"22";"7";"1";"10";"1";"2";"3";"1";"[9]";"1";"0";"1"
"1417";"13";"7";"1";"2";"1";"2";"3";"2";"[1,3,4,5,19]";"2";"0";"1"
"1418";"10";"8";"1";"40";"1";"2";"3";"2";"[36,37,38,39]";"1";"0";"1"
"1419";"22";"8";"1";"10";"1";"2";"3";"1";"[9]";"1";"0";"1"
"1420";"40";"8";"1";"32";"1";"2";"3";"2";"[17,31,33,34,35]";"0";"3";"1"
"1421";"12";"8";"1";"33";"1";"2";"3";"2";"[7,31,32,35]";"2";"0";"1"
"1422";"15";"8";"1";"39";"1";"2";"3";"2";"[37,38,40]";"2";"0";"1"
"1423";"12";"9";"1";"33";"1";"2";"3";"2";"[7,31,32,35]";"2";"0";"1"
"1424";"40";"9";"1";"32";"1";"2";"3";"2";"[17,31,33,34,35]";"0";"3";"1"
"1425";"15";"9";"1";"39";"1";"2";"3";"2";"[37,38,40]";"2";"0";"1"
"1426";"18";"10";"1";"9";"1";"2";"3";"2";"[6,7,8,10,19,36]";"2";"0";"1"
"1427";"18";"11";"1";"9";"1";"2";"3";"2";"[6,7,8,10,19,36]";"2";"0";"1"
"1428";"40";"11";"1";"32";"1";"2";"3";"2";"[17,31,33,34,35]";"2";"3";"1"
"1429";"40";"12";"1";"32";"1";"2";"3";"2";"[17,31,33,34,35]";"2";"3";"1"
"1430";"35";"13";"1";"37";"1";"2";"3";"2";"[36,39,40]";"2";"0";"1"
"1431";"1";"13";"1";"26";"1";"2";"3";"1";"[4,27,28,29,30]";"2";"0";"1"
"1432";"24";"14";"1";"36";"1";"2";"3";"1";"[9,37,38,40]";"2";"0";"1"
"1433";"35";"14";"1";"37";"1";"2";"3";"2";"[36,39,40]";"2";"0";"1"
"1434";"1";"14";"1";"26";"1";"2";"3";"1";"[4,27,28,29,30]";"2";"0";"1"
"1435";"24";"15";"1";"36";"1";"2";"3";"1";"[9,37,38,40]";"2";"0";"1"
"1436";"37";"15";"1";"21";"1";"2";"3";"2";"[22,23,24,25]";"2";"0";"1"
"1437";"37";"16";"1";"21";"1";"2";"3";"2";"[22,23,24,25]";"2";"0";"1"
"1438";"33";"18";"1";"8";"1";"2";"3";"2";"[4,6,7,9]";"1";"0";"1"
"1439";"7";"18";"1";"23";"1";"2";"3";"1";"[15,21,22,24,25]";"1";"0";"1"
"1440";"3";"19";"1";"31";"1";"2";"3";"1";"[32,33,34,35]";"1";"0";"1"
"1441";"33";"19";"1";"8";"1";"2";"3";"2";"[4,6,7,9]";"1";"0";"1"
"1442";"7";"19";"1";"23";"1";"2";"3";"1";"[15,21,22,24,25]";"1";"0";"1"
"1443";"34";"19";"1";"24";"1";"2";"3";"2";"[21,22,23,25]";"2";"0";"1"
"1444";"3";"20";"1";"31";"1";"2";"3";"1";"[32,33,34,35]";"1";"0";"1"
"1445";"34";"20";"1";"24";"1";"2";"3";"2";"[21,22,23,25]";"2";"0";"1"
"1446";"23";"1";"1";"34";"1";"2";"4";"2";"[31,32]";"1";"0";"1"
"1447";"14";"1";"1";"6";"1";"2";"4";"2";"[7,8,9]";"2";"0";"1"
"1448";"8";"2";"1";"1";"1";"2";"4";"2";"[2,3,4,5,22]";"2";"0";"1"
"1449";"5";"2";"1";"30";"1";"2";"4";"2";"[15,26,27]";"2";"0";"1"
"1450";"11";"2";"1";"29";"1";"2";"4";"2";"[26,27,28]";"2";"0";"1"
"1451";"23";"2";"1";"34";"1";"2";"4";"2";"[31,32]";"1";"0";"1"
"1452";"16";"2";"1";"5";"1";"2";"4";"2";"[1,2,4,18]";"2";"0";"1"
"1453";"4";"2";"1";"20";"1";"2";"4";"2";"[16,17,18,19]";"1";"0";"1"
"1454";"14";"2";"1";"6";"1";"2";"4";"2";"[7,8,9]";"2";"0";"1"
"1455";"39";"2";"1";"17";"1";"2";"4";"1";"[16,18,19,20,32]";"1";"0";"1"
"1456";"8";"3";"1";"1";"1";"2";"4";"2";"[2,3,4,5,22]";"2";"0";"1"
"1457";"13";"3";"1";"2";"1";"2";"4";"2";"[1,3,4,5,19]";"2";"0";"1"
"1458";"5";"3";"1";"30";"1";"2";"4";"2";"[15,26,27]";"2";"0";"1"
"1459";"27";"3";"1";"14";"1";"2";"4";"2";"[11,12,13,15]";"2";"0";"1"
"1460";"11";"3";"1";"29";"1";"2";"4";"2";"[26,27,28]";"2";"0";"1"
